Trial_Number,Exposure_Duration,Displacement_Angle,Stimulus,Response,thisN,thisTrialN,thisRepN,Is_Distractor,key_resp_3.keys,key_resp_3.rt,key_resp_3.duration,key_resp_7.keys,key_resp_7.rt,key_resp_7.duration,trials.thisRepN,trials.thisTrialN,trials.thisN,trials.thisIndex,trials_2.thisRepN,trials_2.thisTrialN,trials_2.thisN,trials_2.thisIndex,trials_3.thisRepN,trials_3.thisTrialN,trials_3.thisN,trials_3.thisIndex,trials_4.thisRepN,trials_4.thisTrialN,trials_4.thisN,trials_4.thisIndex,thisRow.t,notes,Intro_to_experiment.started,important1_2.started,key_resp_8.started,Intro_to_experiment.stopped,key_resp_8.keys,key_resp_8.rt,key_resp_8.duration,important.started,important1.started,key_resp_4.started,important.stopped,key_resp_4.keys,key_resp_4.rt,key_resp_4.duration,instruction.started,text_7.started,key_resp_9.started,text_7.stopped,instruction.stopped,key_resp_9.keys,key_resp_9.rt,key_resp_9.duration,training_trial.started,cross.started,image.started,aperture.started,cross.stopped,image.stopped,aperture.stopped,training_trial.stopped,New_instruction.started,text.started,key_resp_2.started,New_instruction.stopped,key_resp_2.keys,key_resp_2.rt,key_resp_2.duration,test_trial.started,cross2.started,cross2.stopped,image_2.started,key_resp_3.started,aperture_2.started,test_trial.stopped,trials_2.key_resp_3.keys,trials_2.key_resp_3.rt,trials_2.key_resp_3.duration,start_blok_2.started,key_resp_5.started,text_4.started,start_blok_2.stopped,key_resp_5.keys,key_resp_5.rt,key_resp_5.duration,training_2.started,cross_2.started,image_3.started,aperture_3.started,cross_2.stopped,image_3.stopped,aperture_3.stopped,training_2.stopped,nyeste_instruks.started,text_5.started,key_resp_6.started,nyeste_instruks.stopped,key_resp_6.keys,key_resp_6.rt,key_resp_6.duration,test_2.started,cross2_2.started,cross2_2.stopped,image_4.started,key_resp_7.started,aperture_4.started,test_2.stopped,trials_4.key_resp_7.keys,trials_4.key_resp_7.rt,trials_4.key_resp_7.duration,Instruction1.started,Instruktion.started,key_resp.started,Instruction1.stopped,key_resp.keys,key_resp.rt,key_resp.duration,participant,session,date,expName,psychopyVersion,frameRate,expStart,
,,,,,,,,,,,,,,,,,,,,,,,,,,,,,,,,,0.008262628998636501,0.018507895001675934,0.018507895001675934,60.124231474001135,space,60.080780046002474,None,,,,,,,,,,,,,,,,,,,,,,,,,,,,,,,,,,,,,,,,,,,,,,,,,,,,,,,,,,,,,,,,,,,,,,,,,,,,,,,,010386,001,2024-11-28_11h30.59.339,Test,2024.2.1,60.049745208031936,2024-11-28 11h31.10.906883 +0100,
,,,,,,,,,,,,,,,,,,,,,,,,,,,,,,,,,,,,,,,,60.12433452700134,60.142692883000564,60.142692883000564,84.30979297600061,space,24.152439371999208,None,,,,,,,,,,,,,,,,,,,,,,,,,,,,,,,,,,,,,,,,,,,,,,,,,,,,,,,,,,,,,,,,,,,,,,,,,010386,001,2024-11-28_11h30.59.339,Test,2024.2.1,60.049745208031936,2024-11-28 11h31.10.906883 +0100,
,,,,,,,,,,,,,,,,,,,,,,,,,,,,,,,,,,,,,,,,,,,,,,,84.30987389700022,84.32489611100027,84.32489611100027,85.32590298099967,94.69578227300008,space,10.361108919998514,None,,,,,,,,,,,,,,,,,,,,,,,,,,,,,,,,,,,,,,,,,,,,,,,,,,,,,,,,,,,,,,,,,010386,001,2024-11-28_11h30.59.339,Test,2024.2.1,60.049745208031936,2024-11-28 11h31.10.906883 +0100,
10,150,30,13,None,0,0,0,,,,,,,,0,0,0,9,,,,,,,,,,,,,94.71993795999879,,,,,,,,,,,,,,,,,,,,,,,,94.71120355899984,94.71993795999879,94.90886386499915,94.90886386499915,94.92584593300126,96.61121179999827,96.61121179999827,96.59444506399814,,,,,,,,,,,,,,,,,,,,,,,,,,,,,,,,,,,,,,,,,,,,,,,,,,,,,,,,,010386,001,2024-11-28_11h30.59.339,Test,2024.2.1,60.049745208031936,2024-11-28 11h31.10.906883 +0100,
15,150,60,24,None,1,1,0,,,,,,,,0,1,1,14,,,,,,,,,,,,,96.61121179999827,,,,,,,,,,,,,,,,,,,,,,,,96.60258681699997,96.61121179999827,96.8090680360001,96.8090680360001,96.82567772100083,98.51002928600064,98.51002928600064,98.49312123599884,,,,,,,,,,,,,,,,,,,,,,,,,,,,,,,,,,,,,,,,,,,,,,,,,,,,,,,,,010386,001,2024-11-28_11h30.59.339,Test,2024.2.1,60.049745208031936,2024-11-28 11h31.10.906883 +0100,
32,150,180,34,None,2,2,0,,,,,,,,0,2,2,31,,,,,,,,,,,,,98.51002928600064,,,,,,,,,,,,,,,,,,,,,,,,98.50075953199848,98.51002928600064,98.71001855899885,98.71001855899885,98.71001855899885,100.41136012900097,100.41136012900097,100.39478293999855,,,,,,,,,,,,,,,,,,,,,,,,,,,,,,,,,,,,,,,,,,,,,,,,,,,,,,,,,010386,001,2024-11-28_11h30.59.339,Test,2024.2.1,60.049745208031936,2024-11-28 11h31.10.906883 +0100,
11,150,60,57,None,3,3,0,,,,,,,,0,3,3,10,,,,,,,,,,,,,100.41136012900097,,,,,,,,,,,,,,,,,,,,,,,,100.40300700399894,100.41136012900097,100.6102403090008,100.6102403090008,100.62740938799834,102.31011317500088,102.31011317500088,102.29398665400004,,,,,,,,,,,,,,,,,,,,,,,,,,,,,,,,,,,,,,,,,,,,,,,,,,,,,,,,,010386,001,2024-11-28_11h30.59.339,Test,2024.2.1,60.049745208031936,2024-11-28 11h31.10.906883 +0100,
5,150,0,67,None,4,4,0,,,,,,,,0,4,4,4,,,,,,,,,,,,,102.31011317500088,,,,,,,,,,,,,,,,,,,,,,,,102.29826713999864,102.31011317500088,102.51023098899896,102.51023098899896,102.51023098899896,104.20990932600034,104.20990932600034,104.19331738600158,,,,,,,,,,,,,,,,,,,,,,,,,,,,,,,,,,,,,,,,,,,,,,,,,,,,,,,,,010386,001,2024-11-28_11h30.59.339,Test,2024.2.1,60.049745208031936,2024-11-28 11h31.10.906883 +0100,
14,150,60,38,None,5,5,0,,,,,,,,0,5,5,13,,,,,,,,,,,,,104.20990932600034,,,,,,,,,,,,,,,,,,,,,,,,104.19738948599843,104.20990932600034,104.41035269799977,104.41035269799977,104.41035269799977,106.10922091699831,106.10922091699831,106.09479625899985,,,,,,,,,,,,,,,,,,,,,,,,,,,,,,,,,,,,,,,,,,,,,,,,,,,,,,,,,010386,001,2024-11-28_11h30.59.339,Test,2024.2.1,60.049745208031936,2024-11-28 11h31.10.906883 +0100,
3,150,0,44,None,6,6,0,,,,,,,,0,6,6,2,,,,,,,,,,,,,106.10922091699831,,,,,,,,,,,,,,,,,,,,,,,,106.10034660200108,106.10922091699831,106.30987291400015,106.30987291400015,106.30987291400015,108.00973861899911,108.00973861899911,107.99438629699944,,,,,,,,,,,,,,,,,,,,,,,,,,,,,,,,,,,,,,,,,,,,,,,,,,,,,,,,,010386,001,2024-11-28_11h30.59.339,Test,2024.2.1,60.049745208031936,2024-11-28 11h31.10.906883 +0100,
4,150,0,28,None,7,7,0,,,,,,,,0,7,7,3,,,,,,,,,,,,,108.00973861899911,,,,,,,,,,,,,,,,,,,,,,,,107.99811044400121,108.00973861899911,108.21025884700066,108.21025884700066,108.21025884700066,109.91082359500069,109.91082359500069,109.8949297500003,,,,,,,,,,,,,,,,,,,,,,,,,,,,,,,,,,,,,,,,,,,,,,,,,,,,,,,,,010386,001,2024-11-28_11h30.59.339,Test,2024.2.1,60.049745208031936,2024-11-28 11h31.10.906883 +0100,
26,150,150,63,None,8,8,0,,,,,,,,0,8,8,25,,,,,,,,,,,,,109.91082359500069,,,,,,,,,,,,,,,,,,,,,,,,109.90157738600101,109.91082359500069,110.11032760400121,110.11032760400121,110.11032760400121,111.81030545199974,111.81030545199974,111.79396768700099,,,,,,,,,,,,,,,,,,,,,,,,,,,,,,,,,,,,,,,,,,,,,,,,,,,,,,,,,010386,001,2024-11-28_11h30.59.339,Test,2024.2.1,60.049745208031936,2024-11-28 11h31.10.906883 +0100,
19,150,90,15,None,9,9,0,,,,,,,,0,9,9,18,,,,,,,,,,,,,111.81030545199974,,,,,,,,,,,,,,,,,,,,,,,,111.79737120600112,111.81030545199974,112.01014259500153,112.01014259500153,112.01014259500153,113.71102154799883,113.71102154799883,113.69559844000105,,,,,,,,,,,,,,,,,,,,,,,,,,,,,,,,,,,,,,,,,,,,,,,,,,,,,,,,,010386,001,2024-11-28_11h30.59.339,Test,2024.2.1,60.049745208031936,2024-11-28 11h31.10.906883 +0100,
35,150,180,30,None,10,10,0,,,,,,,,0,10,10,34,,,,,,,,,,,,,113.71102154799883,,,,,,,,,,,,,,,,,,,,,,,,113.70215104100134,113.71102154799883,113.91019150400098,113.91019150400098,113.91019150400098,115.61262464299944,115.61262464299944,115.5957618450011,,,,,,,,,,,,,,,,,,,,,,,,,,,,,,,,,,,,,,,,,,,,,,,,,,,,,,,,,010386,001,2024-11-28_11h30.59.339,Test,2024.2.1,60.049745208031936,2024-11-28 11h31.10.906883 +0100,
27,150,150,29,None,11,11,0,,,,,,,,0,11,11,26,,,,,,,,,,,,,115.61262464299944,,,,,,,,,,,,,,,,,,,,,,,,115.60276859399892,115.61262464299944,115.81035694399907,115.81035694399907,115.82763583300039,117.5106981889985,117.5106981889985,117.49441783599832,,,,,,,,,,,,,,,,,,,,,,,,,,,,,,,,,,,,,,,,,,,,,,,,,,,,,,,,,010386,001,2024-11-28_11h30.59.339,Test,2024.2.1,60.049745208031936,2024-11-28 11h31.10.906883 +0100,
7,150,30,61,None,12,12,0,,,,,,,,0,12,12,6,,,,,,,,,,,,,117.5106981889985,,,,,,,,,,,,,,,,,,,,,,,,117.49812116400062,117.5106981889985,117.71032401100092,117.71032401100092,117.71032401100092,119.41044112500094,119.41044112500094,119.39391252600035,,,,,,,,,,,,,,,,,,,,,,,,,,,,,,,,,,,,,,,,,,,,,,,,,,,,,,,,,010386,001,2024-11-28_11h30.59.339,Test,2024.2.1,60.049745208031936,2024-11-28 11h31.10.906883 +0100,
2,150,0,70,None,13,13,0,,,,,,,,0,13,13,1,,,,,,,,,,,,,119.41044112500094,,,,,,,,,,,,,,,,,,,,,,,,119.39756438200129,119.41044112500094,119.61101018699992,119.61101018699992,119.61101018699992,121.31089198599875,121.31089198599875,121.29584262099888,,,,,,,,,,,,,,,,,,,,,,,,,,,,,,,,,,,,,,,,,,,,,,,,,,,,,,,,,010386,001,2024-11-28_11h30.59.339,Test,2024.2.1,60.049745208031936,2024-11-28 11h31.10.906883 +0100,
8,150,30,36,None,14,14,0,,,,,,,,0,14,14,7,,,,,,,,,,,,,121.31089198599875,,,,,,,,,,,,,,,,,,,,,,,,121.30175176099874,121.31089198599875,121.51062941700002,121.51062941700002,121.51062941700002,123.2107974999999,123.2107974999999,123.19524485700094,,,,,,,,,,,,,,,,,,,,,,,,,,,,,,,,,,,,,,,,,,,,,,,,,,,,,,,,,010386,001,2024-11-28_11h30.59.339,Test,2024.2.1,60.049745208031936,2024-11-28 11h31.10.906883 +0100,
31,150,180,56,None,15,15,0,,,,,,,,0,15,15,30,,,,,,,,,,,,,123.2107974999999,,,,,,,,,,,,,,,,,,,,,,,,123.1989872769991,123.2107974999999,123.41083733699998,123.41083733699998,123.41083733699998,125.11200917400129,125.11200917400129,125.0963250700006,,,,,,,,,,,,,,,,,,,,,,,,,,,,,,,,,,,,,,,,,,,,,,,,,,,,,,,,,010386,001,2024-11-28_11h30.59.339,Test,2024.2.1,60.049745208031936,2024-11-28 11h31.10.906883 +0100,
23,150,120,3,None,16,16,0,,,,,,,,0,16,16,22,,,,,,,,,,,,,125.11200917400129,,,,,,,,,,,,,,,,,,,,,,,,125.10309829299877,125.11200917400129,125.31103824499951,125.31103824499951,125.31103824499951,127.01158278599905,127.01158278599905,126.9963290989981,,,,,,,,,,,,,,,,,,,,,,,,,,,,,,,,,,,,,,,,,,,,,,,,,,,,,,,,,010386,001,2024-11-28_11h30.59.339,Test,2024.2.1,60.049745208031936,2024-11-28 11h31.10.906883 +0100,
28,150,150,52,None,17,17,0,,,,,,,,0,17,17,27,,,,,,,,,,,,,127.01158278599905,,,,,,,,,,,,,,,,,,,,,,,,127.00292619500033,127.01158278599905,127.1949615630001,127.1949615630001,127.21109306699873,128.8969997159984,128.8969997159984,128.88013978800154,,,,,,,,,,,,,,,,,,,,,,,,,,,,,,,,,,,,,,,,,,,,,,,,,,,,,,,,,010386,001,2024-11-28_11h30.59.339,Test,2024.2.1,60.049745208031936,2024-11-28 11h31.10.906883 +0100,
17,150,90,9,None,18,18,0,,,,,,,,0,18,18,16,,,,,,,,,,,,,128.8969997159984,,,,,,,,,,,,,,,,,,,,,,,,128.88674669399916,128.8969997159984,129.09544499600088,129.09544499600088,129.11201325900038,130.79513465100172,130.79513465100172,130.7800315380009,,,,,,,,,,,,,,,,,,,,,,,,,,,,,,,,,,,,,,,,,,,,,,,,,,,,,,,,,010386,001,2024-11-28_11h30.59.339,Test,2024.2.1,60.049745208031936,2024-11-28 11h31.10.906883 +0100,
33,150,180,53,None,19,19,0,,,,,,,,0,19,19,32,,,,,,,,,,,,,130.79513465100172,,,,,,,,,,,,,,,,,,,,,,,,130.78639578599905,130.79513465100172,131.01165950599898,131.01165950599898,130.99506051199933,132.71142671399866,132.71142671399866,132.69571294300113,,,,,,,,,,,,,,,,,,,,,,,,,,,,,,,,,,,,,,,,,,,,,,,,,,,,,,,,,010386,001,2024-11-28_11h30.59.339,Test,2024.2.1,60.049745208031936,2024-11-28 11h31.10.906883 +0100,
6,150,30,33,None,20,20,0,,,,,,,,0,20,20,5,,,,,,,,,,,,,132.71142671399866,,,,,,,,,,,,,,,,,,,,,,,,132.6997575860005,132.71142671399866,132.89590744100133,132.89590744100133,132.91136447299868,134.6115548739981,134.6115548739981,134.59574065199922,,,,,,,,,,,,,,,,,,,,,,,,,,,,,,,,,,,,,,,,,,,,,,,,,,,,,,,,,010386,001,2024-11-28_11h30.59.339,Test,2024.2.1,60.049745208031936,2024-11-28 11h31.10.906883 +0100,
22,150,120,41,None,21,21,0,,,,,,,,0,21,21,21,,,,,,,,,,,,,134.6115548739981,,,,,,,,,,,,,,,,,,,,,,,,134.60031321399947,134.6115548739981,134.7949583640002,134.7949583640002,134.81199817300148,136.4952885649982,136.4952885649982,136.47916678399997,,,,,,,,,,,,,,,,,,,,,,,,,,,,,,,,,,,,,,,,,,,,,,,,,,,,,,,,,010386,001,2024-11-28_11h30.59.339,Test,2024.2.1,60.049745208031936,2024-11-28 11h31.10.906883 +0100,
9,150,30,59,None,22,22,0,,,,,,,,0,22,22,8,,,,,,,,,,,,,136.4952885649982,,,,,,,,,,,,,,,,,,,,,,,,136.48354356300115,136.4952885649982,136.69516318399837,136.69516318399837,136.69516318399837,138.39578113099924,138.39578113099924,138.38057452499925,,,,,,,,,,,,,,,,,,,,,,,,,,,,,,,,,,,,,,,,,,,,,,,,,,,,,,,,,010386,001,2024-11-28_11h30.59.339,Test,2024.2.1,60.049745208031936,2024-11-28 11h31.10.906883 +0100,
16,150,90,60,None,23,23,0,,,,,,,,0,23,23,15,,,,,,,,,,,,,138.39578113099924,,,,,,,,,,,,,,,,,,,,,,,,138.3869704710014,138.39578113099924,138.59509582900137,138.59509582900137,138.59509582900137,140.29596114000014,140.29596114000014,140.2804126459996,,,,,,,,,,,,,,,,,,,,,,,,,,,,,,,,,,,,,,,,,,,,,,,,,,,,,,,,,010386,001,2024-11-28_11h30.59.339,Test,2024.2.1,60.049745208031936,2024-11-28 11h31.10.906883 +0100,
30,150,150,18,None,24,24,0,,,,,,,,0,24,24,29,,,,,,,,,,,,,140.29596114000014,,,,,,,,,,,,,,,,,,,,,,,,140.2871442789983,140.29596114000014,140.49620600599883,140.49620600599883,140.49620600599883,142.19584262400167,142.19584262400167,142.1797011790004,,,,,,,,,,,,,,,,,,,,,,,,,,,,,,,,,,,,,,,,,,,,,,,,,,,,,,,,,010386,001,2024-11-28_11h30.59.339,Test,2024.2.1,60.049745208031936,2024-11-28 11h31.10.906883 +0100,
20,150,90,40,None,25,25,0,,,,,,,,0,25,25,19,,,,,,,,,,,,,142.19584262400167,,,,,,,,,,,,,,,,,,,,,,,,142.1830358619991,142.19584262400167,142.39542463899852,142.39542463899852,142.39542463899852,144.0958932930007,144.0958932930007,144.0806502129999,,,,,,,,,,,,,,,,,,,,,,,,,,,,,,,,,,,,,,,,,,,,,,,,,,,,,,,,,010386,001,2024-11-28_11h30.59.339,Test,2024.2.1,60.049745208031936,2024-11-28 11h31.10.906883 +0100,
18,150,90,31,None,26,26,0,,,,,,,,0,26,26,17,,,,,,,,,,,,,144.0958932930007,,,,,,,,,,,,,,,,,,,,,,,,144.08726404700064,144.0958932930007,144.29560280200167,144.29560280200167,144.29560280200167,145.9971042319994,145.9971042319994,145.98127877200022,,,,,,,,,,,,,,,,,,,,,,,,,,,,,,,,,,,,,,,,,,,,,,,,,,,,,,,,,010386,001,2024-11-28_11h30.59.339,Test,2024.2.1,60.049745208031936,2024-11-28 11h31.10.906883 +0100,
21,150,120,1,None,27,27,0,,,,,,,,0,27,27,20,,,,,,,,,,,,,145.9971042319994,,,,,,,,,,,,,,,,,,,,,,,,145.98793839499922,145.9971042319994,146.19683037199866,146.19683037199866,146.19683037199866,147.89579007299835,147.89579007299835,147.88000629499948,,,,,,,,,,,,,,,,,,,,,,,,,,,,,,,,,,,,,,,,,,,,,,,,,,,,,,,,,010386,001,2024-11-28_11h30.59.339,Test,2024.2.1,60.049745208031936,2024-11-28 11h31.10.906883 +0100,
34,150,180,46,None,28,28,0,,,,,,,,0,28,28,33,,,,,,,,,,,,,147.89579007299835,,,,,,,,,,,,,,,,,,,,,,,,147.88470654900084,147.89579007299835,148.0962836200015,148.0962836200015,148.0962836200015,149.79694400299923,149.79694400299923,149.78110810499857,,,,,,,,,,,,,,,,,,,,,,,,,,,,,,,,,,,,,,,,,,,,,,,,,,,,,,,,,010386,001,2024-11-28_11h30.59.339,Test,2024.2.1,60.049745208031936,2024-11-28 11h31.10.906883 +0100,
25,150,120,16,None,29,29,0,,,,,,,,0,29,29,24,,,,,,,,,,,,,149.79694400299923,,,,,,,,,,,,,,,,,,,,,,,,149.78767702799814,149.79694400299923,149.99594573799914,149.99594573799914,149.99594573799914,151.69678971300164,151.69678971300164,151.6814799620006,,,,,,,,,,,,,,,,,,,,,,,,,,,,,,,,,,,,,,,,,,,,,,,,,,,,,,,,,010386,001,2024-11-28_11h30.59.339,Test,2024.2.1,60.049745208031936,2024-11-28 11h31.10.906883 +0100,
1,150,0,65,None,30,30,0,,,,,,,,0,30,30,0,,,,,,,,,,,,,151.69678971300164,,,,,,,,,,,,,,,,,,,,,,,,151.6880818819991,151.69678971300164,151.8963450480005,151.8963450480005,151.8963450480005,153.59737765200043,153.59737765200043,153.58167153999966,,,,,,,,,,,,,,,,,,,,,,,,,,,,,,,,,,,,,,,,,,,,,,,,,,,,,,,,,010386,001,2024-11-28_11h30.59.339,Test,2024.2.1,60.049745208031936,2024-11-28 11h31.10.906883 +0100,
13,150,60,51,None,31,31,0,,,,,,,,0,31,31,12,,,,,,,,,,,,,153.59737765200043,,,,,,,,,,,,,,,,,,,,,,,,153.588372481001,153.59737765200043,153.79690973299876,153.79690973299876,153.79690973299876,155.4973714000007,155.4973714000007,155.48204445100055,,,,,,,,,,,,,,,,,,,,,,,,,,,,,,,,,,,,,,,,,,,,,,,,,,,,,,,,,010386,001,2024-11-28_11h30.59.339,Test,2024.2.1,60.049745208031936,2024-11-28 11h31.10.906883 +0100,
24,150,120,35,None,32,32,0,,,,,,,,0,32,32,23,,,,,,,,,,,,,155.4973714000007,,,,,,,,,,,,,,,,,,,,,,,,155.4888723369986,155.4973714000007,155.69720100300037,155.69720100300037,155.69720100300037,157.396452039,157.396452039,157.3805063610016,,,,,,,,,,,,,,,,,,,,,,,,,,,,,,,,,,,,,,,,,,,,,,,,,,,,,,,,,010386,001,2024-11-28_11h30.59.339,Test,2024.2.1,60.049745208031936,2024-11-28 11h31.10.906883 +0100,
29,150,150,14,None,33,33,0,,,,,,,,0,33,33,28,,,,,,,,,,,,,157.396452039,,,,,,,,,,,,,,,,,,,,,,,,157.38393678300054,157.396452039,157.5978700759988,157.5978700759988,157.5978700759988,159.29812278900135,159.29812278900135,159.28216025399888,,,,,,,,,,,,,,,,,,,,,,,,,,,,,,,,,,,,,,,,,,,,,,,,,,,,,,,,,010386,001,2024-11-28_11h30.59.339,Test,2024.2.1,60.049745208031936,2024-11-28 11h31.10.906883 +0100,
12,150,60,19,None,34,34,0,,,,,,,,0,34,34,11,,,,,,,,,,,,,159.29812278900135,,,,,,,,,,,,,,,,,,,,,,,,159.288793402,159.29812278900135,159.49808767099967,159.49808767099967,159.51457545800076,161.1969143690003,161.1969143690003,161.1818887670015,,,,,,,,,,,,,,,,,,,,,,,,,,,,,,,,,,,,,,,,,,,,,,,,,,,,,,,,,010386,001,2024-11-28_11h30.59.339,Test,2024.2.1,60.049745208031936,2024-11-28 11h31.10.906883 +0100,
,,,,,,,,,,,,,,,,,,,,,,,,,,,,,,,,,,,,,,,,,,,,,,,,,,,,,,,,,,,,,,,161.18210894100048,161.1969143690003,161.1969143690003,179.61670518399842,space,18.410802798000077,None,,,,,,,,,,,,,,,,,,,,,,,,,,,,,,,,,,,,,,,,,,,,,,,,,,010386,001,2024-11-28_11h30.59.339,Test,2024.2.1,60.049745208031936,2024-11-28 11h31.10.906883 +0100,
24,150,120,35,None,0,0,0,False,right,1.1357776049990207,None,,,,,,,,0,0,0,0,,,,,,,,,179.6390207000004,,,,,,,,,,,,,,,,,,,,,,,,,,,,,,,,,,,,,,,179.63023332599914,179.6390207000004,180.6482336379995,181.63179023400153,181.63179023400153,181.63179023400153,182.7837987999992,right,1.1357776049990207,None,,,,,,,,,,,,,,,,,,,,,,,,,,,,,,,,,,,,,,,,010386,001,2024-11-28_11h30.59.339,Test,2024.2.1,60.049745208031936,2024-11-28 11h31.10.906883 +0100,
55,150,90,42,None,1,1,0,True,right,1.600884245999623,None,,,,,,,,0,1,1,1,,,,,,,,,182.81164731600074,,,,,,,,,,,,,,,,,,,,,,,,,,,,,,,,,,,,,,,182.78801059000034,182.81164731600074,183.81498092499896,184.79930493899883,184.79930493899883,184.79930493899883,186.41791192500023,right,1.600884245999623,None,,,,,,,,,,,,,,,,,,,,,,,,,,,,,,,,,,,,,,,,010386,001,2024-11-28_11h30.59.339,Test,2024.2.1,60.049745208031936,2024-11-28 11h31.10.906883 +0100,
5,150,0,67,None,2,2,0,False,right,0.8468487549980637,None,,,,,,,,0,2,2,2,,,,,,,,,186.43148772999848,,,,,,,,,,,,,,,,,,,,,,,,,,,,,,,,,,,,,,,186.42181652499858,186.43148772999848,187.4330667180002,188.43277430099988,188.43277430099988,188.43277430099988,189.2862497210008,right,0.8468487549980637,None,,,,,,,,,,,,,,,,,,,,,,,,,,,,,,,,,,,,,,,,010386,001,2024-11-28_11h30.59.339,Test,2024.2.1,60.049745208031936,2024-11-28 11h31.10.906883 +0100,
25,150,120,16,None,3,3,0,False,right,2.046892353999283,None,,,,,,,,0,3,3,3,,,,,,,,,189.29898751400106,,,,,,,,,,,,,,,,,,,,,,,,,,,,,,,,,,,,,,,189.29047385100057,189.29898751400106,190.29905567400056,191.2999016899994,191.2999016899994,191.2999016899994,193.35267259900138,right,2.046892353999283,None,,,,,,,,,,,,,,,,,,,,,,,,,,,,,,,,,,,,,,,,010386,001,2024-11-28_11h30.59.339,Test,2024.2.1,60.049745208031936,2024-11-28 11h31.10.906883 +0100,
44,150,30,64,None,4,4,0,True,left,0.8201473469998746,None,,,,,,,,0,4,4,4,,,,,,,,,193.3657808909993,,,,,,,,,,,,,,,,,,,,,,,,,,,,,,,,,,,,,,,193.35667093200027,193.3657808909993,194.3668147770004,195.366724978001,195.366724978001,195.366724978001,196.20176861000073,left,0.8201473469998746,None,,,,,,,,,,,,,,,,,,,,,,,,,,,,,,,,,,,,,,,,010386,001,2024-11-28_11h30.59.339,Test,2024.2.1,60.049745208031936,2024-11-28 11h31.10.906883 +0100,
39,150,0,43,None,5,5,0,True,left,0.9859425329996157,None,,,,,,,,0,5,5,5,,,,,,,,,196.21599039400098,,,,,,,,,,,,,,,,,,,,,,,,,,,,,,,,,,,,,,,196.20527515600043,196.21599039400098,197.21682921699903,198.21672277900143,198.21672277900143,198.21672277900143,199.21769412999856,left,0.9859425329996157,None,,,,,,,,,,,,,,,,,,,,,,,,,,,,,,,,,,,,,,,,010386,001,2024-11-28_11h30.59.339,Test,2024.2.1,60.049745208031936,2024-11-28 11h31.10.906883 +0100,
37,150,0,45,None,6,6,0,True,left,1.3761049550012103,None,,,,,,,,0,6,6,6,,,,,,,,,199.23314744299932,,,,,,,,,,,,,,,,,,,,,,,,,,,,,,,,,,,,,,,199.2212585060006,199.23314744299932,200.23303892499825,201.21712961799858,201.21712961799858,201.21712961799858,202.601187070999,left,1.3761049550012103,None,,,,,,,,,,,,,,,,,,,,,,,,,,,,,,,,,,,,,,,,010386,001,2024-11-28_11h30.59.339,Test,2024.2.1,60.049745208031936,2024-11-28 11h31.10.906883 +0100,
62,150,150,49,None,7,7,0,True,right,1.1061359279992757,None,,,,,,,,0,7,7,7,,,,,,,,,202.61581012500028,,,,,,,,,,,,,,,,,,,,,,,,,,,,,,,,,,,,,,,202.6047735079992,202.61581012500028,203.6171843830016,204.6004106449982,204.6004106449982,204.6004106449982,205.71825946800163,right,1.1061359279992757,None,,,,,,,,,,,,,,,,,,,,,,,,,,,,,,,,,,,,,,,,010386,001,2024-11-28_11h30.59.339,Test,2024.2.1,60.049745208031936,2024-11-28 11h31.10.906883 +0100,
16,150,90,60,None,8,8,0,False,right,0.869358600997657,None,,,,,,,,0,8,8,8,,,,,,,,,205.73263585899986,,,,,,,,,,,,,,,,,,,,,,,,,,,,,,,,,,,,,,,205.7230089170007,205.73263585899986,206.73369410099986,207.73320735599918,207.73320735599918,207.73320735599918,208.61917454599825,right,0.869358600997657,None,,,,,,,,,,,,,,,,,,,,,,,,,,,,,,,,,,,,,,,,010386,001,2024-11-28_11h30.59.339,Test,2024.2.1,60.049745208031936,2024-11-28 11h31.10.906883 +0100,
34,150,180,46,None,9,9,0,False,left,0.9715787710010773,None,,,,,,,,0,9,9,9,,,,,,,,,208.6333118279981,,,,,,,,,,,,,,,,,,,,,,,,,,,,,,,,,,,,,,,208.62274680300106,208.6333118279981,209.63340400200104,210.63442277099966,210.63442277099966,210.63442277099966,211.61788633900142,left,0.9715787710010773,None,,,,,,,,,,,,,,,,,,,,,,,,,,,,,,,,,,,,,,,,010386,001,2024-11-28_11h30.59.339,Test,2024.2.1,60.049745208031936,2024-11-28 11h31.10.906883 +0100,
27,150,150,29,None,10,10,0,False,right,1.5203789910010528,None,,,,,,,,0,10,10,10,,,,,,,,,211.63336548200095,,,,,,,,,,,,,,,,,,,,,,,,,,,,,,,,,,,,,,,211.62141175099896,211.63336548200095,212.63451661499857,213.61798092499885,213.61798092499885,213.61798092499885,215.15228279700023,right,1.5203789910010528,None,,,,,,,,,,,,,,,,,,,,,,,,,,,,,,,,,,,,,,,,010386,001,2024-11-28_11h30.59.339,Test,2024.2.1,60.049745208031936,2024-11-28 11h31.10.906883 +0100,
19,150,90,15,None,11,11,0,False,left,1.333719612997811,None,,,,,,,,0,11,11,11,,,,,,,,,215.16683542999817,,,,,,,,,,,,,,,,,,,,,,,,,,,,,,,,,,,,,,,215.15614844200172,215.16683542999817,216.16817794799863,217.15156846899845,217.15156846899845,217.15156846899845,218.50233427299827,left,1.333719612997811,None,,,,,,,,,,,,,,,,,,,,,,,,,,,,,,,,,,,,,,,,010386,001,2024-11-28_11h30.59.339,Test,2024.2.1,60.049745208031936,2024-11-28 11h31.10.906883 +0100,
63,150,150,22,None,12,12,0,True,right,0.8940947230003076,None,,,,,,,,0,12,12,12,,,,,,,,,218.51740991299812,,,,,,,,,,,,,,,,,,,,,,,,,,,,,,,,,,,,,,,218.50584568799968,218.51740991299812,219.518287668001,220.5021413780014,220.5021413780014,220.5021413780014,221.4027678700004,right,0.8940947230003076,None,,,,,,,,,,,,,,,,,,,,,,,,,,,,,,,,,,,,,,,,010386,001,2024-11-28_11h30.59.339,Test,2024.2.1,60.049745208031936,2024-11-28 11h31.10.906883 +0100,
28,150,150,52,None,13,13,0,False,left,0.8584325830015587,None,,,,,,,,0,13,13,13,,,,,,,,,221.41756508500112,,,,,,,,,,,,,,,,,,,,,,,,,,,,,,,,,,,,,,,221.40611880600045,221.41756508500112,222.4185697139983,223.41856744400138,223.41856744400138,223.41856744400138,224.2877328909999,left,0.8584325830015587,None,,,,,,,,,,,,,,,,,,,,,,,,,,,,,,,,,,,,,,,,010386,001,2024-11-28_11h30.59.339,Test,2024.2.1,60.049745208031936,2024-11-28 11h31.10.906883 +0100,
67,150,180,48,None,14,14,0,True,right,1.0006365230001393,None,,,,,,,,0,14,14,14,,,,,,,,,224.30084777400043,,,,,,,,,,,,,,,,,,,,,,,,,,,,,,,,,,,,,,,224.2916828890011,224.30084777400043,225.30162163099885,226.30184162799924,226.30184162799924,226.30184162799924,227.31982922599855,right,1.0006365230001393,None,,,,,,,,,,,,,,,,,,,,,,,,,,,,,,,,,,,,,,,,010386,001,2024-11-28_11h30.59.339,Test,2024.2.1,60.049745208031936,2024-11-28 11h31.10.906883 +0100,
22,150,120,41,None,15,15,0,False,right,1.0678790930032847,None,,,,,,,,0,15,15,15,,,,,,,,,227.33458195599815,,,,,,,,,,,,,,,,,,,,,,,,,,,,,,,,,,,,,,,227.3253081469993,227.33458195599815,228.33490238599916,229.33585146900077,229.33585146900077,229.33585146900077,230.4200010070017,right,1.0678790930032847,None,,,,,,,,,,,,,,,,,,,,,,,,,,,,,,,,,,,,,,,,010386,001,2024-11-28_11h30.59.339,Test,2024.2.1,60.049745208031936,2024-11-28 11h31.10.906883 +0100,
2,150,0,70,None,16,16,0,False,right,0.9193660999990243,None,,,,,,,,0,16,16,16,,,,,,,,,230.43503408499964,,,,,,,,,,,,,,,,,,,,,,,,,,,,,,,,,,,,,,,230.42350391199943,230.43503408499964,231.4353406070004,232.43493604700052,232.43493604700052,232.43493604700052,233.36928672000067,right,0.9193660999990243,None,,,,,,,,,,,,,,,,,,,,,,,,,,,,,,,,,,,,,,,,010386,001,2024-11-28_11h30.59.339,Test,2024.2.1,60.049745208031936,2024-11-28 11h31.10.906883 +0100,
68,150,180,23,None,17,17,0,True,left,0.872614228999737,None,,,,,,,,0,17,17,17,,,,,,,,,233.38495530399814,,,,,,,,,,,,,,,,,,,,,,,,,,,,,,,,,,,,,,,233.37277955800164,233.38495530399814,234.38619095499962,235.36886793699887,235.36886793699887,235.36886793699887,236.25422280299972,left,0.872614228999737,None,,,,,,,,,,,,,,,,,,,,,,,,,,,,,,,,,,,,,,,,010386,001,2024-11-28_11h30.59.339,Test,2024.2.1,60.049745208031936,2024-11-28 11h31.10.906883 +0100,
40,150,0,25,None,18,18,0,True,left,1.3915479319985025,None,,,,,,,,0,18,18,18,,,,,,,,,236.26824293200116,,,,,,,,,,,,,,,,,,,,,,,,,,,,,,,,,,,,,,,236.257759696,236.26824293200116,237.26942019700073,238.27003075800167,238.27003075800167,238.27003075800167,239.67043895100142,left,1.3915479319985025,None,,,,,,,,,,,,,,,,,,,,,,,,,,,,,,,,,,,,,,,,010386,001,2024-11-28_11h30.59.339,Test,2024.2.1,60.049745208031936,2024-11-28 11h31.10.906883 +0100,
66,150,180,2,None,19,19,0,True,left,1.5774078159993223,None,,,,,,,,0,19,19,19,,,,,,,,,239.6852958540003,,,,,,,,,,,,,,,,,,,,,,,,,,,,,,,,,,,,,,,239.67402937099905,239.6852958540003,240.68662398300148,241.6698376489985,241.6698376489985,241.6698376489985,243.25418064699988,left,1.5774078159993223,None,,,,,,,,,,,,,,,,,,,,,,,,,,,,,,,,,,,,,,,,010386,001,2024-11-28_11h30.59.339,Test,2024.2.1,60.049745208031936,2024-11-28 11h31.10.906883 +0100,
38,150,0,11,None,20,20,0,True,right,1.8190743729974201,None,,,,,,,,0,20,20,20,,,,,,,,,243.26852394199886,,,,,,,,,,,,,,,,,,,,,,,,,,,,,,,,,,,,,,,243.2574942430001,243.26852394199886,244.27006969500144,245.26984455699858,245.26984455699858,245.26984455699858,247.10341482399963,right,1.8190743729974201,None,,,,,,,,,,,,,,,,,,,,,,,,,,,,,,,,,,,,,,,,010386,001,2024-11-28_11h30.59.339,Test,2024.2.1,60.049745208031936,2024-11-28 11h31.10.906883 +0100,
18,150,90,31,None,21,21,0,False,left,1.134313792001194,None,,,,,,,,0,21,21,21,,,,,,,,,247.11941867600035,,,,,,,,,,,,,,,,,,,,,,,,,,,,,,,,,,,,,,,247.1068657930009,247.11941867600035,248.11935660200106,249.10396254200168,249.10396254200168,249.10396254200168,250.2548273450011,left,1.134313792001194,None,,,,,,,,,,,,,,,,,,,,,,,,,,,,,,,,,,,,,,,,010386,001,2024-11-28_11h30.59.339,Test,2024.2.1,60.049745208031936,2024-11-28 11h31.10.906883 +0100,
12,150,60,19,None,22,22,0,False,right,1.0065838959999382,None,,,,,,,,0,22,22,22,,,,,,,,,250.26910162900094,,,,,,,,,,,,,,,,,,,,,,,,,,,,,,,,,,,,,,,250.25818717899892,250.26910162900094,251.27054183099972,252.27050389700162,252.27050389700162,252.27050389700162,253.28761650600063,right,1.0065838959999382,None,,,,,,,,,,,,,,,,,,,,,,,,,,,,,,,,,,,,,,,,010386,001,2024-11-28_11h30.59.339,Test,2024.2.1,60.049745208031936,2024-11-28 11h31.10.906883 +0100,
7,150,30,61,None,23,23,0,False,left,0.9858631719980622,None,,,,,,,,0,23,23,23,,,,,,,,,253.30265982199853,,,,,,,,,,,,,,,,,,,,,,,,,,,,,,,,,,,,,,,253.29111356499925,253.30265982199853,254.30416280200006,255.28739413400035,255.28739413400035,255.28739413400035,256.2888171580016,left,0.9858631719980622,None,,,,,,,,,,,,,,,,,,,,,,,,,,,,,,,,,,,,,,,,010386,001,2024-11-28_11h30.59.339,Test,2024.2.1,60.049745208031936,2024-11-28 11h31.10.906883 +0100,
3,150,0,44,None,24,24,0,False,right,0.7660718570004974,None,,,,,,,,0,24,24,24,,,,,,,,,256.303529443001,,,,,,,,,,,,,,,,,,,,,,,,,,,,,,,,,,,,,,,256.2923628440003,256.303529443001,257.3033232880007,258.28758833100073,258.28758833100073,258.28758833100073,259.0567057070002,right,0.7660718570004974,None,,,,,,,,,,,,,,,,,,,,,,,,,,,,,,,,,,,,,,,,010386,001,2024-11-28_11h30.59.339,Test,2024.2.1,60.049745208031936,2024-11-28 11h31.10.906883 +0100,
45,150,30,69,None,25,25,0,True,right,1.0546156399977917,None,,,,,,,,0,25,25,25,,,,,,,,,259.0704331909983,,,,,,,,,,,,,,,,,,,,,,,,,,,,,,,,,,,,,,,259.060320777,259.0704331909983,260.07021866799914,261.0714414110007,261.0714414110007,261.0714414110007,262.13865367299877,right,1.0546156399977917,None,,,,,,,,,,,,,,,,,,,,,,,,,,,,,,,,,,,,,,,,010386,001,2024-11-28_11h30.59.339,Test,2024.2.1,60.049745208031936,2024-11-28 11h31.10.906883 +0100,
64,150,150,54,None,26,26,0,True,left,1.01897205899877,None,,,,,,,,0,26,26,26,,,,,,,,,262.15404870400016,,,,,,,,,,,,,,,,,,,,,,,,,,,,,,,,,,,,,,,262.142074211999,262.15404870400016,263.15393322900127,264.13804132899895,264.13804132899895,264.13804132899895,265.17226671699973,left,1.01897205899877,None,,,,,,,,,,,,,,,,,,,,,,,,,,,,,,,,,,,,,,,,010386,001,2024-11-28_11h30.59.339,Test,2024.2.1,60.049745208031936,2024-11-28 11h31.10.906883 +0100,
57,150,120,55,None,27,27,0,True,right,0.9362194200002705,None,,,,,,,,0,27,27,27,,,,,,,,,265.1874603010001,,,,,,,,,,,,,,,,,,,,,,,,,,,,,,,,,,,,,,,265.1758881069982,265.1874603010001,266.18816735200016,267.17164518999925,267.17164518999925,267.17164518999925,268.1225924099999,right,0.9362194200002705,None,,,,,,,,,,,,,,,,,,,,,,,,,,,,,,,,,,,,,,,,010386,001,2024-11-28_11h30.59.339,Test,2024.2.1,60.049745208031936,2024-11-28 11h31.10.906883 +0100,
15,150,60,24,None,28,28,0,False,left,0.8011719399983122,None,,,,,,,,0,28,28,28,,,,,,,,,268.13764326399905,,,,,,,,,,,,,,,,,,,,,,,,,,,,,,,,,,,,,,,268.1267539779983,268.13764326399905,269.1380077239992,270.1218681229984,270.1218681229984,270.1218681229984,270.9271939270002,left,0.8011719399983122,None,,,,,,,,,,,,,,,,,,,,,,,,,,,,,,,,,,,,,,,,010386,001,2024-11-28_11h30.59.339,Test,2024.2.1,60.049745208031936,2024-11-28 11h31.10.906883 +0100,
60,150,120,47,None,29,29,0,True,left,0.7749964760005241,None,,,,,,,,0,29,29,29,,,,,,,,,270.9424249119984,,,,,,,,,,,,,,,,,,,,,,,,,,,,,,,,,,,,,,,270.93346461200053,270.9424249119984,271.95436655699814,272.93768093499966,272.93768093499966,272.93768093499966,273.7227333949995,left,0.7749964760005241,None,,,,,,,,,,,,,,,,,,,,,,,,,,,,,,,,,,,,,,,,010386,001,2024-11-28_11h30.59.339,Test,2024.2.1,60.049745208031936,2024-11-28 11h31.10.906883 +0100,
21,150,120,1,None,30,30,0,False,left,1.4338495560004958,None,,,,,,,,0,30,30,30,,,,,,,,,273.73748271099976,,,,,,,,,,,,,,,,,,,,,,,,,,,,,,,,,,,,,,,273.7261848320013,273.73748271099976,274.73778689200117,275.73777845099903,275.73777845099903,275.73777845099903,277.1746657830008,left,1.4338495560004958,None,,,,,,,,,,,,,,,,,,,,,,,,,,,,,,,,,,,,,,,,010386,001,2024-11-28_11h30.59.339,Test,2024.2.1,60.049745208031936,2024-11-28 11h31.10.906883 +0100,
20,150,90,40,None,31,31,0,False,right,0.8531429070026206,None,,,,,,,,0,31,31,31,,,,,,,,,277.1883131729992,,,,,,,,,,,,,,,,,,,,,,,,,,,,,,,,,,,,,,,277.17879262099814,277.1883131729992,278.18851071099925,279.1883264659991,279.1883264659991,279.1883264659991,280.0561749490007,right,0.8531429070026206,None,,,,,,,,,,,,,,,,,,,,,,,,,,,,,,,,,,,,,,,,010386,001,2024-11-28_11h30.59.339,Test,2024.2.1,60.049745208031936,2024-11-28 11h31.10.906883 +0100,
29,150,150,14,None,32,32,0,False,left,0.825130019999051,None,,,,,,,,0,32,32,32,,,,,,,,,280.0716618580009,,,,,,,,,,,,,,,,,,,,,,,,,,,,,,,,,,,,,,,280.0597389860013,280.0716618580009,281.07249707200026,282.0549829599986,282.0549829599986,282.0549829599986,282.89074068699847,left,0.825130019999051,None,,,,,,,,,,,,,,,,,,,,,,,,,,,,,,,,,,,,,,,,010386,001,2024-11-28_11h30.59.339,Test,2024.2.1,60.049745208031936,2024-11-28 11h31.10.906883 +0100,
8,150,30,36,None,33,33,0,False,left,1.040439710002829,None,,,,,,,,0,33,33,33,,,,,,,,,282.90459286199984,,,,,,,,,,,,,,,,,,,,,,,,,,,,,,,,,,,,,,,282.8948023910016,282.90459286199984,283.90572184100165,284.90604539500055,284.90604539500055,284.90604539500055,285.95738680499926,left,1.040439710002829,None,,,,,,,,,,,,,,,,,,,,,,,,,,,,,,,,,,,,,,,,010386,001,2024-11-28_11h30.59.339,Test,2024.2.1,60.049745208031936,2024-11-28 11h31.10.906883 +0100,
10,150,30,13,None,34,34,0,False,left,1.1409770110003592,None,,,,,,,,0,34,34,34,,,,,,,,,285.9720046250004,,,,,,,,,,,,,,,,,,,,,,,,,,,,,,,,,,,,,,,285.9608360579987,285.9720046250004,286.9718730989989,287.9566250780008,287.9566250780008,287.9566250780008,289.1072855700004,left,1.1409770110003592,None,,,,,,,,,,,,,,,,,,,,,,,,,,,,,,,,,,,,,,,,010386,001,2024-11-28_11h30.59.339,Test,2024.2.1,60.049745208031936,2024-11-28 11h31.10.906883 +0100,
58,150,120,10,None,35,35,0,True,left,2.0413884930021595,None,,,,,,,,0,35,35,35,,,,,,,,,289.12375041799896,,,,,,,,,,,,,,,,,,,,,,,,,,,,,,,,,,,,,,,289.1107409409997,289.12375041799896,290.13902965500165,291.1227650340006,291.1227650340006,291.1227650340006,293.1750336320001,left,2.0413884930021595,None,,,,,,,,,,,,,,,,,,,,,,,,,,,,,,,,,,,,,,,,010386,001,2024-11-28_11h30.59.339,Test,2024.2.1,60.049745208031936,2024-11-28 11h31.10.906883 +0100,
54,150,90,4,None,36,36,0,True,right,0.8574582330002158,None,,,,,,,,0,36,36,36,,,,,,,,,293.1893277509989,,,,,,,,,,,,,,,,,,,,,,,,,,,,,,,,,,,,,,,293.17845449000015,293.1893277509989,294.18896203799886,295.19035930799873,295.19035930799873,295.19035930799873,296.0576572280006,right,0.8574582330002158,None,,,,,,,,,,,,,,,,,,,,,,,,,,,,,,,,,,,,,,,,010386,001,2024-11-28_11h30.59.339,Test,2024.2.1,60.049745208031936,2024-11-28 11h31.10.906883 +0100,
52,150,90,32,None,37,37,0,True,left,0.8420145519994549,None,,,,,,,,0,37,37,37,,,,,,,,,296.07251752199954,,,,,,,,,,,,,,,,,,,,,,,,,,,,,,,,,,,,,,,296.06113231999916,296.07251752199954,297.0726611399987,298.05617758600056,298.05617758600056,298.05617758600056,298.9080938389998,left,0.8420145519994549,None,,,,,,,,,,,,,,,,,,,,,,,,,,,,,,,,,,,,,,,,010386,001,2024-11-28_11h30.59.339,Test,2024.2.1,60.049745208031936,2024-11-28 11h31.10.906883 +0100,
13,150,60,51,None,38,38,0,False,right,1.487786440000491,None,,,,,,,,0,38,38,38,,,,,,,,,298.92250942100145,,,,,,,,,,,,,,,,,,,,,,,,,,,,,,,,,,,,,,,298.9115919750002,298.92250942100145,299.9239321009991,300.90734109099867,300.90734109099867,300.90734109099867,302.40818467699864,right,1.487786440000491,None,,,,,,,,,,,,,,,,,,,,,,,,,,,,,,,,,,,,,,,,010386,001,2024-11-28_11h30.59.339,Test,2024.2.1,60.049745208031936,2024-11-28 11h31.10.906883 +0100,
30,150,150,18,None,39,39,0,False,right,0.9356986730017525,None,,,,,,,,0,39,39,39,,,,,,,,,302.4232040880015,,,,,,,,,,,,,,,,,,,,,,,,,,,,,,,,,,,,,,,302.41172653000103,302.4232040880015,303.4236729479999,304.42421312900115,304.42421312900115,304.42421312900115,305.3747109770011,right,0.9356986730017525,None,,,,,,,,,,,,,,,,,,,,,,,,,,,,,,,,,,,,,,,,010386,001,2024-11-28_11h30.59.339,Test,2024.2.1,60.049745208031936,2024-11-28 11h31.10.906883 +0100,
35,150,180,30,None,40,40,0,False,left,1.0329425589989114,None,,,,,,,,0,40,40,40,,,,,,,,,305.38982374899933,,,,,,,,,,,,,,,,,,,,,,,,,,,,,,,,,,,,,,,305.3782055849988,305.38982374899933,306.391011841999,307.39030840800115,307.39030840800115,307.39030840800115,308.4283186499997,left,1.0329425589989114,None,,,,,,,,,,,,,,,,,,,,,,,,,,,,,,,,,,,,,,,,010386,001,2024-11-28_11h30.59.339,Test,2024.2.1,60.049745208031936,2024-11-28 11h31.10.906883 +0100,
33,150,180,53,None,41,41,0,False,right,0.7982862220014795,None,,,,,,,,0,41,41,41,,,,,,,,,308.44108713699825,,,,,,,,,,,,,,,,,,,,,,,,,,,,,,,,,,,,,,,308.4322232449995,308.44108713699825,309.4415648200011,310.44145285099876,310.44145285099876,310.44145285099876,311.2447636479992,right,0.7982862220014795,None,,,,,,,,,,,,,,,,,,,,,,,,,,,,,,,,,,,,,,,,010386,001,2024-11-28_11h30.59.339,Test,2024.2.1,60.049745208031936,2024-11-28 11h31.10.906883 +0100,
17,150,90,9,None,42,42,0,False,right,0.8170929299994896,None,,,,,,,,0,42,42,42,,,,,,,,,311.2573557659998,,,,,,,,,,,,,,,,,,,,,,,,,,,,,,,,,,,,,,,311.24839004599926,311.2573557659998,312.25799447900135,313.25821046200144,313.25821046200144,313.25821046200144,314.0929325340003,right,0.8170929299994896,None,,,,,,,,,,,,,,,,,,,,,,,,,,,,,,,,,,,,,,,,010386,001,2024-11-28_11h30.59.339,Test,2024.2.1,60.049745208031936,2024-11-28 11h31.10.906883 +0100,
36,150,0,66,None,43,43,0,True,right,0.9012679599982221,None,,,,,,,,0,43,43,43,,,,,,,,,314.10688282000046,,,,,,,,,,,,,,,,,,,,,,,,,,,,,,,,,,,,,,,314.09702567299973,314.10688282000046,315.1074109959991,316.10834063600123,316.10834063600123,316.10834063600123,317.0258513689987,right,0.9012679599982221,None,,,,,,,,,,,,,,,,,,,,,,,,,,,,,,,,,,,,,,,,010386,001,2024-11-28_11h30.59.339,Test,2024.2.1,60.049745208031936,2024-11-28 11h31.10.906883 +0100,
69,150,180,26,None,44,44,0,True,left,0.9005495469973539,None,,,,,,,,0,44,44,44,,,,,,,,,317.0403558979997,,,,,,,,,,,,,,,,,,,,,,,,,,,,,,,,,,,,,,,317.0292860189984,317.0403558979997,318.0411645519998,319.0251896970003,319.0251896970003,319.0251896970003,319.9432769539999,left,0.9005495469973539,None,,,,,,,,,,,,,,,,,,,,,,,,,,,,,,,,,,,,,,,,010386,001,2024-11-28_11h30.59.339,Test,2024.2.1,60.049745208031936,2024-11-28 11h31.10.906883 +0100,
51,150,90,50,None,45,45,0,True,left,1.1137440249985957,None,,,,,,,,0,45,45,45,,,,,,,,,319.95789434900144,,,,,,,,,,,,,,,,,,,,,,,,,,,,,,,,,,,,,,,319.946931415001,319.95789434900144,320.95855833300084,321.9582822349985,321.9582822349985,321.9582822349985,323.07673261200034,left,1.1137440249985957,None,,,,,,,,,,,,,,,,,,,,,,,,,,,,,,,,,,,,,,,,010386,001,2024-11-28_11h30.59.339,Test,2024.2.1,60.049745208031936,2024-11-28 11h31.10.906883 +0100,
49,150,60,20,None,46,46,0,True,left,1.654470430999936,None,,,,,,,,0,46,46,46,,,,,,,,,323.0913191690015,,,,,,,,,,,,,,,,,,,,,,,,,,,,,,,,,,,,,,,323.0801246230003,323.0913191690015,324.0923406590009,325.0928038050006,325.0928038050006,325.0928038050006,326.76020004699967,left,1.654470430999936,None,,,,,,,,,,,,,,,,,,,,,,,,,,,,,,,,,,,,,,,,010386,001,2024-11-28_11h30.59.339,Test,2024.2.1,60.049745208031936,2024-11-28 11h31.10.906883 +0100,
70,150,180,68,None,47,47,0,True,right,0.7548176450000028,None,,,,,,,,0,47,47,47,,,,,,,,,326.77520770299816,,,,,,,,,,,,,,,,,,,,,,,,,,,,,,,,,,,,,,,326.76361920400086,326.77520770299816,327.7755692360006,328.7764144950015,328.7764144950015,328.7764144950015,329.5435886129999,right,0.7548176450000028,None,,,,,,,,,,,,,,,,,,,,,,,,,,,,,,,,,,,,,,,,010386,001,2024-11-28_11h30.59.339,Test,2024.2.1,60.049745208031936,2024-11-28 11h31.10.906883 +0100,
56,150,120,27,None,48,48,0,True,left,0.9398412320006173,None,,,,,,,,0,48,48,48,,,,,,,,,329.5586563079996,,,,,,,,,,,,,,,,,,,,,,,,,,,,,,,,,,,,,,,329.5470616659986,329.5586563079996,330.5593167469997,331.55893299799936,331.55893299799936,331.55893299799936,332.51054613299857,left,0.9398412320006173,None,,,,,,,,,,,,,,,,,,,,,,,,,,,,,,,,,,,,,,,,010386,001,2024-11-28_11h30.59.339,Test,2024.2.1,60.049745208031936,2024-11-28 11h31.10.906883 +0100,
4,150,0,28,None,49,49,0,False,right,1.2342706310009817,None,,,,,,,,0,49,49,49,,,,,,,,,332.5249556810013,,,,,,,,,,,,,,,,,,,,,,,,,,,,,,,,,,,,,,,332.514755051001,332.5249556810013,333.5253666639983,334.52531283400094,334.52531283400094,334.52531283400094,335.76150322399917,right,1.2342706310009817,None,,,,,,,,,,,,,,,,,,,,,,,,,,,,,,,,,,,,,,,,010386,001,2024-11-28_11h30.59.339,Test,2024.2.1,60.049745208031936,2024-11-28 11h31.10.906883 +0100,
61,150,150,7,None,50,50,0,True,right,2.184458873998665,None,,,,,,,,0,50,50,50,,,,,,,,,335.77545659599855,,,,,,,,,,,,,,,,,,,,,,,,,,,,,,,,,,,,,,,335.76512614400053,335.77545659599855,336.77530866099914,337.77568427200094,337.77568427200094,337.77568427200094,339.9644875470003,right,2.184458873998665,None,,,,,,,,,,,,,,,,,,,,,,,,,,,,,,,,,,,,,,,,010386,001,2024-11-28_11h30.59.339,Test,2024.2.1,60.049745208031936,2024-11-28 11h31.10.906883 +0100,
32,150,180,34,None,51,51,0,False,left,1.9738401009999507,None,,,,,,,,0,51,51,51,,,,,,,,,339.9801408179992,,,,,,,,,,,,,,,,,,,,,,,,,,,,,,,,,,,,,,,339.97015116400144,339.9801408179992,340.99281181699916,341.9770638029986,341.9770638029986,341.9770638029986,343.96147477499835,left,1.9738401009999507,None,,,,,,,,,,,,,,,,,,,,,,,,,,,,,,,,,,,,,,,,010386,001,2024-11-28_11h30.59.339,Test,2024.2.1,60.049745208031936,2024-11-28 11h31.10.906883 +0100,
1,150,0,65,None,52,52,0,False,left,0.8751658140026848,None,,,,,,,,0,52,52,52,,,,,,,,,343.97590845000013,,,,,,,,,,,,,,,,,,,,,,,,,,,,,,,,,,,,,,,343.96624728499955,343.97590845000013,344.97725282399915,345.9605268960004,345.9605268960004,345.9605268960004,346.8444029630009,left,0.8751658140026848,None,,,,,,,,,,,,,,,,,,,,,,,,,,,,,,,,,,,,,,,,010386,001,2024-11-28_11h30.59.339,Test,2024.2.1,60.049745208031936,2024-11-28 11h31.10.906883 +0100,
23,150,120,3,None,53,53,0,False,right,0.8557051139978284,None,,,,,,,,0,53,53,53,,,,,,,,,346.8591604350004,,,,,,,,,,,,,,,,,,,,,,,,,,,,,,,,,,,,,,,346.8479343309991,346.8591604350004,347.85959533300047,348.8600283480009,348.8600283480009,348.8600283480009,349.7277826739992,right,0.8557051139978284,None,,,,,,,,,,,,,,,,,,,,,,,,,,,,,,,,,,,,,,,,010386,001,2024-11-28_11h30.59.339,Test,2024.2.1,60.049745208031936,2024-11-28 11h31.10.906883 +0100,
47,150,60,37,None,54,54,0,True,left,0.9573860640011844,None,,,,,,,,0,54,54,54,,,,,,,,,349.7426153209999,,,,,,,,,,,,,,,,,,,,,,,,,,,,,,,,,,,,,,,349.7313162870014,349.7426153209999,350.74369331100024,351.7278284919994,351.7278284919994,351.7278284919994,352.69422254800156,left,0.9573860640011844,None,,,,,,,,,,,,,,,,,,,,,,,,,,,,,,,,,,,,,,,,010386,001,2024-11-28_11h30.59.339,Test,2024.2.1,60.049745208031936,2024-11-28 11h31.10.906883 +0100,
43,150,30,17,None,55,55,0,True,right,2.3891721470026823,None,,,,,,,,0,55,55,55,,,,,,,,,352.7099156309996,,,,,,,,,,,,,,,,,,,,,,,,,,,,,,,,,,,,,,,352.6977325100015,352.7099156309996,353.7111511619987,354.69479869000133,354.69479869000133,354.69479869000133,357.09461417299826,right,2.3891721470026823,None,,,,,,,,,,,,,,,,,,,,,,,,,,,,,,,,,,,,,,,,010386,001,2024-11-28_11h30.59.339,Test,2024.2.1,60.049745208031936,2024-11-28 11h31.10.906883 +0100,
26,150,150,63,None,56,56,0,False,left,0.7585427850026463,None,,,,,,,,0,56,56,56,,,,,,,,,357.1098655349997,,,,,,,,,,,,,,,,,,,,,,,,,,,,,,,,,,,,,,,357.0981312529984,357.1098655349997,358.1102934219998,359.09447733900015,359.09447733900015,359.09447733900015,359.8613948819984,left,0.7585427850026463,None,,,,,,,,,,,,,,,,,,,,,,,,,,,,,,,,,,,,,,,,010386,001,2024-11-28_11h30.59.339,Test,2024.2.1,60.049745208031936,2024-11-28 11h31.10.906883 +0100,
14,150,60,38,None,57,57,0,False,left,1.373213905000739,None,,,,,,,,0,57,57,57,,,,,,,,,359.8771658980004,,,,,,,,,,,,,,,,,,,,,,,,,,,,,,,,,,,,,,,359.864876904001,359.8771658980004,360.87806374499996,361.86094554300143,361.86094554300143,361.86094554300143,363.2453835999986,left,1.373213905000739,None,,,,,,,,,,,,,,,,,,,,,,,,,,,,,,,,,,,,,,,,010386,001,2024-11-28_11h30.59.339,Test,2024.2.1,60.049745208031936,2024-11-28 11h31.10.906883 +0100,
65,150,150,62,None,58,58,0,True,left,1.1837061530022766,None,,,,,,,,0,58,58,58,,,,,,,,,363.2611683750001,,,,,,,,,,,,,,,,,,,,,,,,,,,,,,,,,,,,,,,363.2489122779989,363.2611683750001,364.2607525349995,365.2453224630008,365.2453224630008,365.2453224630008,366.44691661400066,left,1.1837061530022766,None,,,,,,,,,,,,,,,,,,,,,,,,,,,,,,,,,,,,,,,,010386,001,2024-11-28_11h30.59.339,Test,2024.2.1,60.049745208031936,2024-11-28 11h31.10.906883 +0100,
59,150,120,6,None,59,59,0,True,right,0.852234767000482,None,,,,,,,,0,59,59,59,,,,,,,,,366.460411398999,,,,,,,,,,,,,,,,,,,,,,,,,,,,,,,,,,,,,,,366.4506450910012,366.460411398999,367.4618249009982,368.46237974500036,368.46237974500036,368.46237974500036,369.32996376899973,right,0.852234767000482,None,,,,,,,,,,,,,,,,,,,,,,,,,,,,,,,,,,,,,,,,010386,001,2024-11-28_11h30.59.339,Test,2024.2.1,60.049745208031936,2024-11-28 11h31.10.906883 +0100,
11,150,60,57,None,60,60,0,False,left,0.9749369119999756,None,,,,,,,,0,60,60,60,,,,,,,,,369.34446451500116,,,,,,,,,,,,,,,,,,,,,,,,,,,,,,,,,,,,,,,369.3335657309981,369.34446451500116,370.3454156539992,371.3292050939999,371.3292050939999,371.3292050939999,372.3128926319987,left,0.9749369119999756,None,,,,,,,,,,,,,,,,,,,,,,,,,,,,,,,,,,,,,,,,010386,001,2024-11-28_11h30.59.339,Test,2024.2.1,60.049745208031936,2024-11-28 11h31.10.906883 +0100,
31,150,180,56,None,61,61,0,False,left,0.77609250200112,None,,,,,,,,0,61,61,61,,,,,,,,,372.32818978700016,,,,,,,,,,,,,,,,,,,,,,,,,,,,,,,,,,,,,,,372.3165147030013,372.32818978700016,373.3289610860011,374.32887214199945,374.32887214199945,374.32887214199945,375.11289314999885,left,0.77609250200112,None,,,,,,,,,,,,,,,,,,,,,,,,,,,,,,,,,,,,,,,,010386,001,2024-11-28_11h30.59.339,Test,2024.2.1,60.049745208031936,2024-11-28 11h31.10.906883 +0100,
48,150,60,5,None,62,62,0,True,left,0.7184627130009176,None,,,,,,,,0,62,62,62,,,,,,,,,375.12770736899984,,,,,,,,,,,,,,,,,,,,,,,,,,,,,,,,,,,,,,,375.11628091999955,375.12770736899984,376.12919142399915,377.1282761170005,377.1282761170005,377.1282761170005,377.85051734100125,left,0.7184627130009176,None,,,,,,,,,,,,,,,,,,,,,,,,,,,,,,,,,,,,,,,,010386,001,2024-11-28_11h30.59.339,Test,2024.2.1,60.049745208031936,2024-11-28 11h31.10.906883 +0100,
53,150,90,58,None,63,63,0,True,left,1.1637227549981617,None,,,,,,,,0,63,63,63,,,,,,,,,377.8642014450015,,,,,,,,,,,,,,,,,,,,,,,,,,,,,,,,,,,,,,,377.85509194800034,377.8642014450015,378.8788790289982,379.86220478299947,379.86220478299947,379.86220478299947,381.0304480449995,left,1.1637227549981617,None,,,,,,,,,,,,,,,,,,,,,,,,,,,,,,,,,,,,,,,,010386,001,2024-11-28_11h30.59.339,Test,2024.2.1,60.049745208031936,2024-11-28 11h31.10.906883 +0100,
42,150,30,8,None,64,64,0,True,left,1.4924555300021893,None,,,,,,,,0,64,64,64,,,,,,,,,381.0453479309981,,,,,,,,,,,,,,,,,,,,,,,,,,,,,,,,,,,,,,,381.0339373739989,381.0453479309981,382.04568223300157,383.0300599280017,383.0300599280017,383.0300599280017,384.5304208740017,left,1.4924555300021893,None,,,,,,,,,,,,,,,,,,,,,,,,,,,,,,,,,,,,,,,,010386,001,2024-11-28_11h30.59.339,Test,2024.2.1,60.049745208031936,2024-11-28 11h31.10.906883 +0100,
46,150,60,12,None,65,65,0,True,left,0.7912607819998811,None,,,,,,,,0,65,65,65,,,,,,,,,384.5456393230015,,,,,,,,,,,,,,,,,,,,,,,,,,,,,,,,,,,,,,,384.5338696430008,384.5456393230015,385.5467068750004,386.5303866389986,386.5303866389986,386.5303866389986,387.3313108080001,left,0.7912607819998811,None,,,,,,,,,,,,,,,,,,,,,,,,,,,,,,,,,,,,,,,,010386,001,2024-11-28_11h30.59.339,Test,2024.2.1,60.049745208031936,2024-11-28 11h31.10.906883 +0100,
6,150,30,33,None,66,66,0,False,left,0.9846828270019614,None,,,,,,,,0,66,66,66,,,,,,,,,387.3452183139998,,,,,,,,,,,,,,,,,,,,,,,,,,,,,,,,,,,,,,,387.3350694699984,387.3452183139998,388.34597691100134,389.34706627700143,389.34706627700143,389.34706627700143,390.3470757590003,left,0.9846828270019614,None,,,,,,,,,,,,,,,,,,,,,,,,,,,,,,,,,,,,,,,,010386,001,2024-11-28_11h30.59.339,Test,2024.2.1,60.049745208031936,2024-11-28 11h31.10.906883 +0100,
50,150,60,39,None,67,67,0,True,left,1.101889707002556,None,,,,,,,,0,67,67,67,,,,,,,,,390.3625091069989,,,,,,,,,,,,,,,,,,,,,,,,,,,,,,,,,,,,,,,390.3508087299997,390.3625091069989,391.3635690400006,392.3468921649983,392.3468921649983,392.3468921649983,393.46397406300093,left,1.101889707002556,None,,,,,,,,,,,,,,,,,,,,,,,,,,,,,,,,,,,,,,,,010386,001,2024-11-28_11h30.59.339,Test,2024.2.1,60.049745208031936,2024-11-28 11h31.10.906883 +0100,
9,150,30,59,None,68,68,0,False,right,0.9016611139995803,None,,,,,,,,0,68,68,68,,,,,,,,,393.47954406899953,,,,,,,,,,,,,,,,,,,,,,,,,,,,,,,,,,,,,,,393.46756737100077,393.47954406899953,394.48051595200013,395.46422153599997,395.46422153599997,395.46422153599997,396.3817451819996,right,0.9016611139995803,None,,,,,,,,,,,,,,,,,,,,,,,,,,,,,,,,,,,,,,,,010386,001,2024-11-28_11h30.59.339,Test,2024.2.1,60.049745208031936,2024-11-28 11h31.10.906883 +0100,
41,150,30,21,None,69,69,0,True,left,0.8050694189987553,None,,,,,,,,0,69,69,69,,,,,,,,,396.3958925810002,,,,,,,,,,,,,,,,,,,,,,,,,,,,,,,,,,,,,,,396.38516711099874,396.3958925810002,397.39767405100065,398.3972785190017,398.3972785190017,398.3972785190017,399.21430107299966,left,0.8050694189987553,None,,,,,,,,,,,,,,,,,,,,,,,,,,,,,,,,,,,,,,,,010386,001,2024-11-28_11h30.59.339,Test,2024.2.1,60.049745208031936,2024-11-28 11h31.10.906883 +0100,
,,,,,,,,,,,,,,,,,,,,,,,,,,,,,,,,,,,,,,,,,,,,,,,,,,,,,,,,,,,,,,,,,,,,,,,,,,,,,,,,399.2144787629986,399.22975468599907,399.22975468599907,404.08487724899896,space,4.849881168000138,None,,,,,,,,,,,,,,,,,,,,,,,,,,,,,,,,,010386,001,2024-11-28_11h30.59.339,Test,2024.2.1,60.049745208031936,2024-11-28 11h31.10.906883 +0100,
1,150,0,65,None,0,0,0,,,,,,,,,,,,,,,,0,0,0,0,,,,,404.1045683070006,,,,,,,,,,,,,,,,,,,,,,,,,,,,,,,,,,,,,,,,,,,,,,,,,,,,,,,,404.09576235699933,404.1045683070006,404.2975212070014,404.2975212070014,404.3136459740017,405.9980119409993,405.9980119409993,405.98237271999824,,,,,,,,,,,,,,,,,,,,,,,,,010386,001,2024-11-28_11h30.59.339,Test,2024.2.1,60.049745208031936,2024-11-28 11h31.10.906883 +0100,
7,150,30,61,None,1,1,0,,,,,,,,,,,,,,,,0,1,1,6,,,,,405.9980119409993,,,,,,,,,,,,,,,,,,,,,,,,,,,,,,,,,,,,,,,,,,,,,,,,,,,,,,,,405.98902791100045,405.9980119409993,406.19744241100125,406.19744241100125,406.19744241100125,407.89711748099944,407.89711748099944,407.88122610700157,,,,,,,,,,,,,,,,,,,,,,,,,010386,001,2024-11-28_11h30.59.339,Test,2024.2.1,60.049745208031936,2024-11-28 11h31.10.906883 +0100,
17,150,90,9,None,2,2,0,,,,,,,,,,,,,,,,0,2,2,16,,,,,407.89711748099944,,,,,,,,,,,,,,,,,,,,,,,,,,,,,,,,,,,,,,,,,,,,,,,,,,,,,,,,407.8850571840012,407.89711748099944,408.09831944599864,408.09831944599864,408.09831944599864,409.79725517599945,409.79725517599945,409.78144453999994,,,,,,,,,,,,,,,,,,,,,,,,,010386,001,2024-11-28_11h30.59.339,Test,2024.2.1,60.049745208031936,2024-11-28 11h31.10.906883 +0100,
19,150,90,15,None,3,3,0,,,,,,,,,,,,,,,,0,3,3,18,,,,,409.79725517599945,,,,,,,,,,,,,,,,,,,,,,,,,,,,,,,,,,,,,,,,,,,,,,,,,,,,,,,,409.78536906799854,409.79725517599945,409.9983106100008,409.9983106100008,409.9983106100008,411.69848544499837,411.69848544499837,411.6828717159988,,,,,,,,,,,,,,,,,,,,,,,,,010386,001,2024-11-28_11h30.59.339,Test,2024.2.1,60.049745208031936,2024-11-28 11h31.10.906883 +0100,
31,150,180,56,None,4,4,0,,,,,,,,,,,,,,,,0,4,4,30,,,,,411.69848544499837,,,,,,,,,,,,,,,,,,,,,,,,,,,,,,,,,,,,,,,,,,,,,,,,,,,,,,,,411.6891162159991,411.69848544499837,411.8974439679987,411.8974439679987,411.8974439679987,413.59858085700034,413.59858085700034,413.5827564969986,,,,,,,,,,,,,,,,,,,,,,,,,010386,001,2024-11-28_11h30.59.339,Test,2024.2.1,60.049745208031936,2024-11-28 11h31.10.906883 +0100,
32,150,180,34,None,5,5,0,,,,,,,,,,,,,,,,0,5,5,31,,,,,413.59858085700034,,,,,,,,,,,,,,,,,,,,,,,,,,,,,,,,,,,,,,,,,,,,,,,,,,,,,,,,413.5891778660007,413.59858085700034,413.79778628799977,413.79778628799977,413.79778628799977,415.4976651879988,415.4976651879988,415.4817173830015,,,,,,,,,,,,,,,,,,,,,,,,,010386,001,2024-11-28_11h30.59.339,Test,2024.2.1,60.049745208031936,2024-11-28 11h31.10.906883 +0100,
15,150,60,24,None,6,6,0,,,,,,,,,,,,,,,,0,6,6,14,,,,,415.4976651879988,,,,,,,,,,,,,,,,,,,,,,,,,,,,,,,,,,,,,,,,,,,,,,,,,,,,,,,,415.48600832300144,415.4976651879988,415.6983246630007,415.6983246630007,415.6983246630007,417.398998951001,417.398998951001,417.3831977109985,,,,,,,,,,,,,,,,,,,,,,,,,010386,001,2024-11-28_11h30.59.339,Test,2024.2.1,60.049745208031936,2024-11-28 11h31.10.906883 +0100,
30,150,150,18,None,7,7,0,,,,,,,,,,,,,,,,0,7,7,29,,,,,417.398998951001,,,,,,,,,,,,,,,,,,,,,,,,,,,,,,,,,,,,,,,,,,,,,,,,,,,,,,,,417.38973035399977,417.398998951001,417.59784281500106,417.59784281500106,417.6144974179988,419.2990417510009,419.2990417510009,419.28310540700113,,,,,,,,,,,,,,,,,,,,,,,,,010386,001,2024-11-28_11h30.59.339,Test,2024.2.1,60.049745208031936,2024-11-28 11h31.10.906883 +0100,
28,150,150,52,None,8,8,0,,,,,,,,,,,,,,,,0,8,8,27,,,,,419.2990417510009,,,,,,,,,,,,,,,,,,,,,,,,,,,,,,,,,,,,,,,,,,,,,,,,,,,,,,,,419.28981313999975,419.2990417510009,419.4992356069997,419.4992356069997,419.4992356069997,421.19798690699827,421.19798690699827,421.18247232299836,,,,,,,,,,,,,,,,,,,,,,,,,010386,001,2024-11-28_11h30.59.339,Test,2024.2.1,60.049745208031936,2024-11-28 11h31.10.906883 +0100,
22,150,120,41,None,9,9,0,,,,,,,,,,,,,,,,0,9,9,21,,,,,421.19798690699827,,,,,,,,,,,,,,,,,,,,,,,,,,,,,,,,,,,,,,,,,,,,,,,,,,,,,,,,421.18615468200005,421.19798690699827,421.3989375150013,421.3989375150013,421.3989375150013,423.0986509510003,423.0986509510003,423.0822936439981,,,,,,,,,,,,,,,,,,,,,,,,,010386,001,2024-11-28_11h30.59.339,Test,2024.2.1,60.049745208031936,2024-11-28 11h31.10.906883 +0100,
26,150,150,63,None,10,10,0,,,,,,,,,,,,,,,,0,10,10,25,,,,,423.0986509510003,,,,,,,,,,,,,,,,,,,,,,,,,,,,,,,,,,,,,,,,,,,,,,,,,,,,,,,,423.0856873640005,423.0986509510003,423.29822956299904,423.29822956299904,423.29822956299904,424.99939971599815,424.99939971599815,424.9835832380013,,,,,,,,,,,,,,,,,,,,,,,,,010386,001,2024-11-28_11h30.59.339,Test,2024.2.1,60.049745208031936,2024-11-28 11h31.10.906883 +0100,
3,150,0,44,None,11,11,0,,,,,,,,,,,,,,,,0,11,11,2,,,,,424.99939971599815,,,,,,,,,,,,,,,,,,,,,,,,,,,,,,,,,,,,,,,,,,,,,,,,,,,,,,,,424.9902559580005,424.99939971599815,425.19826806900164,425.19826806900164,425.2151590169997,426.8996289159986,426.8996289159986,426.88382892400114,,,,,,,,,,,,,,,,,,,,,,,,,010386,001,2024-11-28_11h30.59.339,Test,2024.2.1,60.049745208031936,2024-11-28 11h31.10.906883 +0100,
25,150,120,16,None,12,12,0,,,,,,,,,,,,,,,,0,12,12,24,,,,,426.8996289159986,,,,,,,,,,,,,,,,,,,,,,,,,,,,,,,,,,,,,,,,,,,,,,,,,,,,,,,,426.8904081920009,426.8996289159986,427.09950648800077,427.09950648800077,427.09950648800077,428.7988723540002,428.7988723540002,428.7837517000007,,,,,,,,,,,,,,,,,,,,,,,,,010386,001,2024-11-28_11h30.59.339,Test,2024.2.1,60.049745208031936,2024-11-28 11h31.10.906883 +0100,
11,150,60,57,None,13,13,0,,,,,,,,,,,,,,,,0,13,13,10,,,,,428.7988723540002,,,,,,,,,,,,,,,,,,,,,,,,,,,,,,,,,,,,,,,,,,,,,,,,,,,,,,,,428.7904143429987,428.7988723540002,428.9993192000002,428.9993192000002,428.9993192000002,430.6998279340005,430.6998279340005,430.6838777869998,,,,,,,,,,,,,,,,,,,,,,,,,010386,001,2024-11-28_11h30.59.339,Test,2024.2.1,60.049745208031936,2024-11-28 11h31.10.906883 +0100,
18,150,90,31,None,14,14,0,,,,,,,,,,,,,,,,0,14,14,17,,,,,430.6998279340005,,,,,,,,,,,,,,,,,,,,,,,,,,,,,,,,,,,,,,,,,,,,,,,,,,,,,,,,430.6904495589988,430.6998279340005,430.8987084379987,430.8987084379987,430.91622068200013,432.5987209140003,432.5987209140003,432.582749737001,,,,,,,,,,,,,,,,,,,,,,,,,010386,001,2024-11-28_11h30.59.339,Test,2024.2.1,60.049745208031936,2024-11-28 11h31.10.906883 +0100,
4,150,0,28,None,15,15,0,,,,,,,,,,,,,,,,0,15,15,3,,,,,432.5987209140003,,,,,,,,,,,,,,,,,,,,,,,,,,,,,,,,,,,,,,,,,,,,,,,,,,,,,,,,432.5865762760004,432.5987209140003,432.7993689139985,432.7993689139985,432.7993689139985,434.4989577609995,434.4989577609995,434.48314701599884,,,,,,,,,,,,,,,,,,,,,,,,,010386,001,2024-11-28_11h30.59.339,Test,2024.2.1,60.049745208031936,2024-11-28 11h31.10.906883 +0100,
23,150,120,3,None,16,16,0,,,,,,,,,,,,,,,,0,16,16,22,,,,,434.4989577609995,,,,,,,,,,,,,,,,,,,,,,,,,,,,,,,,,,,,,,,,,,,,,,,,,,,,,,,,434.4876189610004,434.4989577609995,434.6988729830009,434.6988729830009,434.6988729830009,436.39907186599885,436.39907186599885,436.38351267799953,,,,,,,,,,,,,,,,,,,,,,,,,010386,001,2024-11-28_11h30.59.339,Test,2024.2.1,60.049745208031936,2024-11-28 11h31.10.906883 +0100,
8,150,30,36,None,17,17,0,,,,,,,,,,,,,,,,0,17,17,7,,,,,436.39907186599885,,,,,,,,,,,,,,,,,,,,,,,,,,,,,,,,,,,,,,,,,,,,,,,,,,,,,,,,436.38699386900043,436.39907186599885,436.59914803799984,436.59914803799984,436.59914803799984,438.2988084509998,438.2988084509998,438.28321340299954,,,,,,,,,,,,,,,,,,,,,,,,,010386,001,2024-11-28_11h30.59.339,Test,2024.2.1,60.049745208031936,2024-11-28 11h31.10.906883 +0100,
6,150,30,33,None,18,18,0,,,,,,,,,,,,,,,,0,18,18,5,,,,,438.2988084509998,,,,,,,,,,,,,,,,,,,,,,,,,,,,,,,,,,,,,,,,,,,,,,,,,,,,,,,,438.28707036700143,438.2988084509998,438.4993032630009,438.4993032630009,438.4993032630009,440.1994129179984,440.1994129179984,440.18354667099993,,,,,,,,,,,,,,,,,,,,,,,,,010386,001,2024-11-28_11h30.59.339,Test,2024.2.1,60.049745208031936,2024-11-28 11h31.10.906883 +0100,
35,150,180,30,None,19,19,0,,,,,,,,,,,,,,,,0,19,19,34,,,,,440.1994129179984,,,,,,,,,,,,,,,,,,,,,,,,,,,,,,,,,,,,,,,,,,,,,,,,,,,,,,,,440.1883579509995,440.1994129179984,440.3995893409992,440.3995893409992,440.3995893409992,442.10015896099867,442.10015896099867,442.0850325319989,,,,,,,,,,,,,,,,,,,,,,,,,010386,001,2024-11-28_11h30.59.339,Test,2024.2.1,60.049745208031936,2024-11-28 11h31.10.906883 +0100,
33,150,180,53,None,20,20,0,,,,,,,,,,,,,,,,0,20,20,32,,,,,442.10015896099867,,,,,,,,,,,,,,,,,,,,,,,,,,,,,,,,,,,,,,,,,,,,,,,,,,,,,,,,442.09127383099985,442.10015896099867,442.2995610209982,442.2995610209982,442.2995610209982,443.9997979969994,443.9997979969994,443.984184773999,,,,,,,,,,,,,,,,,,,,,,,,,010386,001,2024-11-28_11h30.59.339,Test,2024.2.1,60.049745208031936,2024-11-28 11h31.10.906883 +0100,
13,150,60,51,None,21,21,0,,,,,,,,,,,,,,,,0,21,21,12,,,,,443.9997979969994,,,,,,,,,,,,,,,,,,,,,,,,,,,,,,,,,,,,,,,,,,,,,,,,,,,,,,,,443.98791218800034,443.9997979969994,444.2005272640017,444.2005272640017,444.2005272640017,445.90094887300074,445.90094887300074,445.88519409799846,,,,,,,,,,,,,,,,,,,,,,,,,010386,001,2024-11-28_11h30.59.339,Test,2024.2.1,60.049745208031936,2024-11-28 11h31.10.906883 +0100,
21,150,120,1,None,22,22,0,,,,,,,,,,,,,,,,0,22,22,20,,,,,445.90094887300074,,,,,,,,,,,,,,,,,,,,,,,,,,,,,,,,,,,,,,,,,,,,,,,,,,,,,,,,445.8917804470002,445.90094887300074,446.1005342569988,446.1005342569988,446.1167913089994,447.79992753999977,447.79992753999977,447.7840532299997,,,,,,,,,,,,,,,,,,,,,,,,,010386,001,2024-11-28_11h30.59.339,Test,2024.2.1,60.049745208031936,2024-11-28 11h31.10.906883 +0100,
2,150,0,70,None,23,23,0,,,,,,,,,,,,,,,,0,23,23,1,,,,,447.79992753999977,,,,,,,,,,,,,,,,,,,,,,,,,,,,,,,,,,,,,,,,,,,,,,,,,,,,,,,,447.7876970699981,447.79992753999977,448.0001285170001,448.0001285170001,448.0001285170001,449.7003209370014,449.7003209370014,449.68472554500113,,,,,,,,,,,,,,,,,,,,,,,,,010386,001,2024-11-28_11h30.59.339,Test,2024.2.1,60.049745208031936,2024-11-28 11h31.10.906883 +0100,
9,150,30,59,None,24,24,0,,,,,,,,,,,,,,,,0,24,24,8,,,,,449.7003209370014,,,,,,,,,,,,,,,,,,,,,,,,,,,,,,,,,,,,,,,,,,,,,,,,,,,,,,,,449.68917260599846,449.7003209370014,449.9007590399997,449.9007590399997,449.9007590399997,451.6001418699998,451.6001418699998,451.584958034,,,,,,,,,,,,,,,,,,,,,,,,,010386,001,2024-11-28_11h30.59.339,Test,2024.2.1,60.049745208031936,2024-11-28 11h31.10.906883 +0100,
14,150,60,38,None,25,25,0,,,,,,,,,,,,,,,,0,25,25,13,,,,,451.6001418699998,,,,,,,,,,,,,,,,,,,,,,,,,,,,,,,,,,,,,,,,,,,,,,,,,,,,,,,,451.5895039700008,451.6001418699998,451.8005747019997,451.8005747019997,451.8005747019997,,,453.4850798810003,,,,,,,,,,,,,,,,,,,,,,,,,010386,001,2024-11-28_11h30.59.339,Test,2024.2.1,60.049745208031936,2024-11-28 11h31.10.906883 +0100,
29,150,150,14,None,26,26,0,,,,,,,,,,,,,,,,0,26,26,28,,,,,453.4999122429981,,,,,,,,,,,,,,,,,,,,,,,,,,,,,,,,,,,,,,,,,,,,,,,,,,,,,,,,453.4906695159989,453.4999122429981,453.70023429999856,453.70023429999856,453.70023429999856,455.4005711610007,455.4005711610007,455.38470057499944,,,,,,,,,,,,,,,,,,,,,,,,,010386,001,2024-11-28_11h30.59.339,Test,2024.2.1,60.049745208031936,2024-11-28 11h31.10.906883 +0100,
34,150,180,46,None,27,27,0,,,,,,,,,,,,,,,,0,27,27,33,,,,,455.4005711610007,,,,,,,,,,,,,,,,,,,,,,,,,,,,,,,,,,,,,,,,,,,,,,,,,,,,,,,,455.38863970999955,455.4005711610007,455.58387632299855,455.58387632299855,455.60079460999987,457.2845961109997,457.2845961109997,457.2689823449982,,,,,,,,,,,,,,,,,,,,,,,,,010386,001,2024-11-28_11h30.59.339,Test,2024.2.1,60.049745208031936,2024-11-28 11h31.10.906883 +0100,
10,150,30,13,None,28,28,0,,,,,,,,,,,,,,,,0,28,28,9,,,,,457.2845961109997,,,,,,,,,,,,,,,,,,,,,,,,,,,,,,,,,,,,,,,,,,,,,,,,,,,,,,,,457.2751088389996,457.2845961109997,457.484990257999,457.484990257999,457.484990257999,459.18426076800097,459.18426076800097,459.1694244600003,,,,,,,,,,,,,,,,,,,,,,,,,010386,001,2024-11-28_11h30.59.339,Test,2024.2.1,60.049745208031936,2024-11-28 11h31.10.906883 +0100,
27,150,150,29,None,29,29,0,,,,,,,,,,,,,,,,0,29,29,26,,,,,459.18426076800097,,,,,,,,,,,,,,,,,,,,,,,,,,,,,,,,,,,,,,,,,,,,,,,,,,,,,,,,459.1760112160009,459.18426076800097,459.3852958360003,459.3852958360003,459.3852958360003,461.0859597710005,461.0859597710005,461.0692603179996,,,,,,,,,,,,,,,,,,,,,,,,,010386,001,2024-11-28_11h30.59.339,Test,2024.2.1,60.049745208031936,2024-11-28 11h31.10.906883 +0100,
12,150,60,19,None,30,30,0,,,,,,,,,,,,,,,,0,30,30,11,,,,,461.0859597710005,,,,,,,,,,,,,,,,,,,,,,,,,,,,,,,,,,,,,,,,,,,,,,,,,,,,,,,,461.0759763690003,461.0859597710005,461.28493169300054,461.28493169300054,461.30165926300106,462.9841727870007,462.9841727870007,462.96939938799915,,,,,,,,,,,,,,,,,,,,,,,,,010386,001,2024-11-28_11h30.59.339,Test,2024.2.1,60.049745208031936,2024-11-28 11h31.10.906883 +0100,
16,150,90,60,None,31,31,0,,,,,,,,,,,,,,,,0,31,31,15,,,,,462.9841727870007,,,,,,,,,,,,,,,,,,,,,,,,,,,,,,,,,,,,,,,,,,,,,,,,,,,,,,,,462.975500610999,462.9841727870007,463.1853194239993,463.1853194239993,463.1853194239993,464.8858639630016,464.8858639630016,464.86978984300004,,,,,,,,,,,,,,,,,,,,,,,,,010386,001,2024-11-28_11h30.59.339,Test,2024.2.1,60.049745208031936,2024-11-28 11h31.10.906883 +0100,
20,150,90,40,None,32,32,0,,,,,,,,,,,,,,,,0,32,32,19,,,,,464.8858639630016,,,,,,,,,,,,,,,,,,,,,,,,,,,,,,,,,,,,,,,,,,,,,,,,,,,,,,,,464.8764522950005,464.8858639630016,465.0850634189992,465.0850634189992,465.0850634189992,466.7845643449982,466.7845643449982,466.7698891309992,,,,,,,,,,,,,,,,,,,,,,,,,010386,001,2024-11-28_11h30.59.339,Test,2024.2.1,60.049745208031936,2024-11-28 11h31.10.906883 +0100,
5,150,0,67,None,33,33,0,,,,,,,,,,,,,,,,0,33,33,4,,,,,466.7845643449982,,,,,,,,,,,,,,,,,,,,,,,,,,,,,,,,,,,,,,,,,,,,,,,,,,,,,,,,466.7760384079993,466.7845643449982,466.9853121449996,466.9853121449996,466.9853121449996,468.6854288680006,468.6854288680006,468.6702130010017,,,,,,,,,,,,,,,,,,,,,,,,,010386,001,2024-11-28_11h30.59.339,Test,2024.2.1,60.049745208031936,2024-11-28 11h31.10.906883 +0100,
24,150,120,35,None,34,34,0,,,,,,,,,,,,,,,,0,34,34,23,,,,,468.6854288680006,,,,,,,,,,,,,,,,,,,,,,,,,,,,,,,,,,,,,,,,,,,,,,,,,,,,,,,,468.6768283040001,468.6854288680006,468.8848271079987,468.8848271079987,468.8848271079987,470.5853260030017,470.5853260030017,470.5690867000012,,,,,,,,,,,,,,,,,,,,,,,,,010386,001,2024-11-28_11h30.59.339,Test,2024.2.1,60.049745208031936,2024-11-28 11h31.10.906883 +0100,
,,,,,,,,,,,,,,,,,,,,,,,,,,,,,,,,,,,,,,,,,,,,,,,,,,,,,,,,,,,,,,,,,,,,,,,,,,,,,,,,,,,,,,,,,,,,,,,470.5692359179993,470.5853260030017,470.5853260030017,489.6376792400006,space,19.03806389100282,None,,,,,,,,,,,,,,,,,,010386,001,2024-11-28_11h30.59.339,Test,2024.2.1,60.049745208031936,2024-11-28 11h31.10.906883 +0100,
24,150,120,35,None,0,0,0,False,,,,left,1.2997148319991538,None,,,,,,,,,,,,,0,0,0,0,489.6582174610012,,,,,,,,,,,,,,,,,,,,,,,,,,,,,,,,,,,,,,,,,,,,,,,,,,,,,,,,,,,,,,,,,,,,,,,489.64919400299914,489.6582174610012,490.6702093249987,491.6372794919989,491.6372794919989,491.6372794919989,492.93933915899834,left,1.2997148319991538,None,,,,,,,,010386,001,2024-11-28_11h30.59.339,Test,2024.2.1,60.049745208031936,2024-11-28 11h31.10.906883 +0100,
55,150,90,42,None,1,1,0,True,,,,left,1.0394758330003242,None,,,,,,,,,,,,,0,1,1,1,492.95239644899993,,,,,,,,,,,,,,,,,,,,,,,,,,,,,,,,,,,,,,,,,,,,,,,,,,,,,,,,,,,,,,,,,,,,,,,492.9428839659995,492.95239644899993,493.95390763400064,494.9533996829996,494.9533996829996,494.9533996829996,496.0051191370003,left,1.0394758330003242,None,,,,,,,,010386,001,2024-11-28_11h30.59.339,Test,2024.2.1,60.049745208031936,2024-11-28 11h31.10.906883 +0100,
5,150,0,67,None,2,2,0,False,,,,left,0.954446169998846,None,,,,,,,,,,,,,0,2,2,2,496.0197313659992,,,,,,,,,,,,,,,,,,,,,,,,,,,,,,,,,,,,,,,,,,,,,,,,,,,,,,,,,,,,,,,,,,,,,,,496.0085037489989,496.0197313659992,497.02117670900043,498.0045345010003,498.0045345010003,498.0045345010003,498.971410473001,left,0.954446169998846,None,,,,,,,,010386,001,2024-11-28_11h30.59.339,Test,2024.2.1,60.049745208031936,2024-11-28 11h31.10.906883 +0100,
25,150,120,16,None,3,3,0,False,,,,left,1.4880501380030182,None,,,,,,,,,,,,,0,3,3,3,498.9873487299992,,,,,,,,,,,,,,,,,,,,,,,,,,,,,,,,,,,,,,,,,,,,,,,,,,,,,,,,,,,,,,,,,,,,,,,498.9749017770009,498.9873487299992,499.9882609410015,500.97138089500004,500.97138089500004,500.97138089500004,502.47179887699895,left,1.4880501380030182,None,,,,,,,,010386,001,2024-11-28_11h30.59.339,Test,2024.2.1,60.049745208031936,2024-11-28 11h31.10.906883 +0100,
44,150,30,64,None,4,4,0,True,,,,left,1.7360155919996032,None,,,,,,,,,,,,,0,4,4,4,502.4865777599989,,,,,,,,,,,,,,,,,,,,,,,,,,,,,,,,,,,,,,,,,,,,,,,,,,,,,,,,,,,,,,,,,,,,,,,502.4752384099993,502.4865777599989,503.48739410000053,504.47129790100007,504.47129790100007,504.47129790100007,506.2217380059992,left,1.7360155919996032,None,,,,,,,,010386,001,2024-11-28_11h30.59.339,Test,2024.2.1,60.049745208031936,2024-11-28 11h31.10.906883 +0100,
39,150,0,43,None,5,5,0,True,,,,left,1.0315394380013458,None,,,,,,,,,,,,,0,5,5,5,506.23739161100093,,,,,,,,,,,,,,,,,,,,,,,,,,,,,,,,,,,,,,,,,,,,,,,,,,,,,,,,,,,,,,,,,,,,,,,506.22522220999963,506.23739161100093,507.23870002400145,508.22165075999874,508.22165075999874,508.22165075999874,509.25901526899906,left,1.0315394380013458,None,,,,,,,,010386,001,2024-11-28_11h30.59.339,Test,2024.2.1,60.049745208031936,2024-11-28 11h31.10.906883 +0100,
37,150,0,45,None,6,6,0,True,,,,left,1.0513522059991374,None,,,,,,,,,,,,,0,6,6,6,509.2723164249983,,,,,,,,,,,,,,,,,,,,,,,,,,,,,,,,,,,,,,,,,,,,,,,,,,,,,,,,,,,,,,,,,,,,,,,509.2633185949999,509.2723164249983,510.28736448700147,511.27217213900076,511.27217213900076,511.27217213900076,512.3388855619996,left,1.0513522059991374,None,,,,,,,,010386,001,2024-11-28_11h30.59.339,Test,2024.2.1,60.049745208031936,2024-11-28 11h31.10.906883 +0100,
62,150,150,49,None,7,7,0,True,,,,right,0.7112029020026966,None,,,,,,,,,,,,,0,7,7,7,512.354739557999,,,,,,,,,,,,,,,,,,,,,,,,,,,,,,,,,,,,,,,,,,,,,,,,,,,,,,,,,,,,,,,,,,,,,,,512.3425073850012,512.354739557999,513.3544421139995,514.3548557059985,514.3548557059985,514.3548557059985,515.0725172329985,right,0.7112029020026966,None,,,,,,,,010386,001,2024-11-28_11h30.59.339,Test,2024.2.1,60.049745208031936,2024-11-28 11h31.10.906883 +0100,
16,150,90,60,None,8,8,0,False,,,,right,0.6935849360015709,None,,,,,,,,,,,,,0,8,8,8,515.0877440410004,,,,,,,,,,,,,,,,,,,,,,,,,,,,,,,,,,,,,,,,,,,,,,,,,,,,,,,,,,,,,,,,,,,,,,,515.0761849330011,515.0877440410004,516.0887115680016,517.0725264210014,517.0725264210014,517.0725264210014,517.7730337799985,right,0.6935849360015709,None,,,,,,,,010386,001,2024-11-28_11h30.59.339,Test,2024.2.1,60.049745208031936,2024-11-28 11h31.10.906883 +0100,
34,150,180,46,None,9,9,0,False,,,,left,1.2692648179981916,None,,,,,,,,,,,,,0,9,9,9,517.7878600299991,,,,,,,,,,,,,,,,,,,,,,,,,,,,,,,,,,,,,,,,,,,,,,,,,,,,,,,,,,,,,,,,,,,,,,,517.7764764470012,517.7878600299991,518.7889830649983,519.7884990349994,519.7884990349994,519.7884990349994,521.0737902569999,left,1.2692648179981916,None,,,,,,,,010386,001,2024-11-28_11h30.59.339,Test,2024.2.1,60.049745208031936,2024-11-28 11h31.10.906883 +0100,
27,150,150,29,None,10,10,0,False,,,,right,0.7841369599991594,None,,,,,,,,,,,,,0,10,10,10,521.0876827370012,,,,,,,,,,,,,,,,,,,,,,,,,,,,,,,,,,,,,,,,,,,,,,,,,,,,,,,,,,,,,,,,,,,,,,,521.0776380999996,521.0876827370012,522.0889908669997,523.0892002719993,523.0892002719993,523.0892002719993,523.8905443279982,right,0.7841369599991594,None,,,,,,,,010386,001,2024-11-28_11h30.59.339,Test,2024.2.1,60.049745208031936,2024-11-28 11h31.10.906883 +0100,
19,150,90,15,None,11,11,0,False,,,,left,0.8709347350013559,None,,,,,,,,,,,,,0,11,11,11,523.904755566,,,,,,,,,,,,,,,,,,,,,,,,,,,,,,,,,,,,,,,,,,,,,,,,,,,,,,,,,,,,,,,,,,,,,,,523.8941191049998,523.904755566,524.9054348950012,525.9063696060002,525.9063696060002,525.9063696060002,526.7905518449988,left,0.8709347350013559,None,,,,,,,,010386,001,2024-11-28_11h30.59.339,Test,2024.2.1,60.049745208031936,2024-11-28 11h31.10.906883 +0100,
63,150,150,22,None,12,12,0,True,,,,left,1.436086615001841,None,,,,,,,,,,,,,0,12,12,12,526.8050355300002,,,,,,,,,,,,,,,,,,,,,,,,,,,,,,,,,,,,,,,,,,,,,,,,,,,,,,,,,,,,,,,,,,,,,,,526.7940872479994,526.8050355300002,527.8064866759996,528.806336177,528.806336177,528.806336177,530.2577970359998,left,1.436086615001841,None,,,,,,,,010386,001,2024-11-28_11h30.59.339,Test,2024.2.1,60.049745208031936,2024-11-28 11h31.10.906883 +0100,
28,150,150,52,None,13,13,0,False,,,,left,0.7258901929999411,None,,,,,,,,,,,,,0,13,13,13,530.2718544529998,,,,,,,,,,,,,,,,,,,,,,,,,,,,,,,,,,,,,,,,,,,,,,,,,,,,,,,,,,,,,,,,,,,,,,,530.261299400001,530.2718544529998,531.2725319560013,532.2728815949995,532.2728815949995,532.2728815949995,533.007233766999,left,0.7258901929999411,None,,,,,,,,010386,001,2024-11-28_11h30.59.339,Test,2024.2.1,60.049745208031936,2024-11-28 11h31.10.906883 +0100,
67,150,180,48,None,14,14,0,True,,,,left,0.7580912500015984,None,,,,,,,,,,,,,0,14,14,14,533.022572627,,,,,,,,,,,,,,,,,,,,,,,,,,,,,,,,,,,,,,,,,,,,,,,,,,,,,,,,,,,,,,,,,,,,,,,533.0107219599995,533.022572627,534.0237136830001,535.0226502519981,535.0226502519981,535.0226502519981,535.7909504880008,left,0.7580912500015984,None,,,,,,,,010386,001,2024-11-28_11h30.59.339,Test,2024.2.1,60.049745208031936,2024-11-28 11h31.10.906883 +0100,
22,150,120,41,None,15,15,0,False,,,,right,1.2027340860004188,None,,,,,,,,,,,,,0,15,15,15,535.805858691001,,,,,,,,,,,,,,,,,,,,,,,,,,,,,,,,,,,,,,,,,,,,,,,,,,,,,,,,,,,,,,,,,,,,,,,535.794423315001,535.805858691001,536.8072097789991,537.7901433510015,537.7901433510015,537.7901433510015,539.0079497430015,right,1.2027340860004188,None,,,,,,,,010386,001,2024-11-28_11h30.59.339,Test,2024.2.1,60.049745208031936,2024-11-28 11h31.10.906883 +0100,
2,150,0,70,None,16,16,0,False,,,,right,0.9193338669974764,None,,,,,,,,,,,,,0,16,16,16,539.0230778330006,,,,,,,,,,,,,,,,,,,,,,,,,,,,,,,,,,,,,,,,,,,,,,,,,,,,,,,,,,,,,,,,,,,,,,,539.0112453479996,539.0230778330006,540.0239208530002,541.0071388750002,541.0071388750002,541.0071388750002,541.9419538430011,right,0.9193338669974764,None,,,,,,,,010386,001,2024-11-28_11h30.59.339,Test,2024.2.1,60.049745208031936,2024-11-28 11h31.10.906883 +0100,
68,150,180,23,None,17,17,0,True,,,,right,1.0277610830016783,None,,,,,,,,,,,,,0,17,17,17,541.9564801499982,,,,,,,,,,,,,,,,,,,,,,,,,,,,,,,,,,,,,,,,,,,,,,,,,,,,,,,,,,,,,,,,,,,,,,,541.9455975140008,541.9564801499982,542.9577699399997,543.9578059589985,543.9578059589985,543.9578059589985,544.9942518009993,right,1.0277610830016783,None,,,,,,,,010386,001,2024-11-28_11h30.59.339,Test,2024.2.1,60.049745208031936,2024-11-28 11h31.10.906883 +0100,
40,150,0,25,None,18,18,0,True,,,,right,1.1698899290022382,None,,,,,,,,,,,,,0,18,18,18,545.007094867,,,,,,,,,,,,,,,,,,,,,,,,,,,,,,,,,,,,,,,,,,,,,,,,,,,,,,,,,,,,,,,,,,,,,,,544.9986581890007,545.007094867,546.0076207239981,547.0076536870001,547.0076536870001,547.0076536870001,548.1929837179996,right,1.1698899290022382,None,,,,,,,,010386,001,2024-11-28_11h30.59.339,Test,2024.2.1,60.049745208031936,2024-11-28 11h31.10.906883 +0100,
66,150,180,2,None,19,19,0,True,,,,right,0.9737788370002818,None,,,,,,,,,,,,,0,19,19,19,548.2071084509989,,,,,,,,,,,,,,,,,,,,,,,,,,,,,,,,,,,,,,,,,,,,,,,,,,,,,,,,,,,,,,,,,,,,,,,548.1971939100004,548.2071084509989,549.2076096419987,550.2076278569984,550.2076278569984,550.2076278569984,551.1918900240016,right,0.9737788370002818,None,,,,,,,,010386,001,2024-11-28_11h30.59.339,Test,2024.2.1,60.049745208031936,2024-11-28 11h31.10.906883 +0100,
38,150,0,11,None,20,20,0,True,,,,left,1.7015535870013991,None,,,,,,,,,,,,,0,20,20,20,551.2073037670016,,,,,,,,,,,,,,,,,,,,,,,,,,,,,,,,,,,,,,,,,,,,,,,,,,,,,,,,,,,,,,,,,,,,,,,551.1966388350011,551.2073037670016,552.2080973310003,553.2075975020016,553.2075975020016,553.2075975020016,554.9130212220007,left,1.7015535870013991,None,,,,,,,,010386,001,2024-11-28_11h30.59.339,Test,2024.2.1,60.049745208031936,2024-11-28 11h31.10.906883 +0100,
18,150,90,31,None,21,21,0,False,,,,left,1.035222115999204,None,,,,,,,,,,,,,0,21,21,21,554.9281103870017,,,,,,,,,,,,,,,,,,,,,,,,,,,,,,,,,,,,,,,,,,,,,,,,,,,,,,,,,,,,,,,,,,,,,,,554.9190761960017,554.9281103870017,555.9413997289994,556.9240592249989,556.9240592249989,556.9240592249989,557.9632563740015,left,1.035222115999204,None,,,,,,,,010386,001,2024-11-28_11h30.59.339,Test,2024.2.1,60.049745208031936,2024-11-28 11h31.10.906883 +0100,
12,150,60,19,None,22,22,0,False,,,,right,0.9133371930001886,None,,,,,,,,,,,,,0,22,22,22,557.9775550999984,,,,,,,,,,,,,,,,,,,,,,,,,,,,,,,,,,,,,,,,,,,,,,,,,,,,,,,,,,,,,,,,,,,,,,,557.9680897819999,557.9775550999984,558.9911055000011,559.9756153509989,559.9756153509989,559.9756153509989,560.8948239650017,right,0.9133371930001886,None,,,,,,,,010386,001,2024-11-28_11h30.59.339,Test,2024.2.1,60.049745208031936,2024-11-28 11h31.10.906883 +0100,
7,150,30,61,None,23,23,0,False,,,,left,1.7677681500026665,None,,,,,,,,,,,,,0,23,23,23,560.9077319460011,,,,,,,,,,,,,,,,,,,,,,,,,,,,,,,,,,,,,,,,,,,,,,,,,,,,,,,,,,,,,,,,,,,,,,,560.8986663620017,560.9077319460011,561.9087766080011,562.9091080629987,562.9091080629987,562.9091080629987,564.6931774859986,left,1.7677681500026665,None,,,,,,,,010386,001,2024-11-28_11h30.59.339,Test,2024.2.1,60.049745208031936,2024-11-28 11h31.10.906883 +0100,
3,150,0,44,None,24,24,0,False,,,,right,0.8579908330029866,None,,,,,,,,,,,,,0,24,24,24,564.707353318001,,,,,,,,,,,,,,,,,,,,,,,,,,,,,,,,,,,,,,,,,,,,,,,,,,,,,,,,,,,,,,,,,,,,,,,564.6965412319987,564.707353318001,565.7080126159999,566.7083816109989,566.7083816109989,566.7083816109989,567.5761246000002,right,0.8579908330029866,None,,,,,,,,010386,001,2024-11-28_11h30.59.339,Test,2024.2.1,60.049745208031936,2024-11-28 11h31.10.906883 +0100,
45,150,30,69,None,25,25,0,True,,,,right,0.8379941419989336,None,,,,,,,,,,,,,0,25,25,25,567.5913158969997,,,,,,,,,,,,,,,,,,,,,,,,,,,,,,,,,,,,,,,,,,,,,,,,,,,,,,,,,,,,,,,,,,,,,,,567.5794683200002,567.5913158969997,568.5914029390005,569.5758916609993,569.5758916609993,569.5758916609993,570.4263432980006,right,0.8379941419989336,None,,,,,,,,010386,001,2024-11-28_11h30.59.339,Test,2024.2.1,60.049745208031936,2024-11-28 11h31.10.906883 +0100,
64,150,150,54,None,26,26,0,True,,,,right,1.5043470359996718,None,,,,,,,,,,,,,0,26,26,26,570.4416968529986,,,,,,,,,,,,,,,,,,,,,,,,,,,,,,,,,,,,,,,,,,,,,,,,,,,,,,,,,,,,,,,,,,,,,,,570.4297719140013,570.4416968529986,571.4428377719996,572.441473062001,572.441473062001,572.441473062001,573.9606719799995,right,1.5043470359996718,None,,,,,,,,010386,001,2024-11-28_11h30.59.339,Test,2024.2.1,60.049745208031936,2024-11-28 11h31.10.906883 +0100,
57,150,120,55,None,27,27,0,True,,,,left,0.9553247120020387,None,,,,,,,,,,,,,0,27,27,27,573.9748672419992,,,,,,,,,,,,,,,,,,,,,,,,,,,,,,,,,,,,,,,,,,,,,,,,,,,,,,,,,,,,,,,,,,,,,,,573.9643013419991,573.9748672419992,574.97609371,575.9756996809992,575.9756996809992,575.9756996809992,576.9433763339985,left,0.9553247120020387,None,,,,,,,,010386,001,2024-11-28_11h30.59.339,Test,2024.2.1,60.049745208031936,2024-11-28 11h31.10.906883 +0100,
15,150,60,24,None,28,28,0,False,,,,right,1.0438905090013577,None,,,,,,,,,,,,,0,28,28,28,576.9587063899999,,,,,,,,,,,,,,,,,,,,,,,,,,,,,,,,,,,,,,,,,,,,,,,,,,,,,,,,,,,,,,,,,,,,,,,576.946803548999,576.9587063899999,577.9594198179984,578.9429581350014,578.9429581350014,578.9429581350014,579.9939742909992,right,1.0438905090013577,None,,,,,,,,010386,001,2024-11-28_11h30.59.339,Test,2024.2.1,60.049745208031936,2024-11-28 11h31.10.906883 +0100,
60,150,120,47,None,29,29,0,True,,,,left,1.1357730939998874,None,,,,,,,,,,,,,0,29,29,29,580.0091619049999,,,,,,,,,,,,,,,,,,,,,,,,,,,,,,,,,,,,,,,,,,,,,,,,,,,,,,,,,,,,,,,,,,,,,,,579.9975173390012,580.0091619049999,581.0091392729992,582.0100790889992,582.0100790889992,582.0100790889992,583.1610412609989,left,1.1357730939998874,None,,,,,,,,010386,001,2024-11-28_11h30.59.339,Test,2024.2.1,60.049745208031936,2024-11-28 11h31.10.906883 +0100,
21,150,120,1,None,30,30,0,False,,,,right,1.0340480129998468,None,,,,,,,,,,,,,0,30,30,30,583.175457538,,,,,,,,,,,,,,,,,,,,,,,,,,,,,,,,,,,,,,,,,,,,,,,,,,,,,,,,,,,,,,,,,,,,,,,583.1646658979989,583.175457538,584.1760770389992,585.1604069239984,585.1604069239984,585.1604069239984,586.210486674001,right,1.0340480129998468,None,,,,,,,,010386,001,2024-11-28_11h30.59.339,Test,2024.2.1,60.049745208031936,2024-11-28 11h31.10.906883 +0100,
20,150,90,40,None,31,31,0,False,,,,left,0.9471722720008984,None,,,,,,,,,,,,,0,31,31,31,586.2261898840006,,,,,,,,,,,,,,,,,,,,,,,,,,,,,,,,,,,,,,,,,,,,,,,,,,,,,,,,,,,,,,,,,,,,,,,586.2141389499993,586.2261898840006,587.2272061110016,588.2262317470013,588.2262317470013,588.2262317470013,589.1783064260017,left,0.9471722720008984,None,,,,,,,,010386,001,2024-11-28_11h30.59.339,Test,2024.2.1,60.049745208031936,2024-11-28 11h31.10.906883 +0100,
29,150,150,14,None,32,32,0,False,,,,right,0.8735438549992978,None,,,,,,,,,,,,,0,32,32,32,589.1925737890015,,,,,,,,,,,,,,,,,,,,,,,,,,,,,,,,,,,,,,,,,,,,,,,,,,,,,,,,,,,,,,,,,,,,,,,589.1817037260007,589.1925737890015,590.1940811099994,591.1931653200008,591.1931653200008,591.1931653200008,592.0783589769999,right,0.8735438549992978,None,,,,,,,,010386,001,2024-11-28_11h30.59.339,Test,2024.2.1,60.049745208031936,2024-11-28 11h31.10.906883 +0100,
8,150,30,36,None,33,33,0,False,,,,left,0.8416316340008052,None,,,,,,,,,,,,,0,33,33,33,592.0928969499982,,,,,,,,,,,,,,,,,,,,,,,,,,,,,,,,,,,,,,,,,,,,,,,,,,,,,,,,,,,,,,,,,,,,,,,592.0820852559991,592.0928969499982,593.0940663229994,594.077615926999,594.077615926999,594.077615926999,594.9293685730008,left,0.8416316340008052,None,,,,,,,,010386,001,2024-11-28_11h30.59.339,Test,2024.2.1,60.049745208031936,2024-11-28 11h31.10.906883 +0100,
10,150,30,13,None,34,34,0,False,,,,left,0.7720791159990767,None,,,,,,,,,,,,,0,34,34,34,594.9429412520003,,,,,,,,,,,,,,,,,,,,,,,,,,,,,,,,,,,,,,,,,,,,,,,,,,,,,,,,,,,,,,,,,,,,,,,594.9330849329999,594.9429412520003,595.9436161060003,596.9446889399987,596.9446889399987,596.9446889399987,597.7284245999981,left,0.7720791159990767,None,,,,,,,,010386,001,2024-11-28_11h30.59.339,Test,2024.2.1,60.049745208031936,2024-11-28 11h31.10.906883 +0100,
58,150,120,10,None,35,35,0,True,,,,right,1.4528893110000354,None,,,,,,,,,,,,,0,35,35,35,597.7436257580011,,,,,,,,,,,,,,,,,,,,,,,,,,,,,,,,,,,,,,,,,,,,,,,,,,,,,,,,,,,,,,,,,,,,,,,597.7320649499998,597.7436257580011,598.7440934129991,599.7438285909993,599.7438285909993,599.7438285909993,601.2123022080013,right,1.4528893110000354,None,,,,,,,,010386,001,2024-11-28_11h30.59.339,Test,2024.2.1,60.049745208031936,2024-11-28 11h31.10.906883 +0100,
54,150,90,4,None,36,36,0,True,,,,left,0.850426098000753,None,,,,,,,,,,,,,0,36,36,36,601.2271308339987,,,,,,,,,,,,,,,,,,,,,,,,,,,,,,,,,,,,,,,,,,,,,,,,,,,,,,,,,,,,,,,,,,,,,,,601.2162232580013,601.2271308339987,602.2283075099986,603.2282810059987,603.2282810059987,603.2282810059987,604.0957087009992,left,0.850426098000753,None,,,,,,,,010386,001,2024-11-28_11h30.59.339,Test,2024.2.1,60.049745208031936,2024-11-28 11h31.10.906883 +0100,
52,150,90,32,None,37,37,0,True,,,,right,0.9582766229978006,None,,,,,,,,,,,,,0,37,37,37,604.1106396510004,,,,,,,,,,,,,,,,,,,,,,,,,,,,,,,,,,,,,,,,,,,,,,,,,,,,,,,,,,,,,,,,,,,,,,,604.0992133549989,604.1106396510004,605.1116835520006,606.1112784860015,606.1112784860015,606.1112784860015,607.0793423169998,right,0.9582766229978006,None,,,,,,,,010386,001,2024-11-28_11h30.59.339,Test,2024.2.1,60.049745208031936,2024-11-28 11h31.10.906883 +0100,
13,150,60,51,None,38,38,0,False,,,,left,1.5605538660020102,None,,,,,,,,,,,,,0,38,38,38,607.0938084650006,,,,,,,,,,,,,,,,,,,,,,,,,,,,,,,,,,,,,,,,,,,,,,,,,,,,,,,,,,,,,,,,,,,,,,,607.0826787549995,607.0938084650006,608.095453375001,609.078509758001,609.078509758001,609.078509758001,610.6483206669982,left,1.5605538660020102,None,,,,,,,,010386,001,2024-11-28_11h30.59.339,Test,2024.2.1,60.049745208031936,2024-11-28 11h31.10.906883 +0100,
30,150,150,18,None,39,39,0,False,,,,left,0.924006402001396,None,,,,,,,,,,,,,0,39,39,39,610.661925362001,,,,,,,,,,,,,,,,,,,,,,,,,,,,,,,,,,,,,,,,,,,,,,,,,,,,,,,,,,,,,,,,,,,,,,,610.6529686379981,610.661925362001,611.660930607999,612.6621941420017,612.6621941420017,612.6621941420017,613.5966733159985,left,0.924006402001396,None,,,,,,,,010386,001,2024-11-28_11h30.59.339,Test,2024.2.1,60.049745208031936,2024-11-28 11h31.10.906883 +0100,
35,150,180,30,None,40,40,0,False,,,,left,0.8762884769967059,None,,,,,,,,,,,,,0,40,40,40,613.6107899710005,,,,,,,,,,,,,,,,,,,,,,,,,,,,,,,,,,,,,,,,,,,,,,,,,,,,,,,,,,,,,,,,,,,,,,,613.6001902200005,613.6107899710005,614.612137641001,615.5957493390015,615.5957493390015,615.5957493390015,616.4802517989992,left,0.8762884769967059,None,,,,,,,,010386,001,2024-11-28_11h30.59.339,Test,2024.2.1,60.049745208031936,2024-11-28 11h31.10.906883 +0100,
33,150,180,53,None,41,41,0,False,,,,left,0.7882812729985744,None,,,,,,,,,,,,,0,41,41,41,616.4944010979998,,,,,,,,,,,,,,,,,,,,,,,,,,,,,,,,,,,,,,,,,,,,,,,,,,,,,,,,,,,,,,,,,,,,,,,616.4837209770012,616.4944010979998,617.4951929160015,618.4949703679995,618.4949703679995,618.4949703679995,619.2972596260006,left,0.7882812729985744,None,,,,,,,,010386,001,2024-11-28_11h30.59.339,Test,2024.2.1,60.049745208031936,2024-11-28 11h31.10.906883 +0100,
17,150,90,9,None,42,42,0,False,,,,right,0.6724372669996228,None,,,,,,,,,,,,,0,42,42,42,619.3113502810011,,,,,,,,,,,,,,,,,,,,,,,,,,,,,,,,,,,,,,,,,,,,,,,,,,,,,,,,,,,,,,,,,,,,,,,619.3007966389996,619.3113502810011,620.3129765609992,621.3119792969992,621.3119792969992,621.3119792969992,621.9965499749997,right,0.6724372669996228,None,,,,,,,,010386,001,2024-11-28_11h30.59.339,Test,2024.2.1,60.049745208031936,2024-11-28 11h31.10.906883 +0100,
36,150,0,66,None,43,43,0,True,,,,left,1.2757297140014998,None,,,,,,,,,,,,,0,43,43,43,622.0113675989996,,,,,,,,,,,,,,,,,,,,,,,,,,,,,,,,,,,,,,,,,,,,,,,,,,,,,,,,,,,,,,,,,,,,,,,621.9999082719987,622.0113675989996,623.0134251009986,624.0118987739988,624.0118987739988,624.0118987739988,625.2980659040004,left,1.2757297140014998,None,,,,,,,,010386,001,2024-11-28_11h30.59.339,Test,2024.2.1,60.049745208031936,2024-11-28 11h31.10.906883 +0100,
69,150,180,26,None,44,44,0,True,,,,left,0.6727772129997902,None,,,,,,,,,,,,,0,44,44,44,625.3122145939997,,,,,,,,,,,,,,,,,,,,,,,,,,,,,,,,,,,,,,,,,,,,,,,,,,,,,,,,,,,,,,,,,,,,,,,625.3018200410006,625.3122145939997,626.3129558580004,627.3122953079983,627.3122953079983,627.3122953079983,627.9973139069989,left,0.6727772129997902,None,,,,,,,,010386,001,2024-11-28_11h30.59.339,Test,2024.2.1,60.049745208031936,2024-11-28 11h31.10.906883 +0100,
51,150,90,50,None,45,45,0,True,,,,right,0.8371711969994067,None,,,,,,,,,,,,,0,45,45,45,628.0119904380008,,,,,,,,,,,,,,,,,,,,,,,,,,,,,,,,,,,,,,,,,,,,,,,,,,,,,,,,,,,,,,,,,,,,,,,628.000801921,628.0119904380008,629.0129778970004,629.9971687479992,629.9971687479992,629.9971687479992,630.8472846539989,right,0.8371711969994067,None,,,,,,,,010386,001,2024-11-28_11h30.59.339,Test,2024.2.1,60.049745208031936,2024-11-28 11h31.10.906883 +0100,
49,150,60,20,None,46,46,0,True,,,,left,0.9252775829991151,None,,,,,,,,,,,,,0,46,46,46,630.8624410090015,,,,,,,,,,,,,,,,,,,,,,,,,,,,,,,,,,,,,,,,,,,,,,,,,,,,,,,,,,,,,,,,,,,,,,,630.8506403710016,630.8624410090015,631.8628979280002,632.8461705070004,632.8461705070004,632.8461705070004,633.7804441469998,left,0.9252775829991151,None,,,,,,,,010386,001,2024-11-28_11h30.59.339,Test,2024.2.1,60.049745208031936,2024-11-28 11h31.10.906883 +0100,
70,150,180,68,None,47,47,0,True,,,,left,0.8392989709973335,None,,,,,,,,,,,,,0,47,47,47,633.7960992379994,,,,,,,,,,,,,,,,,,,,,,,,,,,,,,,,,,,,,,,,,,,,,,,,,,,,,,,,,,,,,,,,,,,,,,,633.7837885349982,633.7960992379994,634.796906743999,635.7803437869989,635.7803437869989,635.7803437869989,636.6314822089989,left,0.8392989709973335,None,,,,,,,,010386,001,2024-11-28_11h30.59.339,Test,2024.2.1,60.049745208031936,2024-11-28 11h31.10.906883 +0100,
56,150,120,27,None,48,48,0,True,,,,left,0.9233039099999587,None,,,,,,,,,,,,,0,48,48,48,636.6460331179987,,,,,,,,,,,,,,,,,,,,,,,,,,,,,,,,,,,,,,,,,,,,,,,,,,,,,,,,,,,,,,,,,,,,,,,636.6349196880001,636.6460331179987,637.6462878439997,638.6476524309983,638.6476524309983,638.6476524309983,639.580720332,left,0.9233039099999587,None,,,,,,,,010386,001,2024-11-28_11h30.59.339,Test,2024.2.1,60.049745208031936,2024-11-28 11h31.10.906883 +0100,
4,150,0,28,None,49,49,0,False,,,,left,0.957060287000786,None,,,,,,,,,,,,,0,49,49,49,639.5969035509988,,,,,,,,,,,,,,,,,,,,,,,,,,,,,,,,,,,,,,,,,,,,,,,,,,,,,,,,,,,,,,,,,,,,,,,639.5842771060015,639.5969035509988,640.5967825059997,641.5799495190004,641.5799495190004,641.5799495190004,642.548329579,left,0.957060287000786,None,,,,,,,,010386,001,2024-11-28_11h30.59.339,Test,2024.2.1,60.049745208031936,2024-11-28 11h31.10.906883 +0100,
61,150,150,7,None,50,50,0,True,,,,left,0.7593225130003702,None,,,,,,,,,,,,,0,50,50,50,642.5633545199998,,,,,,,,,,,,,,,,,,,,,,,,,,,,,,,,,,,,,,,,,,,,,,,,,,,,,,,,,,,,,,,,,,,,,,,642.5520163619985,642.5633545199998,643.564427674999,644.5471511059986,644.5471511059986,644.5471511059986,645.3172098719988,left,0.7593225130003702,None,,,,,,,,010386,001,2024-11-28_11h30.59.339,Test,2024.2.1,60.049745208031936,2024-11-28 11h31.10.906883 +0100,
32,150,180,34,None,51,51,0,False,,,,right,1.0185714720028045,None,,,,,,,,,,,,,0,51,51,51,645.3306273970011,,,,,,,,,,,,,,,,,,,,,,,,,,,,,,,,,,,,,,,,,,,,,,,,,,,,,,,,,,,,,,,,,,,,,,,645.3210952320005,645.3306273970011,646.3302162600012,647.3313894899984,647.3313894899984,647.3313894899984,648.3656154370001,right,1.0185714720028045,None,,,,,,,,010386,001,2024-11-28_11h30.59.339,Test,2024.2.1,60.049745208031936,2024-11-28 11h31.10.906883 +0100,
1,150,0,65,None,52,52,0,False,,,,left,0.8031860289993347,None,,,,,,,,,,,,,0,52,52,52,648.3808531950017,,,,,,,,,,,,,,,,,,,,,,,,,,,,,,,,,,,,,,,,,,,,,,,,,,,,,,,,,,,,,,,,,,,,,,,648.3689351739995,648.3808531950017,649.3809946729998,650.3811267509991,650.3811267509991,650.3811267509991,651.1993450779992,left,0.8031860289993347,None,,,,,,,,010386,001,2024-11-28_11h30.59.339,Test,2024.2.1,60.049745208031936,2024-11-28 11h31.10.906883 +0100,
23,150,120,3,None,53,53,0,False,,,,left,0.7752669869987585,None,,,,,,,,,,,,,0,53,53,53,651.2146191710017,,,,,,,,,,,,,,,,,,,,,,,,,,,,,,,,,,,,,,,,,,,,,,,,,,,,,,,,,,,,,,,,,,,,,,,651.203143576,651.2146191710017,652.2150142940009,653.1983656580014,653.1983656580014,653.1983656580014,653.9833485380004,left,0.7752669869987585,None,,,,,,,,010386,001,2024-11-28_11h30.59.339,Test,2024.2.1,60.049745208031936,2024-11-28 11h31.10.906883 +0100,
47,150,60,37,None,54,54,0,True,,,,left,1.4301119160008966,None,,,,,,,,,,,,,0,54,54,54,653.9976635230014,,,,,,,,,,,,,,,,,,,,,,,,,,,,,,,,,,,,,,,,,,,,,,,,,,,,,,,,,,,,,,,,,,,,,,,653.9870176110016,653.9976635230014,654.9975307829991,655.9985018849984,655.9985018849984,655.9985018849984,657.435316744999,left,1.4301119160008966,None,,,,,,,,010386,001,2024-11-28_11h30.59.339,Test,2024.2.1,60.049745208031936,2024-11-28 11h31.10.906883 +0100,
43,150,30,17,None,55,55,0,True,,,,left,0.805445359001169,None,,,,,,,,,,,,,0,55,55,55,657.4488551959985,,,,,,,,,,,,,,,,,,,,,,,,,,,,,,,,,,,,,,,,,,,,,,,,,,,,,,,,,,,,,,,,,,,,,,,657.4400212850014,657.4488551959985,658.4483913949989,659.4480766209999,659.4480766209999,659.4480766209999,660.2655826189985,left,0.805445359001169,None,,,,,,,,010386,001,2024-11-28_11h30.59.339,Test,2024.2.1,60.049745208031936,2024-11-28 11h31.10.906883 +0100,
26,150,150,63,None,56,56,0,False,,,,left,1.0099079520005034,None,,,,,,,,,,,,,0,56,56,56,660.2811914829981,,,,,,,,,,,,,,,,,,,,,,,,,,,,,,,,,,,,,,,,,,,,,,,,,,,,,,,,,,,,,,,,,,,,,,,660.2690134769982,660.2811914829981,661.2821034449989,662.2655343160004,662.2655343160004,662.2655343160004,663.2836967520016,left,1.0099079520005034,None,,,,,,,,010386,001,2024-11-28_11h30.59.339,Test,2024.2.1,60.049745208031936,2024-11-28 11h31.10.906883 +0100,
14,150,60,38,None,57,57,0,False,,,,left,0.9177129320014501,None,,,,,,,,,,,,,0,57,57,57,663.2981056690005,,,,,,,,,,,,,,,,,,,,,,,,,,,,,,,,,,,,,,,,,,,,,,,,,,,,,,,,,,,,,,,,,,,,,,,663.2873060370002,663.2981056690005,664.2989700580001,665.2980745239984,665.2980745239984,665.2980745239984,666.2325153140009,left,0.9177129320014501,None,,,,,,,,010386,001,2024-11-28_11h30.59.339,Test,2024.2.1,60.049745208031936,2024-11-28 11h31.10.906883 +0100,
65,150,150,62,None,58,58,0,True,,,,left,0.7594431040015479,None,,,,,,,,,,,,,0,58,58,58,666.2484673969993,,,,,,,,,,,,,,,,,,,,,,,,,,,,,,,,,,,,,,,,,,,,,,,,,,,,,,,,,,,,,,,,,,,,,,,666.2372640940011,666.2484673969993,667.2495304100012,668.2317646929987,668.2317646929987,668.2317646929987,668.9994820300017,left,0.7594431040015479,None,,,,,,,,010386,001,2024-11-28_11h30.59.339,Test,2024.2.1,60.049745208031936,2024-11-28 11h31.10.906883 +0100,
59,150,120,6,None,59,59,0,True,,,,left,1.217763095999544,None,,,,,,,,,,,,,0,59,59,59,669.0153757560001,,,,,,,,,,,,,,,,,,,,,,,,,,,,,,,,,,,,,,,,,,,,,,,,,,,,,,,,,,,,,,,,,,,,,,,669.0039936739995,669.0153757560001,670.0164727010015,670.9997791349997,670.9997791349997,670.9997791349997,672.2338077509994,left,1.217763095999544,None,,,,,,,,010386,001,2024-11-28_11h30.59.339,Test,2024.2.1,60.049745208031936,2024-11-28 11h31.10.906883 +0100,
11,150,60,57,None,60,60,0,False,,,,left,0.7346882379970339,None,,,,,,,,,,,,,0,60,60,60,672.2483415839997,,,,,,,,,,,,,,,,,,,,,,,,,,,,,,,,,,,,,,,,,,,,,,,,,,,,,,,,,,,,,,,,,,,,,,,672.2373372490001,672.2483415839997,673.2492527579998,674.2330455629999,674.2330455629999,674.2330455629999,674.9838848010004,left,0.7346882379970339,None,,,,,,,,010386,001,2024-11-28_11h30.59.339,Test,2024.2.1,60.049745208031936,2024-11-28 11h31.10.906883 +0100,
31,150,180,56,None,61,61,0,False,,,,left,0.7400937500024156,None,,,,,,,,,,,,,0,61,61,61,674.999487219,,,,,,,,,,,,,,,,,,,,,,,,,,,,,,,,,,,,,,,,,,,,,,,,,,,,,,,,,,,,,,,,,,,,,,,674.9876227620007,674.999487219,676.0001574880007,676.983357740999,676.983357740999,676.983357740999,677.7345564530006,left,0.7400937500024156,None,,,,,,,,010386,001,2024-11-28_11h30.59.339,Test,2024.2.1,60.049745208031936,2024-11-28 11h31.10.906883 +0100,
48,150,60,5,None,62,62,0,True,,,,left,1.5054330120001396,None,,,,,,,,,,,,,0,62,62,62,677.7492604200015,,,,,,,,,,,,,,,,,,,,,,,,,,,,,,,,,,,,,,,,,,,,,,,,,,,,,,,,,,,,,,,,,,,,,,,677.738191602999,677.7492604200015,678.7490976609988,679.7500501799987,679.7500501799987,679.7500501799987,681.2681673629995,left,1.5054330120001396,None,,,,,,,,010386,001,2024-11-28_11h30.59.339,Test,2024.2.1,60.049745208031936,2024-11-28 11h31.10.906883 +0100,
53,150,90,58,None,63,63,0,True,,,,left,0.8401883650003583,None,,,,,,,,,,,,,0,63,63,63,681.2836759290003,,,,,,,,,,,,,,,,,,,,,,,,,,,,,,,,,,,,,,,,,,,,,,,,,,,,,,,,,,,,,,,,,,,,,,,681.2734946429991,681.2836759290003,682.28374979,683.2826971329996,683.2826971329996,683.2826971329996,684.1347734180017,left,0.8401883650003583,None,,,,,,,,010386,001,2024-11-28_11h30.59.339,Test,2024.2.1,60.049745208031936,2024-11-28 11h31.10.906883 +0100,
42,150,30,8,None,64,64,0,True,,,,left,1.1023679269965214,None,,,,,,,,,,,,,0,64,64,64,684.1492225430011,,,,,,,,,,,,,,,,,,,,,,,,,,,,,,,,,,,,,,,,,,,,,,,,,,,,,,,,,,,,,,,,,,,,,,,684.1383344179994,684.1492225430011,685.1508243499993,686.1502892559984,686.1502892559984,686.1502892559984,687.2680324419998,left,1.1023679269965214,None,,,,,,,,010386,001,2024-11-28_11h30.59.339,Test,2024.2.1,60.049745208031936,2024-11-28 11h31.10.906883 +0100,
46,150,60,12,None,65,65,0,True,,,,left,1.324549560999003,None,,,,,,,,,,,,,0,65,65,65,687.2830031250014,,,,,,,,,,,,,,,,,,,,,,,,,,,,,,,,,,,,,,,,,,,,,,,,,,,,,,,,,,,,,,,,,,,,,,,687.271470175001,687.2830031250014,688.283097440999,689.2673980289983,689.2673980289983,689.2673980289983,690.603221633999,left,1.324549560999003,None,,,,,,,,010386,001,2024-11-28_11h30.59.339,Test,2024.2.1,60.049745208031936,2024-11-28 11h31.10.906883 +0100,
6,150,30,33,None,66,66,0,False,,,,left,0.9600507220020518,None,,,,,,,,,,,,,0,66,66,66,690.6161613209988,,,,,,,,,,,,,,,,,,,,,,,,,,,,,,,,,,,,,,,,,,,,,,,,,,,,,,,,,,,,,,,,,,,,,,,690.6072280139997,690.6161613209988,691.6174994790017,692.6170543799999,692.6170543799999,692.6170543799999,693.5849557879992,left,0.9600507220020518,None,,,,,,,,010386,001,2024-11-28_11h30.59.339,Test,2024.2.1,60.049745208031936,2024-11-28 11h31.10.906883 +0100,
50,150,60,39,None,67,67,0,True,,,,right,1.6839180040005886,None,,,,,,,,,,,,,0,67,67,67,693.6000277070016,,,,,,,,,,,,,,,,,,,,,,,,,,,,,,,,,,,,,,,,,,,,,,,,,,,,,,,,,,,,,,,,,,,,,,,693.5883703170002,693.6000277070016,694.6002403120001,695.5848379080016,695.5848379080016,695.5848379080016,697.2723915370007,right,1.6839180040005886,None,,,,,,,,010386,001,2024-11-28_11h30.59.339,Test,2024.2.1,60.049745208031936,2024-11-28 11h31.10.906883 +0100,
9,150,30,59,None,68,68,0,False,,,,left,1.4080865470023127,None,,,,,,,,,,,,,0,68,68,68,697.2857830600005,,,,,,,,,,,,,,,,,,,,,,,,,,,,,,,,,,,,,,,,,,,,,,,,,,,,,,,,,,,,,,,,,,,,,,,697.2764940929992,697.2857830600005,698.3015343400002,699.2847847480007,699.2847847480007,699.2847847480007,700.7042448899992,left,1.4080865470023127,None,,,,,,,,010386,001,2024-11-28_11h30.59.339,Test,2024.2.1,60.049745208031936,2024-11-28 11h31.10.906883 +0100,
41,150,30,21,None,69,69,0,True,,,,left,1.1260614739985613,None,,,,,,,,,,,,,0,69,69,69,700.7170840030012,,,,,,,,,,,,,,,,,,,,,,,,,,,,,,,,,,,,,,,,,,,,,,,,,,,,,,,,,,,,,,,,,,,,,,,700.7082740199985,700.7170840030012,701.7184832919993,702.7184826599987,702.7184826599987,702.7184826599987,703.8524391419996,left,1.1260614739985613,None,,,,,,,,010386,001,2024-11-28_11h30.59.339,Test,2024.2.1,60.049745208031936,2024-11-28 11h31.10.906883 +0100,
,,,,,,,,,,,,,,,,,,,,,,,,,,,,,,,,,,,,,,,,,,,,,,,,,,,,,,,,,,,,,,,,,,,,,,,,,,,,,,,,,,,,,,,,,,,,,,,,,,,,,,,,,,,,,,,,703.8526095359994,703.8681050560008,703.8681050560008,707.8063432060007,space,3.9347978879995935,None,010386,001,2024-11-28_11h30.59.339,Test,2024.2.1,60.049745208031936,2024-11-28 11h31.10.906883 +0100,
