Trial_Number,Exposure_Duration,Displacement_Angle,Stimulus,Response,thisN,thisTrialN,thisRepN,Is_Distractor,key_resp_3.keys,key_resp_3.rt,key_resp_3.duration,key_resp_7.keys,key_resp_7.rt,key_resp_7.duration,trials.thisRepN,trials.thisTrialN,trials.thisN,trials.thisIndex,trials_2.thisRepN,trials_2.thisTrialN,trials_2.thisN,trials_2.thisIndex,trials_3.thisRepN,trials_3.thisTrialN,trials_3.thisN,trials_3.thisIndex,trials_4.thisRepN,trials_4.thisTrialN,trials_4.thisN,trials_4.thisIndex,thisRow.t,notes,Intro_to_experiment.started,important1_2.started,key_resp_8.started,Intro_to_experiment.stopped,key_resp_8.keys,key_resp_8.rt,key_resp_8.duration,important.started,important1.started,key_resp_4.started,important.stopped,key_resp_4.keys,key_resp_4.rt,key_resp_4.duration,training_instruction.started,key_resp_9.started,important1_3.started,training_instruction.stopped,key_resp_9.keys,key_resp_9.rt,key_resp_9.duration,training_trial.started,cross.started,image.started,aperture.started,cross.stopped,image.stopped,aperture.stopped,training_trial.stopped,New_instruction.started,text.started,key_resp_2.started,New_instruction.stopped,key_resp_2.keys,key_resp_2.rt,key_resp_2.duration,test_trial.started,cross2.started,cross2.stopped,image_2.started,key_resp_3.started,aperture_2.started,test_trial.stopped,trials_2.key_resp_3.keys,trials_2.key_resp_3.rt,trials_2.key_resp_3.duration,start_blok_2.started,key_resp_5.started,text_4.started,start_blok_2.stopped,key_resp_5.keys,key_resp_5.rt,key_resp_5.duration,training_2.started,cross_2.started,image_3.started,aperture_3.started,cross_2.stopped,image_3.stopped,aperture_3.stopped,training_2.stopped,nyeste_instruks.started,text_5.started,key_resp_6.started,nyeste_instruks.stopped,key_resp_6.keys,key_resp_6.rt,key_resp_6.duration,test_2.started,cross2_2.started,cross2_2.stopped,image_4.started,key_resp_7.started,aperture_4.started,test_2.stopped,trials_4.key_resp_7.keys,trials_4.key_resp_7.rt,trials_4.key_resp_7.duration,image_4.stopped,aperture_4.stopped,text_6.started,Instruction.started,Instruktion.started,key_resp.started,Instruction.stopped,key_resp.keys,key_resp.rt,key_resp.duration,participant,session,date,expName,psychopyVersion,frameRate,expStart,
,,,,,,,,,,,,,,,,,,,,,,,,,,,,,,,,,0.02932554201106541,0.043819749989779666,0.043819749989779666,20.40086983301444,space,20.313607457996113,None,,,,,,,,,,,,,,,,,,,,,,,,,,,,,,,,,,,,,,,,,,,,,,,,,,,,,,,,,,,,,,,,,,,,,,,,,,,,,,,,,,014388,001,2024-11-28_14h18.23.035,Test,2024.2.4,None,2024-11-28 14h18.33.964327 +0100,
,,,,,,,,,,,,,,,,,,,,,,,,,,,,,,,,,,,,,,,,20.400958832993638,20.439638707990525,20.439638707990525,44.097450500004925,space,23.653653792018304,None,,,,,,,,,,,,,,,,,,,,,,,,,,,,,,,,,,,,,,,,,,,,,,,,,,,,,,,,,,,,,,,,,,,,,,,,,,,014388,001,2024-11-28_14h18.23.035,Test,2024.2.4,None,2024-11-28 14h18.33.964327 +0100,
,,,,,,,,,,,,,,,,,,,,,,,,,,,,,,,,,,,,,,,,,,,,,,,44.09755283300183,44.125304374989355,44.125304374989355,60.43709320799098,space,16.309666124987416,None,,,,,,,,,,,,,,,,,,,,,,,,,,,,,,,,,,,,,,,,,,,,,,,,,,,,,,,,,,,,,,,,,,,,014388,001,2024-11-28_14h18.23.035,Test,2024.2.4,None,2024-11-28 14h18.33.964327 +0100,
8,150,30,67,None,0,0,0,,,,,,,,0,0,0,7,,,,,,,,,,,,,60.47839620799641,,,,,,,,,,,,,,,,,,,,,,,60.46979466700577,60.47839620799641,60.63580704201013,60.63580704201013,60.66716133299633,62.33335487500881,62.33335487500881,62.31908600000315,,,,,,,,,,,,,,,,,,,,,,,,,,,,,,,,,,,,,,,,,,,,,,,,,,,,,,,,,,,,014388,001,2024-11-28_14h18.23.035,Test,2024.2.4,None,2024-11-28 14h18.33.964327 +0100,
10,150,30,29,None,1,1,0,,,,,,,,0,1,1,9,,,,,,,,,,,,,62.33335487500881,,,,,,,,,,,,,,,,,,,,,,,62.32902679199469,62.345063000015216,62.535548582993215,62.535548582993215,62.535548582993215,64.23323262500344,64.23323262500344,64.21880166701158,,,,,,,,,,,,,,,,,,,,,,,,,,,,,,,,,,,,,,,,,,,,,,,,,,,,,,,,,,,,014388,001,2024-11-28_14h18.23.035,Test,2024.2.4,None,2024-11-28 14h18.33.964327 +0100,
32,150,180,58,None,2,2,0,,,,,,,,0,2,2,31,,,,,,,,,,,,,64.23323262500344,,,,,,,,,,,,,,,,,,,,,,,64.22840262501268,64.24518633299158,64.43741741700796,64.43741741700796,64.43741741700796,66.14474383299239,66.14474383299239,66.12984433301608,,,,,,,,,,,,,,,,,,,,,,,,,,,,,,,,,,,,,,,,,,,,,,,,,,,,,,,,,,,,014388,001,2024-11-28_14h18.23.035,Test,2024.2.4,None,2024-11-28 14h18.33.964327 +0100,
18,150,90,52,None,3,3,0,,,,,,,,0,3,3,17,,,,,,,,,,,,,66.14474383299239,,,,,,,,,,,,,,,,,,,,,,,66.13934679201338,66.14474383299239,66.33554150001146,66.33554150001146,66.33554150001146,68.03276624999125,68.03276624999125,68.01874220799073,,,,,,,,,,,,,,,,,,,,,,,,,,,,,,,,,,,,,,,,,,,,,,,,,,,,,,,,,,,,014388,001,2024-11-28_14h18.23.035,Test,2024.2.4,None,2024-11-28 14h18.33.964327 +0100,
20,150,90,36,None,4,4,0,,,,,,,,0,4,4,19,,,,,,,,,,,,,68.03276624999125,,,,,,,,,,,,,,,,,,,,,,,68.0278385420097,68.04516366700409,68.2355996670085,68.2355996670085,68.2355996670085,69.94472516700625,69.94472516700625,69.9294071670156,,,,,,,,,,,,,,,,,,,,,,,,,,,,,,,,,,,,,,,,,,,,,,,,,,,,,,,,,,,,014388,001,2024-11-28_14h18.23.035,Test,2024.2.4,None,2024-11-28 14h18.33.964327 +0100,
23,150,120,6,None,5,5,0,,,,,,,,0,5,5,22,,,,,,,,,,,,,69.94472516700625,,,,,,,,,,,,,,,,,,,,,,,69.93984629199258,69.94472516700625,70.13545391699881,70.13545391699881,70.13545391699881,71.83162137499312,71.83162137499312,71.81920816699858,,,,,,,,,,,,,,,,,,,,,,,,,,,,,,,,,,,,,,,,,,,,,,,,,,,,,,,,,,,,014388,001,2024-11-28_14h18.23.035,Test,2024.2.4,None,2024-11-28 14h18.33.964327 +0100,
11,150,60,63,None,6,6,0,,,,,,,,0,6,6,10,,,,,,,,,,,,,71.83162137499312,,,,,,,,,,,,,,,,,,,,,,,71.82733400000143,71.84545441699447,72.03574762499193,72.03574762499193,72.03574762499193,73.73430912499316,73.73430912499316,73.71969833300682,,,,,,,,,,,,,,,,,,,,,,,,,,,,,,,,,,,,,,,,,,,,,,,,,,,,,,,,,,,,014388,001,2024-11-28_14h18.23.035,Test,2024.2.4,None,2024-11-28 14h18.33.964327 +0100,
4,150,0,45,None,7,7,0,,,,,,,,0,7,7,3,,,,,,,,,,,,,73.73430912499316,,,,,,,,,,,,,,,,,,,,,,,73.72920695799985,73.7452320420125,73.93519991700305,73.93519991700305,73.93519991700305,75.63136858301004,75.63136858301004,75.61837845799164,,,,,,,,,,,,,,,,,,,,,,,,,,,,,,,,,,,,,,,,,,,,,,,,,,,,,,,,,,,,014388,001,2024-11-28_14h18.23.035,Test,2024.2.4,None,2024-11-28 14h18.33.964327 +0100,
6,150,30,40,None,8,8,0,,,,,,,,0,8,8,5,,,,,,,,,,,,,75.63136858301004,,,,,,,,,,,,,,,,,,,,,,,75.62688979200902,75.64505641700816,75.83626091701444,75.83626091701444,75.83626091701444,77.5434691249975,77.5434691249975,77.52953450000496,,,,,,,,,,,,,,,,,,,,,,,,,,,,,,,,,,,,,,,,,,,,,,,,,,,,,,,,,,,,014388,001,2024-11-28_14h18.23.035,Test,2024.2.4,None,2024-11-28 14h18.33.964327 +0100,
12,150,60,60,None,9,9,0,,,,,,,,0,9,9,11,,,,,,,,,,,,,77.5434691249975,,,,,,,,,,,,,,,,,,,,,,,77.53814654200687,77.5434691249975,77.73512850000407,77.73512850000407,77.73512850000407,79.4312205830065,79.4312205830065,79.41863329199259,,,,,,,,,,,,,,,,,,,,,,,,,,,,,,,,,,,,,,,,,,,,,,,,,,,,,,,,,,,,014388,001,2024-11-28_14h18.23.035,Test,2024.2.4,None,2024-11-28 14h18.33.964327 +0100,
13,150,60,53,None,10,10,0,,,,,,,,0,10,10,12,,,,,,,,,,,,,79.4312205830065,,,,,,,,,,,,,,,,,,,,,,,79.42690150000271,79.44525670801522,79.63562787498813,79.63562787498813,79.63562787498813,81.33168624999234,81.33168624999234,81.31882145800046,,,,,,,,,,,,,,,,,,,,,,,,,,,,,,,,,,,,,,,,,,,,,,,,,,,,,,,,,,,,014388,001,2024-11-28_14h18.23.035,Test,2024.2.4,None,2024-11-28 14h18.33.964327 +0100,
14,150,60,48,None,11,11,0,,,,,,,,0,11,11,13,,,,,,,,,,,,,81.33168624999234,,,,,,,,,,,,,,,,,,,,,,,81.32729312501033,81.34520375001011,81.53550100000575,81.53550100000575,81.53550100000575,83.24401883300743,83.24401883300743,83.22962779199588,,,,,,,,,,,,,,,,,,,,,,,,,,,,,,,,,,,,,,,,,,,,,,,,,,,,,,,,,,,,014388,001,2024-11-28_14h18.23.035,Test,2024.2.4,None,2024-11-28 14h18.33.964327 +0100,
5,150,0,30,None,12,12,0,,,,,,,,0,12,12,4,,,,,,,,,,,,,83.24401883300743,,,,,,,,,,,,,,,,,,,,,,,83.23864658299135,83.24401883300743,83.4351633329934,83.4351633329934,83.4351633329934,85.13109849998727,85.13109849998727,85.11857087499811,,,,,,,,,,,,,,,,,,,,,,,,,,,,,,,,,,,,,,,,,,,,,,,,,,,,,,,,,,,,014388,001,2024-11-28_14h18.23.035,Test,2024.2.4,None,2024-11-28 14h18.33.964327 +0100,
29,150,150,38,None,13,13,0,,,,,,,,0,13,13,28,,,,,,,,,,,,,85.13109849998727,,,,,,,,,,,,,,,,,,,,,,,85.12706795800477,85.14529775001574,85.33552741698804,85.33552741698804,85.33552741698804,87.03137608300312,87.03137608300312,87.0189660830074,,,,,,,,,,,,,,,,,,,,,,,,,,,,,,,,,,,,,,,,,,,,,,,,,,,,,,,,,,,,014388,001,2024-11-28_14h18.23.035,Test,2024.2.4,None,2024-11-28 14h18.33.964327 +0100,
34,150,180,23,None,14,14,0,,,,,,,,0,14,14,33,,,,,,,,,,,,,87.03137608300312,,,,,,,,,,,,,,,,,,,,,,,87.02687495801365,87.04512141700252,87.23512812500121,87.23512812500121,87.23512812500121,88.9314069999964,88.9314069999964,88.91856550000375,,,,,,,,,,,,,,,,,,,,,,,,,,,,,,,,,,,,,,,,,,,,,,,,,,,,,,,,,,,,014388,001,2024-11-28_14h18.23.035,Test,2024.2.4,None,2024-11-28 14h18.33.964327 +0100,
24,150,120,20,None,15,15,0,,,,,,,,0,15,15,23,,,,,,,,,,,,,88.9314069999964,,,,,,,,,,,,,,,,,,,,,,,88.92708279201179,88.94518570799846,89.13678804200026,89.13678804200026,89.13678804200026,90.84315279198927,90.84315279198927,90.8296534580004,,,,,,,,,,,,,,,,,,,,,,,,,,,,,,,,,,,,,,,,,,,,,,,,,,,,,,,,,,,,014388,001,2024-11-28_14h18.23.035,Test,2024.2.4,None,2024-11-28 14h18.33.964327 +0100,
22,150,120,32,None,16,16,0,,,,,,,,0,16,16,21,,,,,,,,,,,,,90.84315279198927,,,,,,,,,,,,,,,,,,,,,,,90.83778150001308,90.84315279198927,91.0356847080111,91.0356847080111,91.0356847080111,92.73062691700761,92.73062691700761,92.71880866700667,,,,,,,,,,,,,,,,,,,,,,,,,,,,,,,,,,,,,,,,,,,,,,,,,,,,,,,,,,,,014388,001,2024-11-28_14h18.23.035,Test,2024.2.4,None,2024-11-28 14h18.33.964327 +0100,
19,150,90,43,None,17,17,0,,,,,,,,0,17,17,18,,,,,,,,,,,,,92.73062691700761,,,,,,,,,,,,,,,,,,,,,,,92.72608837499865,92.74520775000565,92.93495091699879,92.93495091699879,92.93495091699879,94.64439100000891,94.64439100000891,94.62964820800698,,,,,,,,,,,,,,,,,,,,,,,,,,,,,,,,,,,,,,,,,,,,,,,,,,,,,,,,,,,,014388,001,2024-11-28_14h18.23.035,Test,2024.2.4,None,2024-11-28 14h18.33.964327 +0100,
26,150,150,37,None,18,18,0,,,,,,,,0,18,18,25,,,,,,,,,,,,,94.64439100000891,,,,,,,,,,,,,,,,,,,,,,,94.63863783300621,94.64439100000891,94.83547541699954,94.83547541699954,94.83547541699954,96.53143183299107,96.53143183299107,96.51873012501164,,,,,,,,,,,,,,,,,,,,,,,,,,,,,,,,,,,,,,,,,,,,,,,,,,,,,,,,,,,,014388,001,2024-11-28_14h18.23.035,Test,2024.2.4,None,2024-11-28 14h18.33.964327 +0100,
27,150,150,46,None,19,19,0,,,,,,,,0,19,19,26,,,,,,,,,,,,,96.53143183299107,,,,,,,,,,,,,,,,,,,,,,,96.52705662499648,96.54516337500536,96.73530862500775,96.73530862500775,96.73530862500775,98.43170895799994,98.43170895799994,98.4190454169875,,,,,,,,,,,,,,,,,,,,,,,,,,,,,,,,,,,,,,,,,,,,,,,,,,,,,,,,,,,,014388,001,2024-11-28_14h18.23.035,Test,2024.2.4,None,2024-11-28 14h18.33.964327 +0100,
9,150,30,64,None,20,20,0,,,,,,,,0,20,20,8,,,,,,,,,,,,,98.43170895799994,,,,,,,,,,,,,,,,,,,,,,,98.42749787500361,98.44546354201157,98.63564791699173,98.63564791699173,98.63564791699173,100.33244691698928,100.33244691698928,100.31913937500212,,,,,,,,,,,,,,,,,,,,,,,,,,,,,,,,,,,,,,,,,,,,,,,,,,,,,,,,,,,,014388,001,2024-11-28_14h18.23.035,Test,2024.2.4,None,2024-11-28 14h18.33.964327 +0100,
21,150,120,56,None,21,21,0,,,,,,,,0,21,21,20,,,,,,,,,,,,,100.33244691698928,,,,,,,,,,,,,,,,,,,,,,,100.32752020799671,100.34529766699416,100.53571912500774,100.53571912500774,100.53571912500774,102.23146541698952,102.23146541698952,102.21881270801532,,,,,,,,,,,,,,,,,,,,,,,,,,,,,,,,,,,,,,,,,,,,,,,,,,,,,,,,,,,,014388,001,2024-11-28_14h18.23.035,Test,2024.2.4,None,2024-11-28 14h18.33.964327 +0100,
7,150,30,5,None,22,22,0,,,,,,,,0,22,22,6,,,,,,,,,,,,,102.23146541698952,,,,,,,,,,,,,,,,,,,,,,,102.22704995798995,102.24538137498894,102.43518733300152,102.43518733300152,102.43518733300152,104.13289300000179,104.13289300000179,104.11890812500496,,,,,,,,,,,,,,,,,,,,,,,,,,,,,,,,,,,,,,,,,,,,,,,,,,,,,,,,,,,,014388,001,2024-11-28_14h18.23.035,Test,2024.2.4,None,2024-11-28 14h18.33.964327 +0100,
1,150,0,55,None,23,23,0,,,,,,,,0,23,23,0,,,,,,,,,,,,,104.13289300000179,,,,,,,,,,,,,,,,,,,,,,,104.12840454198886,104.14526091699372,104.33571000001393,104.33571000001393,104.33571000001393,106.04274591698777,106.04274591698777,106.02957908299868,,,,,,,,,,,,,,,,,,,,,,,,,,,,,,,,,,,,,,,,,,,,,,,,,,,,,,,,,,,,014388,001,2024-11-28_14h18.23.035,Test,2024.2.4,None,2024-11-28 14h18.33.964327 +0100,
35,150,180,13,None,24,24,0,,,,,,,,0,24,24,34,,,,,,,,,,,,,106.04274591698777,,,,,,,,,,,,,,,,,,,,,,,106.03752524999436,106.04274591698777,106.23554316701484,106.23554316701484,106.23554316701484,107.930870125012,107.930870125012,107.9187910000037,,,,,,,,,,,,,,,,,,,,,,,,,,,,,,,,,,,,,,,,,,,,,,,,,,,,,,,,,,,,014388,001,2024-11-28_14h18.23.035,Test,2024.2.4,None,2024-11-28 14h18.33.964327 +0100,
30,150,150,9,None,25,25,0,,,,,,,,0,25,25,29,,,,,,,,,,,,,107.930870125012,,,,,,,,,,,,,,,,,,,,,,,107.92636833299184,107.94521320800413,108.13584249999258,108.13584249999258,108.13584249999258,109.84221699999762,109.84221699999762,109.8292645830079,,,,,,,,,,,,,,,,,,,,,,,,,,,,,,,,,,,,,,,,,,,,,,,,,,,,,,,,,,,,014388,001,2024-11-28_14h18.23.035,Test,2024.2.4,None,2024-11-28 14h18.33.964327 +0100,
3,150,0,10,None,26,26,0,,,,,,,,0,26,26,2,,,,,,,,,,,,,109.84221699999762,,,,,,,,,,,,,,,,,,,,,,,109.83687891700538,109.84221699999762,110.03477900000871,110.03477900000871,110.03477900000871,111.73118783300743,111.73118783300743,111.71900220800308,,,,,,,,,,,,,,,,,,,,,,,,,,,,,,,,,,,,,,,,,,,,,,,,,,,,,,,,,,,,014388,001,2024-11-28_14h18.23.035,Test,2024.2.4,None,2024-11-28 14h18.33.964327 +0100,
28,150,150,42,None,27,27,0,,,,,,,,0,27,27,27,,,,,,,,,,,,,111.73118783300743,,,,,,,,,,,,,,,,,,,,,,,111.72675345800235,111.7451297499938,111.93560370799969,111.93560370799969,111.93560370799969,113.64384204198723,113.64384204198723,113.62978529199609,,,,,,,,,,,,,,,,,,,,,,,,,,,,,,,,,,,,,,,,,,,,,,,,,,,,,,,,,,,,014388,001,2024-11-28_14h18.23.035,Test,2024.2.4,None,2024-11-28 14h18.33.964327 +0100,
25,150,120,65,None,28,28,0,,,,,,,,0,28,28,24,,,,,,,,,,,,,113.64384204198723,,,,,,,,,,,,,,,,,,,,,,,113.63841916699312,113.64384204198723,113.83527987499838,113.83527987499838,113.83527987499838,115.54344979199232,115.54344979199232,115.52992558298865,,,,,,,,,,,,,,,,,,,,,,,,,,,,,,,,,,,,,,,,,,,,,,,,,,,,,,,,,,,,014388,001,2024-11-28_14h18.23.035,Test,2024.2.4,None,2024-11-28 14h18.33.964327 +0100,
31,150,180,41,None,29,29,0,,,,,,,,0,29,29,30,,,,,,,,,,,,,115.54344979199232,,,,,,,,,,,,,,,,,,,,,,,115.53800883301301,115.54344979199232,115.7355331669969,115.7355331669969,115.7355331669969,117.43106629198883,117.43106629198883,117.41875874999096,,,,,,,,,,,,,,,,,,,,,,,,,,,,,,,,,,,,,,,,,,,,,,,,,,,,,,,,,,,,014388,001,2024-11-28_14h18.23.035,Test,2024.2.4,None,2024-11-28 14h18.33.964327 +0100,
17,150,90,54,None,30,30,0,,,,,,,,0,30,30,16,,,,,,,,,,,,,117.43106629198883,,,,,,,,,,,,,,,,,,,,,,,117.42667541699484,117.44545704199118,117.63565029200981,117.63565029200981,117.63565029200981,119.33065154199721,119.33065154199721,119.31892933300696,,,,,,,,,,,,,,,,,,,,,,,,,,,,,,,,,,,,,,,,,,,,,,,,,,,,,,,,,,,,014388,001,2024-11-28_14h18.23.035,Test,2024.2.4,None,2024-11-28 14h18.33.964327 +0100,
2,150,0,18,None,31,31,0,,,,,,,,0,31,31,1,,,,,,,,,,,,,119.33065154199721,,,,,,,,,,,,,,,,,,,,,,,119.32617266700254,119.3453014169936,119.53524395800196,119.53524395800196,119.53524395800196,121.23088837499381,121.23088837499381,121.21850341701065,,,,,,,,,,,,,,,,,,,,,,,,,,,,,,,,,,,,,,,,,,,,,,,,,,,,,,,,,,,,014388,001,2024-11-28_14h18.23.035,Test,2024.2.4,None,2024-11-28 14h18.33.964327 +0100,
15,150,60,12,None,32,32,0,,,,,,,,0,32,32,14,,,,,,,,,,,,,121.23088837499381,,,,,,,,,,,,,,,,,,,,,,,121.22647270798916,121.24513175000902,121.43563629200798,121.43563629200798,121.43563629200798,123.13183391699567,123.13183391699567,123.11878670801525,,,,,,,,,,,,,,,,,,,,,,,,,,,,,,,,,,,,,,,,,,,,,,,,,,,,,,,,,,,,014388,001,2024-11-28_14h18.23.035,Test,2024.2.4,None,2024-11-28 14h18.33.964327 +0100,
16,150,90,66,None,33,33,0,,,,,,,,0,33,33,15,,,,,,,,,,,,,123.13183391699567,,,,,,,,,,,,,,,,,,,,,,,123.12731387501117,123.14545762501075,123.33537320801406,123.33537320801406,123.33537320801406,125.0315673330042,125.0315673330042,125.01874570798827,,,,,,,,,,,,,,,,,,,,,,,,,,,,,,,,,,,,,,,,,,,,,,,,,,,,,,,,,,,,014388,001,2024-11-28_14h18.23.035,Test,2024.2.4,None,2024-11-28 14h18.33.964327 +0100,
33,150,180,62,None,34,34,0,,,,,,,,0,34,34,32,,,,,,,,,,,,,125.0315673330042,,,,,,,,,,,,,,,,,,,,,,,125.02753366698744,125.04527870801394,125.23606637501507,125.23606637501507,125.23606637501507,126.93770104201394,126.93770104201394,126.92969166699913,,,,,,,,,,,,,,,,,,,,,,,,,,,,,,,,,,,,,,,,,,,,,,,,,,,,,,,,,,,,014388,001,2024-11-28_14h18.23.035,Test,2024.2.4,None,2024-11-28 14h18.33.964327 +0100,
,,,,,,,,,,,,,,,,,,,,,,,,,,,,,,,,,,,,,,,,,,,,,,,,,,,,,,,,,,,,,,126.92994083301164,126.93770104201394,126.93770104201394,129.59335745801218,space,2.6415027920156717,None,,,,,,,,,,,,,,,,,,,,,,,,,,,,,,,,,,,,,,,,,,,,,,,,,,,,,014388,001,2024-11-28_14h18.23.035,Test,2024.2.4,None,2024-11-28 14h18.33.964327 +0100,
41,150,30,11,None,0,0,0,True,right,1.4650942500156816,None,,,,,,,,0,0,0,0,,,,,,,,,129.6134135420143,,,,,,,,,,,,,,,,,,,,,,,,,,,,,,,,,,,,,,129.60854145800113,129.6134135420143,130.61183783301385,131.58611000000383,131.58611000000383,131.58611000000383,133.0543272079958,right,1.4650942500156816,None,,,,,,,,,,,,,,,,,,,,,,,,,,,,,,,,,,,,,,,,,,,014388,001,2024-11-28_14h18.23.035,Test,2024.2.4,None,2024-11-28 14h18.33.964327 +0100,
34,150,180,23,None,1,1,0,False,right,1.6330100829945877,None,,,,,,,,0,1,1,1,,,,,,,,,133.09213070801343,,,,,,,,,,,,,,,,,,,,,,,,,,,,,,,,,,,,,,133.06220775001566,133.09213070801343,134.08388895800454,135.05229099999997,135.05229099999997,135.05229099999997,136.69585008299327,right,1.6330100829945877,None,,,,,,,,,,,,,,,,,,,,,,,,,,,,,,,,,,,,,,,,,,,014388,001,2024-11-28_14h18.23.035,Test,2024.2.4,None,2024-11-28 14h18.33.964327 +0100,
45,150,30,50,None,2,2,0,True,left,0.912769999995362,None,,,,,,,,0,2,2,2,,,,,,,,,136.70855120799388,,,,,,,,,,,,,,,,,,,,,,,,,,,,,,,,,,,,,,136.70376737500192,136.70855120799388,137.70068516701576,138.6859079170099,138.6859079170099,138.6859079170099,139.60431875000359,left,0.912769999995362,None,,,,,,,,,,,,,,,,,,,,,,,,,,,,,,,,,,,,,,,,,,,014388,001,2024-11-28_14h18.23.035,Test,2024.2.4,None,2024-11-28 14h18.33.964327 +0100,
14,150,60,48,None,3,3,0,False,left,1.0363469590083696,None,,,,,,,,0,3,3,3,,,,,,,,,139.6194733750017,,,,,,,,,,,,,,,,,,,,,,,,,,,,,,,,,,,,,,139.61296583298827,139.6194733750017,140.61647729200195,141.60224295800435,141.60224295800435,141.60224295800435,142.64740520800115,left,1.0363469590083696,None,,,,,,,,,,,,,,,,,,,,,,,,,,,,,,,,,,,,,,,,,,,014388,001,2024-11-28_14h18.23.035,Test,2024.2.4,None,2024-11-28 14h18.33.964327 +0100,
57,150,120,70,None,4,4,0,True,right,1.2890620410034899,None,,,,,,,,0,4,4,4,,,,,,,,,142.66203379200306,,,,,,,,,,,,,,,,,,,,,,,,,,,,,,,,,,,,,,142.65541462501278,142.66203379200306,143.65060074999928,144.64547041698825,144.64547041698825,144.64547041698825,145.93679929201608,right,1.2890620410034899,None,,,,,,,,,,,,,,,,,,,,,,,,,,,,,,,,,,,,,,,,,,,014388,001,2024-11-28_14h18.23.035,Test,2024.2.4,None,2024-11-28 14h18.33.964327 +0100,
50,150,60,1,None,5,5,0,True,left,0.9516576250025537,None,,,,,,,,0,5,5,5,,,,,,,,,145.9520568329899,,,,,,,,,,,,,,,,,,,,,,,,,,,,,,,,,,,,,,145.94522341698757,145.9520568329899,146.95019224999123,147.93580616699182,147.93580616699182,147.93580616699182,148.89737062499626,left,0.9516576250025537,None,,,,,,,,,,,,,,,,,,,,,,,,,,,,,,,,,,,,,,,,,,,014388,001,2024-11-28_14h18.23.035,Test,2024.2.4,None,2024-11-28 14h18.33.964327 +0100,
33,150,180,62,None,6,6,0,False,left,1.5235234169813339,None,,,,,,,,0,6,6,6,,,,,,,,,148.91164420801215,,,,,,,,,,,,,,,,,,,,,,,,,,,,,,,,,,,,,,148.90539212501608,148.91164420801215,149.90061054201215,150.89530616698903,150.89530616698903,150.89530616698903,152.4306268329965,left,1.5235234169813339,None,,,,,,,,,,,,,,,,,,,,,,,,,,,,,,,,,,,,,,,,,,,014388,001,2024-11-28_14h18.23.035,Test,2024.2.4,None,2024-11-28 14h18.33.964327 +0100,
54,150,90,61,None,7,7,0,True,right,0.8667129169916734,None,,,,,,,,0,7,7,7,,,,,,,,,152.44657887500944,,,,,,,,,,,,,,,,,,,,,,,,,,,,,,,,,,,,,,152.43984570799512,152.44657887500944,153.4454534999968,154.42876587499632,154.42876587499632,154.42876587499632,155.29804412499652,right,0.8667129169916734,None,,,,,,,,,,,,,,,,,,,,,,,,,,,,,,,,,,,,,,,,,,,014388,001,2024-11-28_14h18.23.035,Test,2024.2.4,None,2024-11-28 14h18.33.964327 +0100,
36,150,0,25,None,8,8,0,True,left,0.800717749982141,None,,,,,,,,0,8,8,8,,,,,,,,,155.31328566701268,,,,,,,,,,,,,,,,,,,,,,,,,,,,,,,,,,,,,,155.30676283300272,155.31328566701268,156.31191683301586,157.29534808298922,157.29534808298922,157.29534808298922,158.10670708300313,left,0.800717749982141,None,,,,,,,,,,,,,,,,,,,,,,,,,,,,,,,,,,,,,,,,,,,014388,001,2024-11-28_14h18.23.035,Test,2024.2.4,None,2024-11-28 14h18.33.964327 +0100,
64,150,150,8,None,9,9,0,True,right,1.2541099159861915,None,,,,,,,,0,9,9,9,,,,,,,,,158.11854316698737,,,,,,,,,,,,,,,,,,,,,,,,,,,,,,,,,,,,,,158.11378416701336,158.11854316698737,159.1123088329914,160.10252537499764,160.10252537499764,160.10252537499764,161.3640210420126,right,1.2541099159861915,None,,,,,,,,,,,,,,,,,,,,,,,,,,,,,,,,,,,,,,,,,,,014388,001,2024-11-28_14h18.23.035,Test,2024.2.4,None,2024-11-28 14h18.33.964327 +0100,
6,150,30,40,None,10,10,0,False,right,0.9525346250156872,None,,,,,,,,0,10,10,10,,,,,,,,,161.37743820800097,,,,,,,,,,,,,,,,,,,,,,,,,,,,,,,,,,,,,,161.37151637498755,161.37743820800097,162.36722479198943,163.3619757500128,163.3619757500128,163.3619757500128,164.32081708300393,right,0.9525346250156872,None,,,,,,,,,,,,,,,,,,,,,,,,,,,,,,,,,,,,,,,,,,,014388,001,2024-11-28_14h18.23.035,Test,2024.2.4,None,2024-11-28 14h18.33.964327 +0100,
59,150,120,14,None,11,11,0,True,right,0.9330017910106108,None,,,,,,,,0,11,11,11,,,,,,,,,164.3349771249923,,,,,,,,,,,,,,,,,,,,,,,,,,,,,,,,,,,,,,164.3292229170038,164.3349771249923,165.33329425001284,166.31904462500825,166.31904462500825,166.31904462500825,167.25415454199538,right,0.9330017910106108,None,,,,,,,,,,,,,,,,,,,,,,,,,,,,,,,,,,,,,,,,,,,014388,001,2024-11-28_14h18.23.035,Test,2024.2.4,None,2024-11-28 14h18.33.964327 +0100,
18,150,90,52,None,12,12,0,False,left,0.8187995000043884,None,,,,,,,,0,12,12,12,,,,,,,,,167.26927237500786,,,,,,,,,,,,,,,,,,,,,,,,,,,,,,,,,,,,,,167.26258737500757,167.26927237500786,168.26733712499845,169.25295237501268,169.25295237501268,169.25295237501268,170.08061025000643,left,0.8187995000043884,None,,,,,,,,,,,,,,,,,,,,,,,,,,,,,,,,,,,,,,,,,,,014388,001,2024-11-28_14h18.23.035,Test,2024.2.4,None,2024-11-28 14h18.33.964327 +0100,
53,150,90,49,None,13,13,0,True,right,1.0070103330072016,None,,,,,,,,0,13,13,13,,,,,,,,,170.09631462499965,,,,,,,,,,,,,,,,,,,,,,,,,,,,,,,,,,,,,,170.08952099998714,170.09631462499965,171.0831969580031,172.07890895800665,172.07890895800665,172.07890895800665,173.097416042001,right,1.0070103330072016,None,,,,,,,,,,,,,,,,,,,,,,,,,,,,,,,,,,,,,,,,,,,014388,001,2024-11-28_14h18.23.035,Test,2024.2.4,None,2024-11-28 14h18.33.964327 +0100,
49,150,60,19,None,14,14,0,True,left,0.7274110829748679,None,,,,,,,,0,14,14,14,,,,,,,,,173.11300745801418,,,,,,,,,,,,,,,,,,,,,,,,,,,,,,,,,,,,,,173.10615816700738,173.11300745801418,174.11196991699398,175.09535391701502,175.09535391701502,175.09535391701502,175.8308686669916,left,0.7274110829748679,None,,,,,,,,,,,,,,,,,,,,,,,,,,,,,,,,,,,,,,,,,,,014388,001,2024-11-28_14h18.23.035,Test,2024.2.4,None,2024-11-28 14h18.33.964327 +0100,
15,150,60,12,None,15,15,0,False,left,0.9433002500154544,None,,,,,,,,0,15,15,15,,,,,,,,,175.8456914999988,,,,,,,,,,,,,,,,,,,,,,,,,,,,,,,,,,,,,,175.83947800000897,175.8456914999988,176.83343762499862,177.82869441699586,177.82869441699586,177.82869441699586,178.78075608299696,left,0.9433002500154544,None,,,,,,,,,,,,,,,,,,,,,,,,,,,,,,,,,,,,,,,,,,,014388,001,2024-11-28_14h18.23.035,Test,2024.2.4,None,2024-11-28 14h18.33.964327 +0100,
46,150,60,34,None,16,16,0,True,right,0.7021353330055717,None,,,,,,,,0,16,16,16,,,,,,,,,178.80244570798823,,,,,,,,,,,,,,,,,,,,,,,,,,,,,,,,,,,,,,178.79640879199724,178.80244570798823,179.80049645798863,180.77775737500633,180.77775737500633,180.77775737500633,181.48733212499064,right,0.7021353330055717,None,,,,,,,,,,,,,,,,,,,,,,,,,,,,,,,,,,,,,,,,,,,014388,001,2024-11-28_14h18.23.035,Test,2024.2.4,None,2024-11-28 14h18.33.964327 +0100,
68,150,180,44,None,17,17,0,True,right,1.311215583991725,None,,,,,,,,0,17,17,17,,,,,,,,,181.5033040829876,,,,,,,,,,,,,,,,,,,,,,,,,,,,,,,,,,,,,,181.49721641698852,181.5033040829876,182.50044058301137,183.48569766699802,183.48569766699802,183.48569766699802,184.80386387501494,right,1.311215583991725,None,,,,,,,,,,,,,,,,,,,,,,,,,,,,,,,,,,,,,,,,,,,014388,001,2024-11-28_14h18.23.035,Test,2024.2.4,None,2024-11-28 14h18.33.964327 +0100,
47,150,60,28,None,18,18,0,True,left,1.0099928330164403,None,,,,,,,,0,18,18,18,,,,,,,,,184.8187649169995,,,,,,,,,,,,,,,,,,,,,,,,,,,,,,,,,,,,,,184.812051624991,184.8187649169995,185.81741491699358,186.80227287500747,186.80227287500747,186.80227287500747,187.81519104199833,left,1.0099928330164403,None,,,,,,,,,,,,,,,,,,,,,,,,,,,,,,,,,,,,,,,,,,,014388,001,2024-11-28_14h18.23.035,Test,2024.2.4,None,2024-11-28 14h18.33.964327 +0100,
31,150,180,41,None,19,19,0,False,right,0.8627942920138594,None,,,,,,,,0,19,19,19,,,,,,,,,187.83068824998918,,,,,,,,,,,,,,,,,,,,,,,,,,,,,,,,,,,,,,187.82387237501098,187.83068824998918,188.82854391701403,189.81206529200426,189.81206529200426,189.81206529200426,190.68071158300154,right,0.8627942920138594,None,,,,,,,,,,,,,,,,,,,,,,,,,,,,,,,,,,,,,,,,,,,014388,001,2024-11-28_14h18.23.035,Test,2024.2.4,None,2024-11-28 14h18.33.964327 +0100,
9,150,30,64,None,20,20,0,False,right,1.1869710409955587,None,,,,,,,,0,20,20,20,,,,,,,,,190.6953853330051,,,,,,,,,,,,,,,,,,,,,,,,,,,,,,,,,,,,,,190.68883162501152,190.6953853330051,191.68397137499414,192.67860870799632,192.67860870799632,192.67860870799632,193.87043195799924,right,1.1869710409955587,None,,,,,,,,,,,,,,,,,,,,,,,,,,,,,,,,,,,,,,,,,,,014388,001,2024-11-28_14h18.23.035,Test,2024.2.4,None,2024-11-28 14h18.33.964327 +0100,
61,150,150,17,None,21,21,0,True,left,0.8843688749766443,None,,,,,,,,0,21,21,21,,,,,,,,,193.8843303330068,,,,,,,,,,,,,,,,,,,,,,,,,,,,,,,,,,,,,,193.8786257079919,193.8843303330068,194.8787287499872,195.86906987501425,195.86906987501425,195.86906987501425,196.76356133300578,left,0.8843688749766443,None,,,,,,,,,,,,,,,,,,,,,,,,,,,,,,,,,,,,,,,,,,,014388,001,2024-11-28_14h18.23.035,Test,2024.2.4,None,2024-11-28 14h18.33.964327 +0100,
3,150,0,10,None,22,22,0,False,right,0.8619996249908581,None,,,,,,,,0,22,22,22,,,,,,,,,196.7791249169968,,,,,,,,,,,,,,,,,,,,,,,,,,,,,,,,,,,,,,196.77240666700527,196.7791249169968,197.76761354200426,198.76206662500044,198.76206662500044,198.76206662500044,199.6307659999875,right,0.8619996249908581,None,,,,,,,,,,,,,,,,,,,,,,,,,,,,,,,,,,,,,,,,,,,014388,001,2024-11-28_14h18.23.035,Test,2024.2.4,None,2024-11-28 14h18.33.964327 +0100,
67,150,180,31,None,23,23,0,True,left,1.0668351670028642,None,,,,,,,,0,23,23,23,,,,,,,,,199.6467487080081,,,,,,,,,,,,,,,,,,,,,,,,,,,,,,,,,,,,,,199.6398812920088,199.6467487080081,200.64525029200013,201.6287778330152,201.6287778330152,201.6287778330152,202.69873108301545,left,1.0668351670028642,None,,,,,,,,,,,,,,,,,,,,,,,,,,,,,,,,,,,,,,,,,,,014388,001,2024-11-28_14h18.23.035,Test,2024.2.4,None,2024-11-28 14h18.33.964327 +0100,
2,150,0,18,None,24,24,0,False,right,0.6473517080012243,None,,,,,,,,0,24,24,24,,,,,,,,,202.7132906249899,,,,,,,,,,,,,,,,,,,,,,,,,,,,,,,,,,,,,,202.70744175001164,202.7132906249899,203.71198699998786,204.6953712500108,204.6953712500108,204.6953712500108,205.34742366700084,right,0.6473517080012243,None,,,,,,,,,,,,,,,,,,,,,,,,,,,,,,,,,,,,,,,,,,,014388,001,2024-11-28_14h18.23.035,Test,2024.2.4,None,2024-11-28 14h18.33.964327 +0100,
32,150,180,58,None,25,25,0,False,right,0.9416826670058072,None,,,,,,,,0,25,25,25,,,,,,,,,205.3618185830128,,,,,,,,,,,,,,,,,,,,,,,,,,,,,,,,,,,,,,205.3559260829934,205.3618185830128,206.351460957987,207.3457345830102,207.3457345830102,207.3457345830102,208.29736975001288,right,0.9416826670058072,None,,,,,,,,,,,,,,,,,,,,,,,,,,,,,,,,,,,,,,,,,,,014388,001,2024-11-28_14h18.23.035,Test,2024.2.4,None,2024-11-28 14h18.33.964327 +0100,
40,150,0,33,None,26,26,0,True,right,0.8508830420032609,None,,,,,,,,0,26,26,26,,,,,,,,,208.31284587501432,,,,,,,,,,,,,,,,,,,,,,,,,,,,,,,,,,,,,,208.30610554199666,208.31284587501432,209.30020729199168,210.2952379579947,210.2952379579947,210.2952379579947,211.1569857079885,right,0.8508830420032609,None,,,,,,,,,,,,,,,,,,,,,,,,,,,,,,,,,,,,,,,,,,,014388,001,2024-11-28_14h18.23.035,Test,2024.2.4,None,2024-11-28 14h18.33.964327 +0100,
70,150,180,26,None,27,27,0,True,left,1.1104495829786174,None,,,,,,,,0,27,27,27,,,,,,,,,211.16904437501216,,,,,,,,,,,,,,,,,,,,,,,,,,,,,,,,,,,,,,211.1643860420154,211.16904437501216,212.1665483750112,213.1516600830073,213.1516600830073,213.1516600830073,214.26433737500338,left,1.1104495829786174,None,,,,,,,,,,,,,,,,,,,,,,,,,,,,,,,,,,,,,,,,,,,014388,001,2024-11-28_14h18.23.035,Test,2024.2.4,None,2024-11-28 14h18.33.964327 +0100,
20,150,90,36,None,28,28,0,False,right,0.983720334013924,None,,,,,,,,0,28,28,28,,,,,,,,,214.28019595801015,,,,,,,,,,,,,,,,,,,,,,,,,,,,,,,,,,,,,,214.27357283301535,214.28019595801015,215.2786073749885,216.2621765829972,216.2621765829972,216.2621765829972,217.2563457500073,right,0.983720334013924,None,,,,,,,,,,,,,,,,,,,,,,,,,,,,,,,,,,,,,,,,,,,014388,001,2024-11-28_14h18.23.035,Test,2024.2.4,None,2024-11-28 14h18.33.964327 +0100,
7,150,30,5,None,29,29,0,False,right,0.9555511669896077,None,,,,,,,,0,29,29,29,,,,,,,,,217.2689135420078,,,,,,,,,,,,,,,,,,,,,,,,,,,,,,,,,,,,,,217.26387608301593,217.2689135420078,218.2671619169996,219.2525908749958,219.2525908749958,219.2525908749958,220.21436725000967,right,0.9555511669896077,None,,,,,,,,,,,,,,,,,,,,,,,,,,,,,,,,,,,,,,,,,,,014388,001,2024-11-28_14h18.23.035,Test,2024.2.4,None,2024-11-28 14h18.33.964327 +0100,
39,150,0,27,None,30,30,0,True,right,1.0338833339919802,None,,,,,,,,0,30,30,30,,,,,,,,,220.22969574999297,,,,,,,,,,,,,,,,,,,,,,,,,,,,,,,,,,,,,,220.22300337499473,220.22969574999297,221.2285315420013,222.212132457993,222.212132457993,222.212132457993,223.2564289169968,right,1.0338833339919802,None,,,,,,,,,,,,,,,,,,,,,,,,,,,,,,,,,,,,,,,,,,,014388,001,2024-11-28_14h18.23.035,Test,2024.2.4,None,2024-11-28 14h18.33.964327 +0100,
21,150,120,56,None,31,31,0,False,right,1.3272279580123723,None,,,,,,,,0,31,31,31,,,,,,,,,223.26817920801113,,,,,,,,,,,,,,,,,,,,,,,,,,,,,,,,,,,,,,223.2634394170018,223.26817920801113,224.2618439999933,225.252170791995,225.252170791995,225.252170791995,226.5907903329935,right,1.3272279580123723,None,,,,,,,,,,,,,,,,,,,,,,,,,,,,,,,,,,,,,,,,,,,014388,001,2024-11-28_14h18.23.035,Test,2024.2.4,None,2024-11-28 14h18.33.964327 +0100,
27,150,150,46,None,32,32,0,False,left,1.3375324580119923,None,,,,,,,,0,32,32,32,,,,,,,,,226.60280262501328,,,,,,,,,,,,,,,,,,,,,,,,,,,,,,,,,,,,,,226.59799104201375,226.60280262501328,227.6000449580024,228.58626695800922,228.58626695800922,228.58626695800922,229.9305457920127,left,1.3375324580119923,None,,,,,,,,,,,,,,,,,,,,,,,,,,,,,,,,,,,,,,,,,,,014388,001,2024-11-28_14h18.23.035,Test,2024.2.4,None,2024-11-28 14h18.33.964327 +0100,
5,150,0,30,None,33,33,0,False,right,1.1301471250189934,None,,,,,,,,0,33,33,33,,,,,,,,,229.9453514170018,,,,,,,,,,,,,,,,,,,,,,,,,,,,,,,,,,,,,,229.93908124999143,229.9453514170018,230.9330435830052,231.92876949999481,231.92876949999481,231.92876949999481,233.06464749999577,right,1.1301471250189934,None,,,,,,,,,,,,,,,,,,,,,,,,,,,,,,,,,,,,,,,,,,,014388,001,2024-11-28_14h18.23.035,Test,2024.2.4,None,2024-11-28 14h18.33.964327 +0100,
29,150,150,38,None,34,34,0,False,right,0.9051155420020223,None,,,,,,,,0,34,34,34,,,,,,,,,233.08036729201558,,,,,,,,,,,,,,,,,,,,,,,,,,,,,,,,,,,,,,233.07342858301126,233.08036729201558,234.0785869579995,235.0621897079982,235.0621897079982,235.0621897079982,235.97052458301187,right,0.9051155420020223,None,,,,,,,,,,,,,,,,,,,,,,,,,,,,,,,,,,,,,,,,,,,014388,001,2024-11-28_14h18.23.035,Test,2024.2.4,None,2024-11-28 14h18.33.964327 +0100,
35,150,180,13,None,35,35,0,False,right,0.9096204160014167,None,,,,,,,,0,35,35,35,,,,,,,,,235.98550104201422,,,,,,,,,,,,,,,,,,,,,,,,,,,,,,,,,,,,,,235.979090000008,235.98550104201422,236.97861824999563,237.9697366670007,237.9697366670007,237.9697366670007,238.88988274999429,right,0.9096204160014167,None,,,,,,,,,,,,,,,,,,,,,,,,,,,,,,,,,,,,,,,,,,,014388,001,2024-11-28_14h18.23.035,Test,2024.2.4,None,2024-11-28 14h18.33.964327 +0100,
12,150,60,60,None,36,36,0,False,right,0.7940095840021968,None,,,,,,,,0,36,36,36,,,,,,,,,238.90172937500756,,,,,,,,,,,,,,,,,,,,,,,,,,,,,,,,,,,,,,238.89698700001463,238.90172937500756,239.89533450000454,240.88589008300914,240.88589008300914,240.88589008300914,241.6871691250126,right,0.7940095840021968,None,,,,,,,,,,,,,,,,,,,,,,,,,,,,,,,,,,,,,,,,,,,014388,001,2024-11-28_14h18.23.035,Test,2024.2.4,None,2024-11-28 14h18.33.964327 +0100,
10,150,30,29,None,37,37,0,False,right,0.9759479170024861,None,,,,,,,,0,37,37,37,,,,,,,,,241.70111416699365,,,,,,,,,,,,,,,,,,,,,,,,,,,,,,,,,,,,,,241.6952229999879,241.70111416699365,242.6952280419937,243.68642487499164,243.68642487499164,243.68642487499164,244.66479183299816,right,0.9759479170024861,None,,,,,,,,,,,,,,,,,,,,,,,,,,,,,,,,,,,,,,,,,,,014388,001,2024-11-28_14h18.23.035,Test,2024.2.4,None,2024-11-28 14h18.33.964327 +0100,
58,150,120,7,None,38,38,0,True,left,0.9510041670000646,None,,,,,,,,0,38,38,38,,,,,,,,,244.67966437499854,,,,,,,,,,,,,,,,,,,,,,,,,,,,,,,,,,,,,,244.67296266701305,244.67966437499854,245.66655633298797,246.66131266701268,246.66131266701268,246.66131266701268,247.61520041699987,left,0.9510041670000646,None,,,,,,,,,,,,,,,,,,,,,,,,,,,,,,,,,,,,,,,,,,,014388,001,2024-11-28_14h18.23.035,Test,2024.2.4,None,2024-11-28 14h18.33.964327 +0100,
1,150,0,55,None,39,39,0,False,right,0.8672012500173878,None,,,,,,,,0,39,39,39,,,,,,,,,247.6296755830117,,,,,,,,,,,,,,,,,,,,,,,,,,,,,,,,,,,,,,247.62385416700272,247.6296755830117,248.62876533300732,249.61211208300665,249.61211208300665,249.61211208300665,250.48975483299,right,0.8672012500173878,None,,,,,,,,,,,,,,,,,,,,,,,,,,,,,,,,,,,,,,,,,,,014388,001,2024-11-28_14h18.23.035,Test,2024.2.4,None,2024-11-28 14h18.33.964327 +0100,
16,150,90,66,None,40,40,0,False,right,0.8678700419841334,None,,,,,,,,0,40,40,40,,,,,,,,,250.50202024998725,,,,,,,,,,,,,,,,,,,,,,,,,,,,,,,,,,,,,,250.4972255419998,250.50202024998725,251.4953399579972,252.48612704200787,252.48612704200787,252.48612704200787,253.36406937500578,right,0.8678700419841334,None,,,,,,,,,,,,,,,,,,,,,,,,,,,,,,,,,,,,,,,,,,,014388,001,2024-11-28_14h18.23.035,Test,2024.2.4,None,2024-11-28 14h18.33.964327 +0100,
60,150,120,51,None,41,41,0,True,left,1.2123126249935012,None,,,,,,,,0,41,41,41,,,,,,,,,253.37968974999967,,,,,,,,,,,,,,,,,,,,,,,,,,,,,,,,,,,,,,253.37299012500443,253.37968974999967,254.36729883300723,255.36215533301583,255.36215533301583,255.36215533301583,256.58118591699167,left,1.2123126249935012,None,,,,,,,,,,,,,,,,,,,,,,,,,,,,,,,,,,,,,,,,,,,014388,001,2024-11-28_14h18.23.035,Test,2024.2.4,None,2024-11-28 14h18.33.964327 +0100,
52,150,90,69,None,42,42,0,True,right,0.7838455830060411,None,,,,,,,,0,42,42,42,,,,,,,,,256.5962337079982,,,,,,,,,,,,,,,,,,,,,,,,,,,,,,,,,,,,,,256.5901126250101,256.5962337079982,257.58369400000083,258.5787037080154,258.5787037080154,258.5787037080154,259.3727124579891,right,0.7838455830060411,None,,,,,,,,,,,,,,,,,,,,,,,,,,,,,,,,,,,,,,,,,,,014388,001,2024-11-28_14h18.23.035,Test,2024.2.4,None,2024-11-28 14h18.33.964327 +0100,
51,150,90,59,None,43,43,0,True,right,0.793350082996767,None,,,,,,,,0,43,43,43,,,,,,,,,259.3837730420055,,,,,,,,,,,,,,,,,,,,,,,,,,,,,,,,,,,,,,259.3792394170014,259.3837730420055,260.3785361670016,261.3690555829962,261.3690555829962,261.3690555829962,262.1653462079994,right,0.793350082996767,None,,,,,,,,,,,,,,,,,,,,,,,,,,,,,,,,,,,,,,,,,,,014388,001,2024-11-28_14h18.23.035,Test,2024.2.4,None,2024-11-28 14h18.33.964327 +0100,
69,150,180,57,None,44,44,0,True,right,0.8513651669782121,None,,,,,,,,0,44,44,44,,,,,,,,,262.17701508299797,,,,,,,,,,,,,,,,,,,,,,,,,,,,,,,,,,,,,,262.1714411670109,262.17701508299797,263.1677789170062,264.16200162499445,264.16200162499445,264.16200162499445,265.0206802499888,right,0.8513651669782121,None,,,,,,,,,,,,,,,,,,,,,,,,,,,,,,,,,,,,,,,,,,,014388,001,2024-11-28_14h18.23.035,Test,2024.2.4,None,2024-11-28 14h18.33.964327 +0100,
42,150,30,39,None,45,45,0,True,left,0.7867669589759316,None,,,,,,,,0,45,45,45,,,,,,,,,265.03626137500396,,,,,,,,,,,,,,,,,,,,,,,,,,,,,,,,,,,,,,265.0294061670138,265.03626137500396,266.03401999999187,267.01924383299774,267.01924383299774,267.01924383299774,267.8142147079925,left,0.7867669589759316,None,,,,,,,,,,,,,,,,,,,,,,,,,,,,,,,,,,,,,,,,,,,014388,001,2024-11-28_14h18.23.035,Test,2024.2.4,None,2024-11-28 14h18.33.964327 +0100,
28,150,150,42,None,46,46,0,False,left,1.5721301670128014,None,,,,,,,,0,46,46,46,,,,,,,,,267.8297892920091,,,,,,,,,,,,,,,,,,,,,,,,,,,,,,,,,,,,,,267.8229826249881,267.8297892920091,268.8285963750095,269.81217733299127,269.81217733299127,269.81217733299127,271.3869042079896,left,1.5721301670128014,None,,,,,,,,,,,,,,,,,,,,,,,,,,,,,,,,,,,,,,,,,,,014388,001,2024-11-28_14h18.23.035,Test,2024.2.4,None,2024-11-28 14h18.33.964327 +0100,
23,150,120,6,None,47,47,0,False,left,0.9705705420055892,None,,,,,,,,0,47,47,47,,,,,,,,,271.4011406250065,,,,,,,,,,,,,,,,,,,,,,,,,,,,,,,,,,,,,,271.3947213749925,271.4011406250065,272.3952920830052,273.3858405420033,273.3858405420033,273.3858405420033,274.3645023329882,left,0.9705705420055892,None,,,,,,,,,,,,,,,,,,,,,,,,,,,,,,,,,,,,,,,,,,,014388,001,2024-11-28_14h18.23.035,Test,2024.2.4,None,2024-11-28 14h18.33.964327 +0100,
48,150,60,47,None,48,48,0,True,left,0.8790252080070786,None,,,,,,,,0,48,48,48,,,,,,,,,274.3790221250092,,,,,,,,,,,,,,,,,,,,,,,,,,,,,,,,,,,,,,274.3727252499957,274.3790221250092,275.3667115000135,276.3621609999973,276.3621609999973,276.3621609999973,277.24754566699266,left,0.8790252080070786,None,,,,,,,,,,,,,,,,,,,,,,,,,,,,,,,,,,,,,,,,,,,014388,001,2024-11-28_14h18.23.035,Test,2024.2.4,None,2024-11-28 14h18.33.964327 +0100,
13,150,60,53,None,49,49,0,False,left,0.9338100419845432,None,,,,,,,,0,49,49,49,,,,,,,,,277.26235704199644,,,,,,,,,,,,,,,,,,,,,,,,,,,,,,,,,,,,,,277.2561737500073,277.26235704199644,278.250259708002,279.2455096670019,279.2455096670019,279.2455096670019,280.1898032499885,left,0.9338100419845432,None,,,,,,,,,,,,,,,,,,,,,,,,,,,,,,,,,,,,,,,,,,,014388,001,2024-11-28_14h18.23.035,Test,2024.2.4,None,2024-11-28 14h18.33.964327 +0100,
8,150,30,67,None,50,50,0,False,right,1.115858917008154,None,,,,,,,,0,50,50,50,,,,,,,,,280.2016930420068,,,,,,,,,,,,,,,,,,,,,,,,,,,,,,,,,,,,,,280.1970711670001,280.2016930420068,281.1956179580011,282.1854460420145,282.1854460420145,282.1854460420145,283.3034299580031,right,1.115858917008154,None,,,,,,,,,,,,,,,,,,,,,,,,,,,,,,,,,,,,,,,,,,,014388,001,2024-11-28_14h18.23.035,Test,2024.2.4,None,2024-11-28 14h18.33.964327 +0100,
55,150,90,21,None,51,51,0,True,right,0.9193390419823118,None,,,,,,,,0,51,51,51,,,,,,,,,283.31847125000786,,,,,,,,,,,,,,,,,,,,,,,,,,,,,,,,,,,,,,283.3117096250062,283.31847125000786,284.31226549998973,285.3026768749987,285.3026768749987,285.3026768749987,286.23084562498843,right,0.9193390419823118,None,,,,,,,,,,,,,,,,,,,,,,,,,,,,,,,,,,,,,,,,,,,014388,001,2024-11-28_14h18.23.035,Test,2024.2.4,None,2024-11-28 14h18.33.964327 +0100,
22,150,120,32,None,52,52,0,False,right,0.8906142500054557,None,,,,,,,,0,52,52,52,,,,,,,,,286.2462603749882,,,,,,,,,,,,,,,,,,,,,,,,,,,,,,,,,,,,,,286.2396336249949,286.2462603749882,287.23344208300114,288.2289379579888,288.2289379579888,288.2289379579888,289.13089845801005,right,0.8906142500054557,None,,,,,,,,,,,,,,,,,,,,,,,,,,,,,,,,,,,,,,,,,,,014388,001,2024-11-28_14h18.23.035,Test,2024.2.4,None,2024-11-28 14h18.33.964327 +0100,
4,150,0,45,None,53,53,0,False,right,0.9183187920134515,None,,,,,,,,0,53,53,53,,,,,,,,,289.1464514580148,,,,,,,,,,,,,,,,,,,,,,,,,,,,,,,,,,,,,,289.1395797500154,289.1464514580148,290.14529750001384,291.12869741700706,291.12869741700706,291.12869741700706,292.0538184999896,right,0.9183187920134515,None,,,,,,,,,,,,,,,,,,,,,,,,,,,,,,,,,,,,,,,,,,,014388,001,2024-11-28_14h18.23.035,Test,2024.2.4,None,2024-11-28 14h18.33.964327 +0100,
37,150,0,2,None,54,54,0,True,left,0.8633660410123412,None,,,,,,,,0,54,54,54,,,,,,,,,292.0677127499948,,,,,,,,,,,,,,,,,,,,,,,,,,,,,,,,,,,,,,292.06163245800417,292.0677127499948,293.061959499988,294.05309608299285,294.05309608299285,294.05309608299285,294.9199647080095,left,0.8633660410123412,None,,,,,,,,,,,,,,,,,,,,,,,,,,,,,,,,,,,,,,,,,,,014388,001,2024-11-28_14h18.23.035,Test,2024.2.4,None,2024-11-28 14h18.33.964327 +0100,
11,150,60,63,None,55,55,0,False,right,0.8869393750210293,None,,,,,,,,0,55,55,55,,,,,,,,,294.93457112499163,,,,,,,,,,,,,,,,,,,,,,,,,,,,,,,,,,,,,,294.9279689580144,294.93457112499163,295.9286802500137,296.9184842919931,296.9184842919931,296.9184842919931,297.8146131669928,right,0.8869393750210293,None,,,,,,,,,,,,,,,,,,,,,,,,,,,,,,,,,,,,,,,,,,,014388,001,2024-11-28_14h18.23.035,Test,2024.2.4,None,2024-11-28 14h18.33.964327 +0100,
24,150,120,20,None,56,56,0,False,right,0.6270140419946983,None,,,,,,,,0,56,56,56,,,,,,,,,297.8299330000009,,,,,,,,,,,,,,,,,,,,,,,,,,,,,,,,,,,,,,297.82300141701126,297.8299330000009,298.8286322079948,299.81216908301576,299.81216908301576,299.81216908301576,300.4479043330066,right,0.6270140419946983,None,,,,,,,,,,,,,,,,,,,,,,,,,,,,,,,,,,,,,,,,,,,014388,001,2024-11-28_14h18.23.035,Test,2024.2.4,None,2024-11-28 14h18.33.964327 +0100,
30,150,150,9,None,57,57,0,False,right,1.3002508750068955,None,,,,,,,,0,57,57,57,,,,,,,,,300.4627360829909,,,,,,,,,,,,,,,,,,,,,,,,,,,,,,,,,,,,,,300.4564994999964,300.4627360829909,301.4501830000081,302.44548891700106,302.44548891700106,302.44548891700106,303.74785720801447,right,1.3002508750068955,None,,,,,,,,,,,,,,,,,,,,,,,,,,,,,,,,,,,,,,,,,,,014388,001,2024-11-28_14h18.23.035,Test,2024.2.4,None,2024-11-28 14h18.33.964327 +0100,
43,150,30,24,None,58,58,0,True,left,1.128132874990115,None,,,,,,,,0,58,58,58,,,,,,,,,303.7625896249956,,,,,,,,,,,,,,,,,,,,,,,,,,,,,,,,,,,,,,303.75558820800507,303.7625896249956,304.749832417001,305.7455092500022,305.7455092500022,305.7455092500022,306.88079324999126,left,1.128132874990115,None,,,,,,,,,,,,,,,,,,,,,,,,,,,,,,,,,,,,,,,,,,,014388,001,2024-11-28_14h18.23.035,Test,2024.2.4,None,2024-11-28 14h18.33.964327 +0100,
56,150,120,3,None,59,59,0,True,right,1.1904751250112895,None,,,,,,,,0,59,59,59,,,,,,,,,306.89531495800475,,,,,,,,,,,,,,,,,,,,,,,,,,,,,,,,,,,,,,306.8887089579948,306.89531495800475,307.8836216669879,308.87895662500523,308.87895662500523,308.87895662500523,310.0807412920112,right,1.1904751250112895,None,,,,,,,,,,,,,,,,,,,,,,,,,,,,,,,,,,,,,,,,,,,014388,001,2024-11-28_14h18.23.035,Test,2024.2.4,None,2024-11-28 14h18.33.964327 +0100,
65,150,150,16,None,60,60,0,True,right,0.9831979170267005,None,,,,,,,,0,60,60,60,,,,,,,,,310.09632137499284,,,,,,,,,,,,,,,,,,,,,,,,,,,,,,,,,,,,,,310.0893579580006,310.09632137499284,311.0954032500158,312.079009167006,312.079009167006,312.079009167006,313.0649353330082,right,0.9831979170267005,None,,,,,,,,,,,,,,,,,,,,,,,,,,,,,,,,,,,,,,,,,,,014388,001,2024-11-28_14h18.23.035,Test,2024.2.4,None,2024-11-28 14h18.33.964327 +0100,
26,150,150,37,None,61,61,0,False,left,0.8277731660054997,None,,,,,,,,0,61,61,61,,,,,,,,,313.07959916698746,,,,,,,,,,,,,,,,,,,,,,,,,,,,,,,,,,,,,,313.0735698750068,313.07959916698746,314.06749512499664,315.06225629200344,315.06225629200344,315.06225629200344,315.8975603329891,left,0.8277731660054997,None,,,,,,,,,,,,,,,,,,,,,,,,,,,,,,,,,,,,,,,,,,,014388,001,2024-11-28_14h18.23.035,Test,2024.2.4,None,2024-11-28 14h18.33.964327 +0100,
44,150,30,4,None,62,62,0,True,right,1.2168597919808235,None,,,,,,,,0,62,62,62,,,,,,,,,315.9126880830154,,,,,,,,,,,,,,,,,,,,,,,,,,,,,,,,,,,,,,315.90611620800337,315.9126880830154,316.9006874579936,317.89554950001184,317.89554950001184,317.89554950001184,319.1148520830029,right,1.2168597919808235,None,,,,,,,,,,,,,,,,,,,,,,,,,,,,,,,,,,,,,,,,,,,014388,001,2024-11-28_14h18.23.035,Test,2024.2.4,None,2024-11-28 14h18.33.964327 +0100,
63,150,150,22,None,63,63,0,True,left,1.1000364159990568,None,,,,,,,,0,63,63,63,,,,,,,,,319.1296018330031,,,,,,,,,,,,,,,,,,,,,,,,,,,,,,,,,,,,,,319.12320991701563,319.1296018330031,320.12870491700596,321.11208333299146,321.11208333299146,321.11208333299146,322.2147013329959,left,1.1000364159990568,None,,,,,,,,,,,,,,,,,,,,,,,,,,,,,,,,,,,,,,,,,,,014388,001,2024-11-28_14h18.23.035,Test,2024.2.4,None,2024-11-28 14h18.33.964327 +0100,
19,150,90,43,None,64,64,0,False,right,0.8197747499798425,None,,,,,,,,0,64,64,64,,,,,,,,,322.2296074999904,,,,,,,,,,,,,,,,,,,,,,,,,,,,,,,,,,,,,,322.2234855419956,322.2296074999904,323.21729054200114,324.21209337501205,324.21209337501205,324.21209337501205,325.0365483330097,right,0.8197747499798425,None,,,,,,,,,,,,,,,,,,,,,,,,,,,,,,,,,,,,,,,,,,,014388,001,2024-11-28_14h18.23.035,Test,2024.2.4,None,2024-11-28 14h18.33.964327 +0100,
62,150,150,68,None,65,65,0,True,left,1.1224647919880226,None,,,,,,,,0,65,65,65,,,,,,,,,325.0501820000063,,,,,,,,,,,,,,,,,,,,,,,,,,,,,,,,,,,,,,325.0439177500084,325.0501820000063,326.0453702080122,327.0362830419908,327.0362830419908,327.0362830419908,328.16423870800645,left,1.1224647919880226,None,,,,,,,,,,,,,,,,,,,,,,,,,,,,,,,,,,,,,,,,,,,014388,001,2024-11-28_14h18.23.035,Test,2024.2.4,None,2024-11-28 14h18.33.964327 +0100,
25,150,120,65,None,66,66,0,False,left,1.20488158299122,None,,,,,,,,0,66,66,66,,,,,,,,,328.1806180829881,,,,,,,,,,,,,,,,,,,,,,,,,,,,,,,,,,,,,,328.17331354200724,328.1806180829881,329.17861533298856,330.1621807499905,330.1621807499905,330.1621807499905,331.3702194170037,left,1.20488158299122,None,,,,,,,,,,,,,,,,,,,,,,,,,,,,,,,,,,,,,,,,,,,014388,001,2024-11-28_14h18.23.035,Test,2024.2.4,None,2024-11-28 14h18.33.964327 +0100,
38,150,0,15,None,67,67,0,True,right,1.4051457089954056,None,,,,,,,,0,67,67,67,,,,,,,,,331.3857593330031,,,,,,,,,,,,,,,,,,,,,,,,,,,,,,,,,,,,,,331.37920870800735,331.3857593330031,332.38324312499026,333.3691282919899,333.3691282919899,333.3691282919899,334.78070787500474,right,1.4051457089954056,None,,,,,,,,,,,,,,,,,,,,,,,,,,,,,,,,,,,,,,,,,,,014388,001,2024-11-28_14h18.23.035,Test,2024.2.4,None,2024-11-28 14h18.33.964327 +0100,
66,150,180,35,None,68,68,0,True,left,1.040979374985909,None,,,,,,,,0,68,68,68,,,,,,,,,334.7961087920121,,,,,,,,,,,,,,,,,,,,,,,,,,,,,,,,,,,,,,334.7898711670132,334.7961087920121,335.7834643330134,336.77874291699845,336.77874291699845,336.77874291699845,337.830838666996,left,1.040979374985909,None,,,,,,,,,,,,,,,,,,,,,,,,,,,,,,,,,,,,,,,,,,,014388,001,2024-11-28_14h18.23.035,Test,2024.2.4,None,2024-11-28 14h18.33.964327 +0100,
17,150,90,54,None,69,69,0,False,right,1.0243712090014014,None,,,,,,,,0,69,69,69,,,,,,,,,337.84562249999726,,,,,,,,,,,,,,,,,,,,,,,,,,,,,,,,,,,,,,337.8394771250023,337.84562249999726,338.83356241701404,339.8289119580004,339.8289119580004,339.8289119580004,340.8641731670068,right,1.0243712090014014,None,,,,,,,,,,,,,,,,,,,,,,,,,,,,,,,,,,,,,,,,,,,014388,001,2024-11-28_14h18.23.035,Test,2024.2.4,None,2024-11-28 14h18.33.964327 +0100,
,,,,,,,,,,,,,,,,,,,,,,,,,,,,,,,,,,,,,,,,,,,,,,,,,,,,,,,,,,,,,,,,,,,,,,,,,,,,,,,340.86445087500033,340.8745054579922,340.8745054579922,343.0373434170033,space,2.1556231249996927,None,,,,,,,,,,,,,,,,,,,,,,,,,,,,,,,,,,,,014388,001,2024-11-28_14h18.23.035,Test,2024.2.4,None,2024-11-28 14h18.33.964327 +0100,
35,150,180,13,None,0,0,0,,,,,,,,,,,,,,,,0,0,0,34,,,,,343.06371679200674,,,,,,,,,,,,,,,,,,,,,,,,,,,,,,,,,,,,,,,,,,,,,,,,,,,,,,,343.054920124996,343.06371679200674,343.2362690420123,343.2362690420123,343.26233674999094,344.9433185000089,344.9433185000089,344.92966387499473,,,,,,,,,,,,,,,,,,,,,,,,,,,,014388,001,2024-11-28_14h18.23.035,Test,2024.2.4,None,2024-11-28 14h18.33.964327 +0100,
12,150,60,60,None,1,1,0,,,,,,,,,,,,,,,,0,1,1,11,,,,,344.9433185000089,,,,,,,,,,,,,,,,,,,,,,,,,,,,,,,,,,,,,,,,,,,,,,,,,,,,,,,344.9378729579912,344.9433185000089,345.1357341670082,345.1357341670082,345.1357341670082,346.8313432080031,346.8313432080031,346.8189845420129,,,,,,,,,,,,,,,,,,,,,,,,,,,,014388,001,2024-11-28_14h18.23.035,Test,2024.2.4,None,2024-11-28 14h18.33.964327 +0100,
29,150,150,38,None,2,2,0,,,,,,,,,,,,,,,,0,2,2,28,,,,,346.8313432080031,,,,,,,,,,,,,,,,,,,,,,,,,,,,,,,,,,,,,,,,,,,,,,,,,,,,,,,346.82693691700115,346.8453099580074,347.03577766701346,347.03577766701346,347.03577766701346,348.7434947080037,348.7434947080037,348.72961883299286,,,,,,,,,,,,,,,,,,,,,,,,,,,,014388,001,2024-11-28_14h18.23.035,Test,2024.2.4,None,2024-11-28 14h18.33.964327 +0100,
20,150,90,36,None,3,3,0,,,,,,,,,,,,,,,,0,3,3,19,,,,,348.7434947080037,,,,,,,,,,,,,,,,,,,,,,,,,,,,,,,,,,,,,,,,,,,,,,,,,,,,,,,348.73785787500674,348.7434947080037,348.9349008749996,348.9349008749996,348.9349008749996,350.6327820419974,350.6327820419974,350.6192729579925,,,,,,,,,,,,,,,,,,,,,,,,,,,,014388,001,2024-11-28_14h18.23.035,Test,2024.2.4,None,2024-11-28 14h18.33.964327 +0100,
5,150,0,30,None,4,4,0,,,,,,,,,,,,,,,,0,4,4,4,,,,,350.6327820419974,,,,,,,,,,,,,,,,,,,,,,,,,,,,,,,,,,,,,,,,,,,,,,,,,,,,,,,350.6276484169939,350.64543758300715,350.8356962079997,350.8356962079997,350.8356962079997,352.53104816700215,352.53104816700215,352.5189597500139,,,,,,,,,,,,,,,,,,,,,,,,,,,,014388,001,2024-11-28_14h18.23.035,Test,2024.2.4,None,2024-11-28 14h18.33.964327 +0100,
16,150,90,66,None,5,5,0,,,,,,,,,,,,,,,,0,5,5,15,,,,,352.53104816700215,,,,,,,,,,,,,,,,,,,,,,,,,,,,,,,,,,,,,,,,,,,,,,,,,,,,,,,352.5265589999908,352.54539879199,352.7357875829912,352.7357875829912,352.7357875829912,354.4435117079993,354.4435117079993,354.4298146670044,,,,,,,,,,,,,,,,,,,,,,,,,,,,014388,001,2024-11-28_14h18.23.035,Test,2024.2.4,None,2024-11-28 14h18.33.964327 +0100,
3,150,0,10,None,6,6,0,,,,,,,,,,,,,,,,0,6,6,2,,,,,354.4435117079993,,,,,,,,,,,,,,,,,,,,,,,,,,,,,,,,,,,,,,,,,,,,,,,,,,,,,,,354.43764525000006,354.4435117079993,354.63567891699495,354.63567891699495,354.63567891699495,356.34314095799346,356.34314095799346,356.32981916700373,,,,,,,,,,,,,,,,,,,,,,,,,,,,014388,001,2024-11-28_14h18.23.035,Test,2024.2.4,None,2024-11-28 14h18.33.964327 +0100,
15,150,60,12,None,7,7,0,,,,,,,,,,,,,,,,0,7,7,14,,,,,356.34314095799346,,,,,,,,,,,,,,,,,,,,,,,,,,,,,,,,,,,,,,,,,,,,,,,,,,,,,,,356.3377010420081,356.34314095799346,356.53575687500415,356.53575687500415,356.53575687500415,358.23123254199163,358.23123254199163,358.2187890000059,,,,,,,,,,,,,,,,,,,,,,,,,,,,014388,001,2024-11-28_14h18.23.035,Test,2024.2.4,None,2024-11-28 14h18.33.964327 +0100,
9,150,30,64,None,8,8,0,,,,,,,,,,,,,,,,0,8,8,8,,,,,358.23123254199163,,,,,,,,,,,,,,,,,,,,,,,,,,,,,,,,,,,,,,,,,,,,,,,,,,,,,,,358.22689150000224,358.24538895799196,358.43581304201507,358.43581304201507,358.43581304201507,360.1307232080144,360.1307232080144,360.1188697920006,,,,,,,,,,,,,,,,,,,,,,,,,,,,014388,001,2024-11-28_14h18.23.035,Test,2024.2.4,None,2024-11-28 14h18.33.964327 +0100,
23,150,120,6,None,9,9,0,,,,,,,,,,,,,,,,0,9,9,22,,,,,360.1307232080144,,,,,,,,,,,,,,,,,,,,,,,,,,,,,,,,,,,,,,,,,,,,,,,,,,,,,,,360.12621924999985,360.1452871669899,360.3359549170127,360.3359549170127,360.3359549170127,362.0445535420149,362.0445535420149,362.03049624999403,,,,,,,,,,,,,,,,,,,,,,,,,,,,014388,001,2024-11-28_14h18.23.035,Test,2024.2.4,None,2024-11-28 14h18.33.964327 +0100,
26,150,150,37,None,10,10,0,,,,,,,,,,,,,,,,0,10,10,25,,,,,362.0445535420149,,,,,,,,,,,,,,,,,,,,,,,,,,,,,,,,,,,,,,,,,,,,,,,,,,,,,,,362.0389698749932,362.0445535420149,362.2359895000118,362.2359895000118,362.2359895000118,363.94464008300565,363.94464008300565,363.9297167499899,,,,,,,,,,,,,,,,,,,,,,,,,,,,014388,001,2024-11-28_14h18.23.035,Test,2024.2.4,None,2024-11-28 14h18.33.964327 +0100,
32,150,180,58,None,11,11,0,,,,,,,,,,,,,,,,0,11,11,31,,,,,363.94464008300565,,,,,,,,,,,,,,,,,,,,,,,,,,,,,,,,,,,,,,,,,,,,,,,,,,,,,,,363.9392066670116,363.94464008300565,364.1356508329918,364.1356508329918,364.1356508329918,365.84299583299435,365.84299583299435,365.8296239170013,,,,,,,,,,,,,,,,,,,,,,,,,,,,014388,001,2024-11-28_14h18.23.035,Test,2024.2.4,None,2024-11-28 14h18.33.964327 +0100,
17,150,90,54,None,12,12,0,,,,,,,,,,,,,,,,0,12,12,16,,,,,365.84299583299435,,,,,,,,,,,,,,,,,,,,,,,,,,,,,,,,,,,,,,,,,,,,,,,,,,,,,,,365.8375191669911,365.84299583299435,366.0356607499998,366.0356607499998,366.0356607499998,367.7338010419917,367.7338010419917,367.7201275830157,,,,,,,,,,,,,,,,,,,,,,,,,,,,014388,001,2024-11-28_14h18.23.035,Test,2024.2.4,None,2024-11-28 14h18.33.964327 +0100,
4,150,0,45,None,13,13,0,,,,,,,,,,,,,,,,0,13,13,3,,,,,367.7338010419917,,,,,,,,,,,,,,,,,,,,,,,,,,,,,,,,,,,,,,,,,,,,,,,,,,,,,,,367.7277383749897,367.7457728330046,367.9356281670043,367.9356281670043,367.9356281670043,369.6438175000076,369.6438175000076,369.62980195801356,,,,,,,,,,,,,,,,,,,,,,,,,,,,014388,001,2024-11-28_14h18.23.035,Test,2024.2.4,None,2024-11-28 14h18.33.964327 +0100,
14,150,60,48,None,14,14,0,,,,,,,,,,,,,,,,0,14,14,13,,,,,369.6438175000076,,,,,,,,,,,,,,,,,,,,,,,,,,,,,,,,,,,,,,,,,,,,,,,,,,,,,,,369.6383022920054,369.6438175000076,369.835670542001,369.835670542001,369.835670542001,371.54372895800043,371.54372895800043,371.5297061250021,,,,,,,,,,,,,,,,,,,,,,,,,,,,014388,001,2024-11-28_14h18.23.035,Test,2024.2.4,None,2024-11-28 14h18.33.964327 +0100,
30,150,150,9,None,15,15,0,,,,,,,,,,,,,,,,0,15,15,29,,,,,371.54372895800043,,,,,,,,,,,,,,,,,,,,,,,,,,,,,,,,,,,,,,,,,,,,,,,,,,,,,,,371.5383416250115,371.54372895800043,371.7350835420075,371.7350835420075,371.7350835420075,373.43079283300904,373.43079283300904,373.4192546670092,,,,,,,,,,,,,,,,,,,,,,,,,,,,014388,001,2024-11-28_14h18.23.035,Test,2024.2.4,None,2024-11-28 14h18.33.964327 +0100,
11,150,60,63,None,16,16,0,,,,,,,,,,,,,,,,0,16,16,10,,,,,373.43079283300904,,,,,,,,,,,,,,,,,,,,,,,,,,,,,,,,,,,,,,,,,,,,,,,,,,,,,,,373.4262426249916,373.44535104199895,373.6356066669978,373.6356066669978,373.6356066669978,375.3308242080093,375.3308242080093,375.3189230829885,,,,,,,,,,,,,,,,,,,,,,,,,,,,014388,001,2024-11-28_14h18.23.035,Test,2024.2.4,None,2024-11-28 14h18.33.964327 +0100,
10,150,30,29,None,17,17,0,,,,,,,,,,,,,,,,0,17,17,9,,,,,375.3308242080093,,,,,,,,,,,,,,,,,,,,,,,,,,,,,,,,,,,,,,,,,,,,,,,,,,,,,,,375.32635379201383,375.34532766698976,375.5357842500089,375.5357842500089,375.5357842500089,377.2432273750019,377.2432273750019,377.22987412501243,,,,,,,,,,,,,,,,,,,,,,,,,,,,014388,001,2024-11-28_14h18.23.035,Test,2024.2.4,None,2024-11-28 14h18.33.964327 +0100,
2,150,0,18,None,18,18,0,,,,,,,,,,,,,,,,0,18,18,1,,,,,377.2432273750019,,,,,,,,,,,,,,,,,,,,,,,,,,,,,,,,,,,,,,,,,,,,,,,,,,,,,,,377.2379487500002,377.2432273750019,377.4370625000156,377.4370625000156,377.4370625000156,379.14691425001365,379.14691425001365,379.1296341670095,,,,,,,,,,,,,,,,,,,,,,,,,,,,014388,001,2024-11-28_14h18.23.035,Test,2024.2.4,None,2024-11-28 14h18.33.964327 +0100,
33,150,180,62,None,19,19,0,,,,,,,,,,,,,,,,0,19,19,32,,,,,379.14691425001365,,,,,,,,,,,,,,,,,,,,,,,,,,,,,,,,,,,,,,,,,,,,,,,,,,,,,,,379.1421263329976,379.14691425001365,379.3379692499875,379.3379692499875,379.3440612080158,381.04409270800534,381.04409270800534,381.0294315420033,,,,,,,,,,,,,,,,,,,,,,,,,,,,014388,001,2024-11-28_14h18.23.035,Test,2024.2.4,None,2024-11-28 14h18.33.964327 +0100,
31,150,180,41,None,20,20,0,,,,,,,,,,,,,,,,0,20,20,30,,,,,381.04409270800534,,,,,,,,,,,,,,,,,,,,,,,,,,,,,,,,,,,,,,,,,,,,,,,,,,,,,,,381.03859829201247,381.04409270800534,381.23553870798787,381.23553870798787,381.23553870798787,382.9315840000054,382.9315840000054,382.9190868329897,,,,,,,,,,,,,,,,,,,,,,,,,,,,014388,001,2024-11-28_14h18.23.035,Test,2024.2.4,None,2024-11-28 14h18.33.964327 +0100,
6,150,30,40,None,21,21,0,,,,,,,,,,,,,,,,0,21,21,5,,,,,382.9315840000054,,,,,,,,,,,,,,,,,,,,,,,,,,,,,,,,,,,,,,,,,,,,,,,,,,,,,,,382.9271742500132,382.94539000000805,383.13543787499657,383.13543787499657,383.13543787499657,384.8305300420034,384.8305300420034,384.8186647919938,,,,,,,,,,,,,,,,,,,,,,,,,,,,014388,001,2024-11-28_14h18.23.035,Test,2024.2.4,None,2024-11-28 14h18.33.964327 +0100,
1,150,0,55,None,22,22,0,,,,,,,,,,,,,,,,0,22,22,0,,,,,384.8305300420034,,,,,,,,,,,,,,,,,,,,,,,,,,,,,,,,,,,,,,,,,,,,,,,,,,,,,,,384.8259716249886,384.8452479999978,385.03519845800474,385.03519845800474,385.03519845800474,386.74278829200193,386.74278829200193,386.7298551670101,,,,,,,,,,,,,,,,,,,,,,,,,,,,014388,001,2024-11-28_14h18.23.035,Test,2024.2.4,None,2024-11-28 14h18.33.964327 +0100,
7,150,30,5,None,23,23,0,,,,,,,,,,,,,,,,0,23,23,6,,,,,386.74278829200193,,,,,,,,,,,,,,,,,,,,,,,,,,,,,,,,,,,,,,,,,,,,,,,,,,,,,,,386.73710845800815,386.74278829200193,386.93557145801606,386.93557145801606,386.93557145801606,388.6311827079917,388.6311827079917,388.6188409579918,,,,,,,,,,,,,,,,,,,,,,,,,,,,014388,001,2024-11-28_14h18.23.035,Test,2024.2.4,None,2024-11-28 14h18.33.964327 +0100,
19,150,90,43,None,24,24,0,,,,,,,,,,,,,,,,0,24,24,18,,,,,388.6311827079917,,,,,,,,,,,,,,,,,,,,,,,,,,,,,,,,,,,,,,,,,,,,,,,,,,,,,,,388.62671279200003,388.64544608301367,388.8352386250044,388.8352386250044,388.8352386250044,390.5314983749995,390.5314983749995,390.5195346669934,,,,,,,,,,,,,,,,,,,,,,,,,,,,014388,001,2024-11-28_14h18.23.035,Test,2024.2.4,None,2024-11-28 14h18.33.964327 +0100,
22,150,120,32,None,25,25,0,,,,,,,,,,,,,,,,0,25,25,21,,,,,390.5314983749995,,,,,,,,,,,,,,,,,,,,,,,,,,,,,,,,,,,,,,,,,,,,,,,,,,,,,,,390.5269482920121,390.5453388750029,390.7350354169903,390.7350354169903,390.7350354169903,392.43062433300656,392.43062433300656,392.4188712500036,,,,,,,,,,,,,,,,,,,,,,,,,,,,014388,001,2024-11-28_14h18.23.035,Test,2024.2.4,None,2024-11-28 14h18.33.964327 +0100,
24,150,120,20,None,26,26,0,,,,,,,,,,,,,,,,0,26,26,23,,,,,392.43062433300656,,,,,,,,,,,,,,,,,,,,,,,,,,,,,,,,,,,,,,,,,,,,,,,,,,,,,,,392.4260143749998,392.44532754199463,392.6349095420155,392.6349095420155,392.6349095420155,394.3312851249939,394.3312851249939,394.3186421249993,,,,,,,,,,,,,,,,,,,,,,,,,,,,014388,001,2024-11-28_14h18.23.035,Test,2024.2.4,None,2024-11-28 14h18.33.964327 +0100,
13,150,60,53,None,27,27,0,,,,,,,,,,,,,,,,0,27,27,12,,,,,394.3312851249939,,,,,,,,,,,,,,,,,,,,,,,,,,,,,,,,,,,,,,,,,,,,,,,,,,,,,,,394.32673841700307,394.34548487499706,394.53579454199644,394.53579454199644,394.53579454199644,396.233565292001,396.233565292001,396.21943770800135,,,,,,,,,,,,,,,,,,,,,,,,,,,,014388,001,2024-11-28_14h18.23.035,Test,2024.2.4,None,2024-11-28 14h18.33.964327 +0100,
21,150,120,56,None,28,28,0,,,,,,,,,,,,,,,,0,28,28,20,,,,,396.233565292001,,,,,,,,,,,,,,,,,,,,,,,,,,,,,,,,,,,,,,,,,,,,,,,,,,,,,,,396.2286010000098,396.24532650000765,396.4360690420144,396.4360690420144,396.4360690420144,398.1423599580012,398.1423599580012,398.12957766701584,,,,,,,,,,,,,,,,,,,,,,,,,,,,014388,001,2024-11-28_14h18.23.035,Test,2024.2.4,None,2024-11-28 14h18.33.964327 +0100,
8,150,30,67,None,29,29,0,,,,,,,,,,,,,,,,0,29,29,7,,,,,398.1423599580012,,,,,,,,,,,,,,,,,,,,,,,,,,,,,,,,,,,,,,,,,,,,,,,,,,,,,,,398.13710724998964,398.1423599580012,398.33529641700443,398.33529641700443,398.33529641700443,400.03217787499307,400.03217787499307,400.0188724170148,,,,,,,,,,,,,,,,,,,,,,,,,,,,014388,001,2024-11-28_14h18.23.035,Test,2024.2.4,None,2024-11-28 14h18.33.964327 +0100,
18,150,90,52,None,30,30,0,,,,,,,,,,,,,,,,0,30,30,17,,,,,400.03217787499307,,,,,,,,,,,,,,,,,,,,,,,,,,,,,,,,,,,,,,,,,,,,,,,,,,,,,,,400.0271872500016,400.0452911249886,400.2357336250134,400.2357336250134,400.2357336250134,401.9439852919895,401.9439852919895,401.9298019169946,,,,,,,,,,,,,,,,,,,,,,,,,,,,014388,001,2024-11-28_14h18.23.035,Test,2024.2.4,None,2024-11-28 14h18.33.964327 +0100,
34,150,180,23,None,31,31,0,,,,,,,,,,,,,,,,0,31,31,33,,,,,401.9439852919895,,,,,,,,,,,,,,,,,,,,,,,,,,,,,,,,,,,,,,,,,,,,,,,,,,,,,,,401.93845712501206,401.9439852919895,402.13559791698935,402.13559791698935,402.13559791698935,403.8320658330049,403.8320658330049,403.81911787501303,,,,,,,,,,,,,,,,,,,,,,,,,,,,014388,001,2024-11-28_14h18.23.035,Test,2024.2.4,None,2024-11-28 14h18.33.964327 +0100,
27,150,150,46,None,32,32,0,,,,,,,,,,,,,,,,0,32,32,26,,,,,403.8320658330049,,,,,,,,,,,,,,,,,,,,,,,,,,,,,,,,,,,,,,,,,,,,,,,,,,,,,,,403.8271380829974,403.84523895799066,404.0364058330015,404.0364058330015,404.0364058330015,405.74320937501034,405.74320937501034,405.7297123330063,,,,,,,,,,,,,,,,,,,,,,,,,,,,014388,001,2024-11-28_14h18.23.035,Test,2024.2.4,None,2024-11-28 14h18.33.964327 +0100,
28,150,150,42,None,33,33,0,,,,,,,,,,,,,,,,0,33,33,27,,,,,405.74320937501034,,,,,,,,,,,,,,,,,,,,,,,,,,,,,,,,,,,,,,,,,,,,,,,,,,,,,,,405.7377957080025,405.74320937501034,405.93599033300416,405.93599033300416,405.93599033300416,407.6433270830021,407.6433270830021,407.6295885829895,,,,,,,,,,,,,,,,,,,,,,,,,,,,014388,001,2024-11-28_14h18.23.035,Test,2024.2.4,None,2024-11-28 14h18.33.964327 +0100,
25,150,120,65,None,34,34,0,,,,,,,,,,,,,,,,0,34,34,24,,,,,407.6433270830021,,,,,,,,,,,,,,,,,,,,,,,,,,,,,,,,,,,,,,,,,,,,,,,,,,,,,,,407.63803491700673,407.6433270830021,407.8354885420122,407.8354885420122,407.8354885420122,409.5288617500046,409.5288617500046,409.51902254199376,,,,,,,,,,,,,,,,,,,,,,,,,,,,014388,001,2024-11-28_14h18.23.035,Test,2024.2.4,None,2024-11-28 14h18.33.964327 +0100,
,,,,,,,,,,,,,,,,,,,,,,,,,,,,,,,,,,,,,,,,,,,,,,,,,,,,,,,,,,,,,,,,,,,,,,,,,,,,,,,,,,,,,,,,,,,,,,409.5191941249941,409.537155833008,409.537155833008,410.96449000001303,space,1.425153083022451,None,,,,,,,,,,,,,,,,,,,,,014388,001,2024-11-28_14h18.23.035,Test,2024.2.4,None,2024-11-28 14h18.33.964327 +0100,
41,150,30,11,None,0,0,0,True,,,,left,0.8782227080082521,None,,,,,,,,,,,,,0,0,0,0,411.07377899999847,,,,,,,,,,,,,,,,,,,,,,,,,,,,,,,,,,,,,,,,,,,,,,,,,,,,,,,,,,,,,,,,,,,,,,411.06823779200204,411.07377899999847,412.0672052919981,412.9610597919964,412.9610597919964,412.9610597919964,413.8477621249913,left,0.8782227080082521,None,,,,,,,,,,,014388,001,2024-11-28_14h18.23.035,Test,2024.2.4,None,2024-11-28 14h18.33.964327 +0100,
34,150,180,23,None,1,1,0,False,,,,right,0.5876712499884889,None,,,,,,,,,,,,,0,1,1,1,413.8630911250075,,,,,,,,,,,,,,,,,,,,,,,,,,,,,,,,,,,,,,,,,,,,,,,,,,,,,,,,,,,,,,,,,,,,,,413.8565775419993,413.8630911250075,414.86186562498915,415.8456306250009,415.8456306250009,415.8456306250009,416.4370182919956,right,0.5876712499884889,None,,,,,,,,,,,014388,001,2024-11-28_14h18.23.035,Test,2024.2.4,None,2024-11-28 14h18.33.964327 +0100,
45,150,30,50,None,2,2,0,True,,,,left,0.8712969999760389,None,,,,,,,,,,,,,0,2,2,2,416.452117458015,,,,,,,,,,,,,,,,,,,,,,,,,,,,,,,,,,,,,,,,,,,,,,,,,,,,,,,,,,,,,,,,,,,,,,416.4453947079892,416.452117458015,417.4455420000013,418.4350152499974,418.4350152499974,418.4350152499974,419.314026832988,left,0.8712969999760389,None,,,,,,,,,,,014388,001,2024-11-28_14h18.23.035,Test,2024.2.4,None,2024-11-28 14h18.33.964327 +0100,
14,150,60,48,None,3,3,0,False,,,,right,0.6557877500017639,None,,,,,,,,,,,,,0,3,3,3,419.32883899999433,,,,,,,,,,,,,,,,,,,,,,,,,,,,,,,,,,,,,,,,,,,,,,,,,,,,,,,,,,,,,,,,,,,,,,419.3222970000061,419.32883899999433,420.31728308301535,421.31206866700086,421.31206866700086,421.31206866700086,421.9706160830101,right,0.6557877500017639,None,,,,,,,,,,,014388,001,2024-11-28_14h18.23.035,Test,2024.2.4,None,2024-11-28 14h18.33.964327 +0100,
57,150,120,70,None,4,4,0,True,,,,right,0.8012745000014547,None,,,,,,,,,,,,,0,4,4,4,421.9848687920021,,,,,,,,,,,,,,,,,,,,,,,,,,,,,,,,,,,,,,,,,,,,,,,,,,,,,,,,,,,,,,,,,,,,,,421.97892837499967,421.9848687920021,422.9785736670019,423.970056457998,423.970056457998,423.970056457998,424.78083654199145,right,0.8012745000014547,None,,,,,,,,,,,014388,001,2024-11-28_14h18.23.035,Test,2024.2.4,None,2024-11-28 14h18.33.964327 +0100,
50,150,60,1,None,5,5,0,True,,,,right,0.8006537909968756,None,,,,,,,,,,,,,0,5,5,5,424.79647562501486,,,,,,,,,,,,,,,,,,,,,,,,,,,,,,,,,,,,,,,,,,,,,,,,,,,,,,,,,,,,,,,,,,,,,,424.78976804201375,424.79647562501486,425.7842768749979,426.77877970799454,426.77877970799454,426.77877970799454,427.59010845801095,right,0.8006537909968756,None,,,,,,,,,,,014388,001,2024-11-28_14h18.23.035,Test,2024.2.4,None,2024-11-28 14h18.33.964327 +0100,
33,150,180,62,None,6,6,0,False,,,,right,0.6077843339880928,None,,,,,,,,,,,,,0,6,6,6,427.6064637080126,,,,,,,,,,,,,,,,,,,,,,,,,,,,,,,,,,,,,,,,,,,,,,,,,,,,,,,,,,,,,,,,,,,,,,427.601475375006,427.6064637080126,428.6006840420014,429.58787591700093,429.58787591700093,429.58787591700093,430.1986629170133,right,0.6077843339880928,None,,,,,,,,,,,014388,001,2024-11-28_14h18.23.035,Test,2024.2.4,None,2024-11-28 14h18.33.964327 +0100,
54,150,90,61,None,7,7,0,True,,,,right,0.9057985000254121,None,,,,,,,,,,,,,0,7,7,7,430.21467487499467,,,,,,,,,,,,,,,,,,,,,,,,,,,,,,,,,,,,,,,,,,,,,,,,,,,,,,,,,,,,,,,,,,,,,,430.2078900829947,430.21467487499467,431.2120173750154,432.1953956669895,432.1953956669895,432.1953956669895,433.10396454200963,right,0.9057985000254121,None,,,,,,,,,,,014388,001,2024-11-28_14h18.23.035,Test,2024.2.4,None,2024-11-28 14h18.33.964327 +0100,
36,150,0,25,None,8,8,0,True,,,,left,0.8613960000220686,None,,,,,,,,,,,,,0,8,8,8,433.1190109580057,,,,,,,,,,,,,,,,,,,,,,,,,,,,,,,,,,,,,,,,,,,,,,,,,,,,,,,,,,,,,,,,,,,,,,433.1121900829894,433.1190109580057,434.1176177079906,435.1015760829905,435.1015760829905,435.1015760829905,435.97015883299173,left,0.8613960000220686,None,,,,,,,,,,,014388,001,2024-11-28_14h18.23.035,Test,2024.2.4,None,2024-11-28 14h18.33.964327 +0100,
64,150,150,8,None,9,9,0,True,,,,right,0.7787429160089232,None,,,,,,,,,,,,,0,9,9,9,435.98412554198876,,,,,,,,,,,,,,,,,,,,,,,,,,,,,,,,,,,,,,,,,,,,,,,,,,,,,,,,,,,,,,,,,,,,,,435.978363000002,435.98412554198876,436.97874591700383,437.96944833299494,437.96944833299494,437.96944833299494,438.7535519580124,right,0.7787429160089232,None,,,,,,,,,,,014388,001,2024-11-28_14h18.23.035,Test,2024.2.4,None,2024-11-28 14h18.33.964327 +0100,
6,150,30,40,None,10,10,0,False,,,,left,0.9212523750029504,None,,,,,,,,,,,,,0,10,10,10,438.76805804201285,,,,,,,,,,,,,,,,,,,,,,,,,,,,,,,,,,,,,,,,,,,,,,,,,,,,,,,,,,,,,,,,,,,,,,438.7621147079917,438.76805804201285,439.7624029169965,440.7520058329974,440.7520058329974,440.7520058329974,441.6807603329944,left,0.9212523750029504,None,,,,,,,,,,,014388,001,2024-11-28_14h18.23.035,Test,2024.2.4,None,2024-11-28 14h18.33.964327 +0100,
59,150,120,14,None,11,11,0,True,,,,right,1.4050653750018682,None,,,,,,,,,,,,,0,11,11,11,441.696543500002,,,,,,,,,,,,,,,,,,,,,,,,,,,,,,,,,,,,,,,,,,,,,,,,,,,,,,,,,,,,,,,,,,,,,,441.6897815419943,441.696543500002,442.69533991700155,443.67896908300463,443.67896908300463,443.67896908300463,445.0873203329975,right,1.4050653750018682,None,,,,,,,,,,,014388,001,2024-11-28_14h18.23.035,Test,2024.2.4,None,2024-11-28 14h18.33.964327 +0100,
18,150,90,52,None,12,12,0,False,,,,right,1.343386125023244,None,,,,,,,,,,,,,0,12,12,12,445.1025042080146,,,,,,,,,,,,,,,,,,,,,,,,,,,,,,,,,,,,,,,,,,,,,,,,,,,,,,,,,,,,,,,,,,,,,,445.09641324999393,445.1025042080146,446.1018203329877,447.08578895800747,447.08578895800747,447.08578895800747,448.4320924580097,right,1.343386125023244,None,,,,,,,,,,,014388,001,2024-11-28_14h18.23.035,Test,2024.2.4,None,2024-11-28 14h18.33.964327 +0100,
53,150,90,49,None,13,13,0,True,,,,right,0.9998947079875506,None,,,,,,,,,,,,,0,13,13,13,448.4469418330118,,,,,,,,,,,,,,,,,,,,,,,,,,,,,,,,,,,,,,,,,,,,,,,,,,,,,,,,,,,,,,,,,,,,,,448.44068854200304,448.4469418330118,449.44536199999857,450.4287314999965,450.4287314999965,450.4287314999965,451.4309240420116,right,0.9998947079875506,None,,,,,,,,,,,014388,001,2024-11-28_14h18.23.035,Test,2024.2.4,None,2024-11-28 14h18.33.964327 +0100,
49,150,60,19,None,14,14,0,True,,,,left,0.8403402500262018,None,,,,,,,,,,,,,0,14,14,14,451.44583787501324,,,,,,,,,,,,,,,,,,,,,,,,,,,,,,,,,,,,,,,,,,,,,,,,,,,,,,,,,,,,,,,,,,,,,,451.43971400000737,451.44583787501324,452.43317795800976,453.4287658749963,453.4287658749963,453.4287658749963,454.2807407079963,left,0.8403402500262018,None,,,,,,,,,,,014388,001,2024-11-28_14h18.23.035,Test,2024.2.4,None,2024-11-28 14h18.33.964327 +0100,
15,150,60,12,None,15,15,0,False,,,,right,0.9766732919961214,None,,,,,,,,,,,,,0,15,15,15,454.29619824999827,,,,,,,,,,,,,,,,,,,,,,,,,,,,,,,,,,,,,,,,,,,,,,,,,,,,,,,,,,,,,,,,,,,,,,454.28931033299887,454.29619824999827,455.2835694999958,456.2787520420097,456.2787520420097,456.2787520420097,457.2639869579871,right,0.9766732919961214,None,,,,,,,,,,,014388,001,2024-11-28_14h18.23.035,Test,2024.2.4,None,2024-11-28 14h18.33.964327 +0100,
46,150,60,34,None,16,16,0,True,,,,left,0.8348048749903683,None,,,,,,,,,,,,,0,16,16,16,457.279042707989,,,,,,,,,,,,,,,,,,,,,,,,,,,,,,,,,,,,,,,,,,,,,,,,,,,,,,,,,,,,,,,,,,,,,,457.27255804199376,457.279042707989,458.26648245801334,459.262133250013,459.262133250013,459.262133250013,460.1033932080027,left,0.8348048749903683,None,,,,,,,,,,,014388,001,2024-11-28_14h18.23.035,Test,2024.2.4,None,2024-11-28 14h18.33.964327 +0100,
68,150,180,44,None,17,17,0,True,,,,right,0.9638775000057649,None,,,,,,,,,,,,,0,17,17,17,460.1180680000107,,,,,,,,,,,,,,,,,,,,,,,,,,,,,,,,,,,,,,,,,,,,,,,,,,,,,,,,,,,,,,,,,,,,,,460.112149624998,460.1180680000107,461.11190212500514,462.10263491701335,462.10263491701335,462.10263491701335,463.0694948750024,right,0.9638775000057649,None,,,,,,,,,,,014388,001,2024-11-28_14h18.23.035,Test,2024.2.4,None,2024-11-28 14h18.33.964327 +0100,
47,150,60,28,None,18,18,0,True,,,,left,0.9318822909845039,None,,,,,,,,,,,,,0,18,18,18,463.08422637500917,,,,,,,,,,,,,,,,,,,,,,,,,,,,,,,,,,,,,,,,,,,,,,,,,,,,,,,,,,,,,,,,,,,,,,463.07778429199243,463.08422637500917,464.0787429579941,465.069333499996,465.069333499996,465.069333499996,466.00387350001256,left,0.9318822909845039,None,,,,,,,,,,,014388,001,2024-11-28_14h18.23.035,Test,2024.2.4,None,2024-11-28 14h18.33.964327 +0100,
31,150,180,41,None,19,19,0,False,,,,right,0.8428648340050131,None,,,,,,,,,,,,,0,19,19,19,466.0189810419979,,,,,,,,,,,,,,,,,,,,,,,,,,,,,,,,,,,,,,,,,,,,,,,,,,,,,,,,,,,,,,,,,,,,,,466.0128970830119,466.0189810419979,467.0167290419922,468.00294554201537,468.00294554201537,468.00294554201537,468.84898241699557,right,0.8428648340050131,None,,,,,,,,,,,014388,001,2024-11-28_14h18.23.035,Test,2024.2.4,None,2024-11-28 14h18.33.964327 +0100,
9,150,30,64,None,20,20,0,False,,,,right,1.0237463339872193,None,,,,,,,,,,,,,0,20,20,20,468.86410287499893,,,,,,,,,,,,,,,,,,,,,,,,,,,,,,,,,,,,,,,,,,,,,,,,,,,,,,,,,,,,,,,,,,,,,,468.85775666701375,468.86410287499893,469.862060125015,470.84544541701325,470.84544541701325,470.84544541701325,471.88079204200767,right,1.0237463339872193,None,,,,,,,,,,,014388,001,2024-11-28_14h18.23.035,Test,2024.2.4,None,2024-11-28 14h18.33.964327 +0100,
61,150,150,17,None,21,21,0,True,,,,right,0.8221797500154935,None,,,,,,,,,,,,,0,21,21,21,471.89654862499447,,,,,,,,,,,,,,,,,,,,,,,,,,,,,,,,,,,,,,,,,,,,,,,,,,,,,,,,,,,,,,,,,,,,,,471.88947175000794,471.89654862499447,472.89539349998813,473.8788232500083,473.8788232500083,473.8788232500083,474.70368624999537,right,0.8221797500154935,None,,,,,,,,,,,014388,001,2024-11-28_14h18.23.035,Test,2024.2.4,None,2024-11-28 14h18.33.964327 +0100,
3,150,0,10,None,22,22,0,False,,,,right,1.8034329999936745,None,,,,,,,,,,,,,0,22,22,22,474.71772595800576,,,,,,,,,,,,,,,,,,,,,,,,,,,,,,,,,,,,,,,,,,,,,,,,,,,,,,,,,,,,,,,,,,,,,,474.7120400000131,474.71772595800576,475.71205150001333,476.70317754198913,476.70317754198913,476.70317754198913,478.5141669579898,right,1.8034329999936745,None,,,,,,,,,,,014388,001,2024-11-28_14h18.23.035,Test,2024.2.4,None,2024-11-28 14h18.33.964327 +0100,
67,150,180,31,None,23,23,0,True,,,,left,0.9999768339912407,None,,,,,,,,,,,,,0,23,23,23,478.52886966700316,,,,,,,,,,,,,,,,,,,,,,,,,,,,,,,,,,,,,,,,,,,,,,,,,,,,,,,,,,,,,,,,,,,,,,478.5220430420013,478.52886966700316,479.51731141700293,480.5122381669935,480.5122381669935,480.5122381669935,481.5149456250074,left,0.9999768339912407,None,,,,,,,,,,,014388,001,2024-11-28_14h18.23.035,Test,2024.2.4,None,2024-11-28 14h18.33.964327 +0100,
2,150,0,18,None,24,24,0,False,,,,right,1.1506905000132974,None,,,,,,,,,,,,,0,24,24,24,481.5292080829968,,,,,,,,,,,,,,,,,,,,,,,,,,,,,,,,,,,,,,,,,,,,,,,,,,,,,,,,,,,,,,,,,,,,,,481.5232347919955,481.5292080829968,482.517055083008,483.51225533301476,483.51225533301476,483.51225533301476,484.6735255419917,right,1.1506905000132974,None,,,,,,,,,,,014388,001,2024-11-28_14h18.23.035,Test,2024.2.4,None,2024-11-28 14h18.33.964327 +0100,
32,150,180,58,None,25,25,0,False,,,,left,0.9792595840117428,None,,,,,,,,,,,,,0,25,25,25,484.68443795799976,,,,,,,,,,,,,,,,,,,,,,,,,,,,,,,,,,,,,,,,,,,,,,,,,,,,,,,,,,,,,,,,,,,,,,484.6799179170048,484.68443795799976,485.67873820799286,486.66932049999014,486.66932049999014,486.66932049999014,487.65369995799847,left,0.9792595840117428,None,,,,,,,,,,,014388,001,2024-11-28_14h18.23.035,Test,2024.2.4,None,2024-11-28 14h18.33.964327 +0100,
40,150,0,33,None,26,26,0,True,,,,left,1.2437950409948826,None,,,,,,,,,,,,,0,26,26,26,487.66852487501455,,,,,,,,,,,,,,,,,,,,,,,,,,,,,,,,,,,,,,,,,,,,,,,,,,,,,,,,,,,,,,,,,,,,,,487.6619154580112,487.66852487501455,488.6620525830076,489.6527669169882,489.6527669169882,489.6527669169882,490.90335695800604,left,1.2437950409948826,None,,,,,,,,,,,014388,001,2024-11-28_14h18.23.035,Test,2024.2.4,None,2024-11-28 14h18.33.964327 +0100,
70,150,180,26,None,27,27,0,True,,,,left,0.9805086250125896,None,,,,,,,,,,,,,0,27,27,27,490.91857495799195,,,,,,,,,,,,,,,,,,,,,,,,,,,,,,,,,,,,,,,,,,,,,,,,,,,,,,,,,,,,,,,,,,,,,,490.9122454999888,490.91857495799195,491.91205091698794,492.9027204999875,492.9027204999875,492.9027204999875,493.88730170798954,left,0.9805086250125896,None,,,,,,,,,,,014388,001,2024-11-28_14h18.23.035,Test,2024.2.4,None,2024-11-28 14h18.33.964327 +0100,
20,150,90,36,None,28,28,0,False,,,,right,0.9967827500076964,None,,,,,,,,,,,,,0,28,28,28,493.9022110000078,,,,,,,,,,,,,,,,,,,,,,,,,,,,,,,,,,,,,,,,,,,,,,,,,,,,,,,,,,,,,,,,,,,,,,493.89622237501317,493.9022110000078,494.90049770800397,495.886883500003,495.886883500003,495.886883500003,496.8863961249881,right,0.9967827500076964,None,,,,,,,,,,,014388,001,2024-11-28_14h18.23.035,Test,2024.2.4,None,2024-11-28 14h18.33.964327 +0100,
7,150,30,5,None,29,29,0,False,,,,right,1.1368199159915093,None,,,,,,,,,,,,,0,29,29,29,496.9016417080129,,,,,,,,,,,,,,,,,,,,,,,,,,,,,,,,,,,,,,,,,,,,,,,,,,,,,,,,,,,,,,,,,,,,,,496.8949731249886,496.9016417080129,497.8953375419951,498.88636558299186,498.88636558299186,498.88636558299186,500.0307999170036,right,1.1368199159915093,None,,,,,,,,,,,014388,001,2024-11-28_14h18.23.035,Test,2024.2.4,None,2024-11-28 14h18.33.964327 +0100,
39,150,0,27,None,30,30,0,True,,,,left,0.9781900829984806,None,,,,,,,,,,,,,0,30,30,30,500.0453255829925,,,,,,,,,,,,,,,,,,,,,,,,,,,,,,,,,,,,,,,,,,,,,,,,,,,,,,,,,,,,,,,,,,,,,,500.0389161669882,500.0453255829925,501.0337421669974,502.028776207997,502.028776207997,502.028776207997,503.014287375001,left,0.9781900829984806,None,,,,,,,,,,,014388,001,2024-11-28_14h18.23.035,Test,2024.2.4,None,2024-11-28 14h18.33.964327 +0100,
21,150,120,56,None,31,31,0,False,,,,right,1.466366124979686,None,,,,,,,,,,,,,0,31,31,31,503.02884379200987,,,,,,,,,,,,,,,,,,,,,,,,,,,,,,,,,,,,,,,,,,,,,,,,,,,,,,,,,,,,,,,,,,,,,,503.022289000015,503.02884379200987,504.0170087919978,505.0122635829903,505.0122635829903,505.0122635829903,506.4812617920106,right,1.466366124979686,None,,,,,,,,,,,014388,001,2024-11-28_14h18.23.035,Test,2024.2.4,None,2024-11-28 14h18.33.964327 +0100,
27,150,150,46,None,32,32,0,False,,,,left,1.407180416979827,None,,,,,,,,,,,,,0,32,32,32,506.4954230420117,,,,,,,,,,,,,,,,,,,,,,,,,,,,,,,,,,,,,,,,,,,,,,,,,,,,,,,,,,,,,,,,,,,,,,506.4893180000072,506.4954230420117,507.48386512498837,508.4787634999957,508.4787634999957,508.4787634999957,509.8974641250097,left,1.407180416979827,None,,,,,,,,,,,014388,001,2024-11-28_14h18.23.035,Test,2024.2.4,None,2024-11-28 14h18.33.964327 +0100,
5,150,0,30,None,33,33,0,False,,,,right,0.8340861670149025,None,,,,,,,,,,,,,0,33,33,33,509.9119340830075,,,,,,,,,,,,,,,,,,,,,,,,,,,,,,,,,,,,,,,,,,,,,,,,,,,,,,,,,,,,,,,,,,,,,,509.9055673330149,509.9119340830075,510.90005454199854,511.89548687500064,511.89548687500064,511.89548687500064,512.7404174580006,right,0.8340861670149025,None,,,,,,,,,,,014388,001,2024-11-28_14h18.23.035,Test,2024.2.4,None,2024-11-28 14h18.33.964327 +0100,
29,150,150,38,None,34,34,0,False,,,,right,0.6599158750032075,None,,,,,,,,,,,,,0,34,34,34,512.7520557919925,,,,,,,,,,,,,,,,,,,,,,,,,,,,,,,,,,,,,,,,,,,,,,,,,,,,,,,,,,,,,,,,,,,,,,512.7470529999991,512.7520557919925,513.7498610829934,514.7358094170049,514.7358094170049,514.7358094170049,515.3988133330131,right,0.6599158750032075,None,,,,,,,,,,,014388,001,2024-11-28_14h18.23.035,Test,2024.2.4,None,2024-11-28 14h18.33.964327 +0100,
35,150,180,13,None,35,35,0,False,,,,right,1.2503295410133433,None,,,,,,,,,,,,,0,35,35,35,515.4135397500067,,,,,,,,,,,,,,,,,,,,,,,,,,,,,,,,,,,,,,,,,,,,,,,,,,,,,,,,,,,,,,,,,,,,,,515.4068012080097,515.4135397500067,516.4119983749988,517.3956035420124,517.3956035420124,517.3956035420124,518.6561947920127,right,1.2503295410133433,None,,,,,,,,,,,014388,001,2024-11-28_14h18.23.035,Test,2024.2.4,None,2024-11-28 14h18.33.964327 +0100,
12,150,60,60,None,36,36,0,False,,,,right,0.8176271249831188,None,,,,,,,,,,,,,0,36,36,36,518.6683049999992,,,,,,,,,,,,,,,,,,,,,,,,,,,,,,,,,,,,,,,,,,,,,,,,,,,,,,,,,,,,,,,,,,,,,,518.6635370829899,518.6683049999992,519.6624468330119,520.6524260420119,520.6524260420119,520.6524260420119,521.4807894999976,right,0.8176271249831188,None,,,,,,,,,,,014388,001,2024-11-28_14h18.23.035,Test,2024.2.4,None,2024-11-28 14h18.33.964327 +0100,
10,150,30,29,None,37,37,0,False,,,,right,0.7576678329787683,None,,,,,,,,,,,,,0,37,37,37,521.496113583009,,,,,,,,,,,,,,,,,,,,,,,,,,,,,,,,,,,,,,,,,,,,,,,,,,,,,,,,,,,,,,,,,,,,,,521.4895252500137,521.496113583009,522.4831167079974,523.4788053749944,523.4788053749944,523.4788053749944,524.2477292499971,right,0.7576678329787683,None,,,,,,,,,,,014388,001,2024-11-28_14h18.23.035,Test,2024.2.4,None,2024-11-28 14h18.33.964327 +0100,
58,150,120,7,None,38,38,0,True,,,,left,0.9215274160087574,None,,,,,,,,,,,,,0,38,38,38,524.2620444580098,,,,,,,,,,,,,,,,,,,,,,,,,,,,,,,,,,,,,,,,,,,,,,,,,,,,,,,,,,,,,,,,,,,,,,524.2558722500107,524.2620444580098,525.2500460419978,526.2456970420026,526.2456970420026,526.2456970420026,527.1706840420084,left,0.9215274160087574,None,,,,,,,,,,,014388,001,2024-11-28_14h18.23.035,Test,2024.2.4,None,2024-11-28 14h18.33.964327 +0100,
1,150,0,55,None,39,39,0,False,,,,left,1.7013525000074878,None,,,,,,,,,,,,,0,39,39,39,527.185224417015,,,,,,,,,,,,,,,,,,,,,,,,,,,,,,,,,,,,,,,,,,,,,,,,,,,,,,,,,,,,,,,,,,,,,,527.1787210420007,527.185224417015,528.1786548329983,529.1682625829999,529.1682625829999,529.1682625829999,530.8809026250092,left,1.7013525000074878,None,,,,,,,,,,,014388,001,2024-11-28_14h18.23.035,Test,2024.2.4,None,2024-11-28 14h18.33.964327 +0100,
16,150,90,66,None,40,40,0,False,,,,right,0.7444434170029126,None,,,,,,,,,,,,,0,40,40,40,530.8959982919914,,,,,,,,,,,,,,,,,,,,,,,,,,,,,,,,,,,,,,,,,,,,,,,,,,,,,,,,,,,,,,,,,,,,,,530.8886183330033,530.8959982919914,531.8834872079897,532.8787191250012,532.8787191250012,532.8787191250012,533.6309652079944,right,0.7444434170029126,None,,,,,,,,,,,014388,001,2024-11-28_14h18.23.035,Test,2024.2.4,None,2024-11-28 14h18.33.964327 +0100,
60,150,120,51,None,41,41,0,True,,,,right,0.838958750013262,None,,,,,,,,,,,,,0,41,41,41,533.6453161250101,,,,,,,,,,,,,,,,,,,,,,,,,,,,,,,,,,,,,,,,,,,,,,,,,,,,,,,,,,,,,,,,,,,,,,533.6392254579987,533.6453161250101,534.6342165000096,535.6289273750153,535.6289273750153,535.6289273750153,536.470567167009,right,0.838958750013262,None,,,,,,,,,,,014388,001,2024-11-28_14h18.23.035,Test,2024.2.4,None,2024-11-28 14h18.33.964327 +0100,
52,150,90,69,None,42,42,0,True,,,,right,0.8870776660041884,None,,,,,,,,,,,,,0,42,42,42,536.4854109169974,,,,,,,,,,,,,,,,,,,,,,,,,,,,,,,,,,,,,,,,,,,,,,,,,,,,,,,,,,,,,,,,,,,,,,536.4788625419897,536.4854109169974,537.4842957920046,538.4691687079903,538.4691687079903,538.4691687079903,539.364258207992,right,0.8870776660041884,None,,,,,,,,,,,014388,001,2024-11-28_14h18.23.035,Test,2024.2.4,None,2024-11-28 14h18.33.964327 +0100,
51,150,90,59,None,43,43,0,True,,,,right,0.9189762499881908,None,,,,,,,,,,,,,0,43,43,43,539.378308082989,,,,,,,,,,,,,,,,,,,,,,,,,,,,,,,,,,,,,,,,,,,,,,,,,,,,,,,,,,,,,,,,,,,,,,539.372445749992,539.378308082989,540.3673255419999,541.3621818750107,541.3621818750107,541.3621818750107,542.2870777079952,right,0.9189762499881908,None,,,,,,,,,,,014388,001,2024-11-28_14h18.23.035,Test,2024.2.4,None,2024-11-28 14h18.33.964327 +0100,
69,150,180,57,None,44,44,0,True,,,,left,1.3047750419937074,None,,,,,,,,,,,,,0,44,44,44,542.301506207994,,,,,,,,,,,,,,,,,,,,,,,,,,,,,,,,,,,,,,,,,,,,,,,,,,,,,,,,,,,,,,,,,,,,,,542.295619417011,542.301506207994,543.3009580420039,544.2865352079971,544.2865352079971,544.2865352079971,545.5977218750049,left,1.3047750419937074,None,,,,,,,,,,,014388,001,2024-11-28_14h18.23.035,Test,2024.2.4,None,2024-11-28 14h18.33.964327 +0100,
42,150,30,39,None,45,45,0,True,,,,left,0.9995707089838106,None,,,,,,,,,,,,,0,45,45,45,545.6130942080054,,,,,,,,,,,,,,,,,,,,,,,,,,,,,,,,,,,,,,,,,,,,,,,,,,,,,,,,,,,,,,,,,,,,,,545.6065763329971,545.6130942080054,546.6120950829936,547.5955792499881,547.5955792499881,547.5955792499881,548.6057794170047,left,0.9995707089838106,None,,,,,,,,,,,014388,001,2024-11-28_14h18.23.035,Test,2024.2.4,None,2024-11-28 14h18.33.964327 +0100,
28,150,150,42,None,46,46,0,False,,,,left,1.294085166999139,None,,,,,,,,,,,,,0,46,46,46,548.6175579999981,,,,,,,,,,,,,,,,,,,,,,,,,,,,,,,,,,,,,,,,,,,,,,,,,,,,,,,,,,,,,,,,,,,,,,548.6129702920152,548.6175579999981,549.6121634170122,550.6022554580122,550.6022554580122,550.6022554580122,551.9032049580128,left,1.294085166999139,None,,,,,,,,,,,014388,001,2024-11-28_14h18.23.035,Test,2024.2.4,None,2024-11-28 14h18.33.964327 +0100,
23,150,120,6,None,47,47,0,False,,,,left,1.6120224999904167,None,,,,,,,,,,,,,0,47,47,47,551.9179922080075,,,,,,,,,,,,,,,,,,,,,,,,,,,,,,,,,,,,,,,,,,,,,,,,,,,,,,,,,,,,,,,,,,,,,,551.911854542006,551.9179922080075,552.9119209579949,553.9020032919943,553.9020032919943,553.9020032919943,555.5204905830033,left,1.6120224999904167,None,,,,,,,,,,,014388,001,2024-11-28_14h18.23.035,Test,2024.2.4,None,2024-11-28 14h18.33.964327 +0100,
48,150,60,47,None,48,48,0,True,,,,right,1.3470536250097211,None,,,,,,,,,,,,,0,48,48,48,555.5349652919977,,,,,,,,,,,,,,,,,,,,,,,,,,,,,,,,,,,,,,,,,,,,,,,,,,,,,,,,,,,,,,,,,,,,,,555.5290393749892,555.5349652919977,556.5331730830076,557.5194188749883,557.5194188749883,557.5194188749883,558.8704091249965,right,1.3470536250097211,None,,,,,,,,,,,014388,001,2024-11-28_14h18.23.035,Test,2024.2.4,None,2024-11-28 14h18.33.964327 +0100,
13,150,60,53,None,49,49,0,False,,,,right,0.6599602079950273,None,,,,,,,,,,,,,0,49,49,49,558.885720833001,,,,,,,,,,,,,,,,,,,,,,,,,,,,,,,,,,,,,,,,,,,,,,,,,,,,,,,,,,,,,,,,,,,,,,558.8795145830081,558.885720833001,559.8836996250029,560.8697560419969,560.8697560419969,560.8697560419969,561.540428917011,right,0.6599602079950273,None,,,,,,,,,,,014388,001,2024-11-28_14h18.23.035,Test,2024.2.4,None,2024-11-28 14h18.33.964327 +0100,
8,150,30,67,None,50,50,0,False,,,,right,0.8472590419987682,None,,,,,,,,,,,,,0,50,50,50,561.5518215830089,,,,,,,,,,,,,,,,,,,,,,,,,,,,,,,,,,,,,,,,,,,,,,,,,,,,,,,,,,,,,,,,,,,,,,561.5470832500141,561.5518215830089,562.5454559999926,563.5355525829946,563.5355525829946,563.5355525829946,564.3871951670153,right,0.8472590419987682,None,,,,,,,,,,,014388,001,2024-11-28_14h18.23.035,Test,2024.2.4,None,2024-11-28 14h18.33.964327 +0100,
55,150,90,21,None,51,51,0,True,,,,right,0.6604225000191946,None,,,,,,,,,,,,,0,51,51,51,564.4014973749872,,,,,,,,,,,,,,,,,,,,,,,,,,,,,,,,,,,,,,,,,,,,,,,,,,,,,,,,,,,,,,,,,,,,,,564.3955011249927,564.4014973749872,565.3954458330118,566.3868046670104,566.3868046670104,566.3868046670104,567.05405479201,right,0.6604225000191946,None,,,,,,,,,,,014388,001,2024-11-28_14h18.23.035,Test,2024.2.4,None,2024-11-28 14h18.33.964327 +0100,
22,150,120,32,None,52,52,0,False,,,,left,0.7938736669893842,None,,,,,,,,,,,,,0,52,52,52,567.0682214580011,,,,,,,,,,,,,,,,,,,,,,,,,,,,,,,,,,,,,,,,,,,,,,,,,,,,,,,,,,,,,,,,,,,,,,567.0623842919886,567.0682214580011,568.0620674999955,569.0526005419961,569.0526005419961,569.0526005419961,569.8571376670152,left,0.7938736669893842,None,,,,,,,,,,,014388,001,2024-11-28_14h18.23.035,Test,2024.2.4,None,2024-11-28 14h18.33.964327 +0100,
4,150,0,45,None,53,53,0,False,,,,right,0.9040690420079045,None,,,,,,,,,,,,,0,53,53,53,569.8692992920114,,,,,,,,,,,,,,,,,,,,,,,,,,,,,,,,,,,,,,,,,,,,,,,,,,,,,,,,,,,,,,,,,,,,,,569.8646410419897,569.8692992920114,570.8672415420006,571.8526623749931,571.8526623749931,571.8526623749931,572.7641444999899,right,0.9040690420079045,None,,,,,,,,,,,014388,001,2024-11-28_14h18.23.035,Test,2024.2.4,None,2024-11-28 14h18.33.964327 +0100,
37,150,0,2,None,54,54,0,True,,,,left,0.9169084579916671,None,,,,,,,,,,,,,0,54,54,54,572.7797337500087,,,,,,,,,,,,,,,,,,,,,,,,,,,,,,,,,,,,,,,,,,,,,,,,,,,,,,,,,,,,,,,,,,,,,,572.7727639169898,572.7797337500087,573.767709333013,574.7623840830056,574.7623840830056,574.7623840830056,575.6823801250139,left,0.9169084579916671,None,,,,,,,,,,,014388,001,2024-11-28_14h18.23.035,Test,2024.2.4,None,2024-11-28 14h18.33.964327 +0100,
11,150,60,63,None,55,55,0,False,,,,right,0.9329500419844408,None,,,,,,,,,,,,,0,55,55,55,575.6975547079928,,,,,,,,,,,,,,,,,,,,,,,,,,,,,,,,,,,,,,,,,,,,,,,,,,,,,,,,,,,,,,,,,,,,,,575.6906781250145,575.6975547079928,576.6952995420143,577.6792140830075,577.6792140830075,577.6792140830075,578.6145603329933,right,0.9329500419844408,None,,,,,,,,,,,014388,001,2024-11-28_14h18.23.035,Test,2024.2.4,None,2024-11-28 14h18.33.964327 +0100,
24,150,120,20,None,56,56,0,False,,,,left,1.7225671249907464,None,,,,,,,,,,,,,0,56,56,56,578.6291671670042,,,,,,,,,,,,,,,,,,,,,,,,,,,,,,,,,,,,,,,,,,,,,,,,,,,,,,,,,,,,,,,,,,,,,,578.6224205000035,578.6291671670042,579.6168992920138,580.612120500009,580.612120500009,580.612120500009,582.3373877500126,left,1.7225671249907464,None,,,,,,,,,,,014388,001,2024-11-28_14h18.23.035,Test,2024.2.4,None,2024-11-28 14h18.33.964327 +0100,
30,150,150,9,None,57,57,0,False,,,,left,1.0683202919899486,None,,,,,,,,,,,,,0,57,57,57,582.3529305830016,,,,,,,,,,,,,,,,,,,,,,,,,,,,,,,,,,,,,,,,,,,,,,,,,,,,,,,,,,,,,,,,,,,,,,582.3464052499912,582.3529305830016,583.3506861669885,584.3373051669914,584.3373051669914,584.3373051669914,585.4142752079933,left,1.0683202919899486,None,,,,,,,,,,,014388,001,2024-11-28_14h18.23.035,Test,2024.2.4,None,2024-11-28 14h18.33.964327 +0100,
43,150,30,24,None,58,58,0,True,,,,left,0.992096166999545,None,,,,,,,,,,,,,0,58,58,58,585.4294995829987,,,,,,,,,,,,,,,,,,,,,,,,,,,,,,,,,,,,,,,,,,,,,,,,,,,,,,,,,,,,,,,,,,,,,,585.4229870419949,585.4294995829987,586.4177691249934,587.4124415419938,587.4124415419938,587.4124415419938,588.4148165420047,left,0.992096166999545,None,,,,,,,,,,,014388,001,2024-11-28_14h18.23.035,Test,2024.2.4,None,2024-11-28 14h18.33.964327 +0100,
56,150,120,3,None,59,59,0,True,,,,right,1.155176542000845,None,,,,,,,,,,,,,0,59,59,59,588.4304232079885,,,,,,,,,,,,,,,,,,,,,,,,,,,,,,,,,,,,,,,,,,,,,,,,,,,,,,,,,,,,,,,,,,,,,,588.4236462500121,588.4304232079885,589.4286971249967,590.4122320419992,590.4122320419992,590.4122320419992,591.5701432919886,right,1.155176542000845,None,,,,,,,,,,,014388,001,2024-11-28_14h18.23.035,Test,2024.2.4,None,2024-11-28 14h18.33.964327 +0100,
65,150,150,16,None,60,60,0,True,,,,left,0.8174427500052843,None,,,,,,,,,,,,,0,60,60,60,591.5836872080108,,,,,,,,,,,,,,,,,,,,,,,,,,,,,,,,,,,,,,,,,,,,,,,,,,,,,,,,,,,,,,,,,,,,,,591.5777016250067,591.5836872080108,592.5787247080007,593.5690911250131,593.5690911250131,593.5690911250131,594.3980359169946,left,0.8174427500052843,None,,,,,,,,,,,014388,001,2024-11-28_14h18.23.035,Test,2024.2.4,None,2024-11-28 14h18.33.964327 +0100,
26,150,150,37,None,61,61,0,False,,,,left,1.706096791982418,None,,,,,,,,,,,,,0,61,61,61,594.4132017079974,,,,,,,,,,,,,,,,,,,,,,,,,,,,,,,,,,,,,,,,,,,,,,,,,,,,,,,,,,,,,,,,,,,,,,594.4062270419963,594.4132017079974,595.4120088749914,596.3956059580087,596.3956059580087,596.3956059580087,598.1041097500129,left,1.706096791982418,None,,,,,,,,,,,014388,001,2024-11-28_14h18.23.035,Test,2024.2.4,None,2024-11-28 14h18.33.964327 +0100,
44,150,30,4,None,62,62,0,True,,,,left,1.360313875018619,None,,,,,,,,,,,,,0,62,62,62,598.1192988750117,,,,,,,,,,,,,,,,,,,,,,,,,,,,,,,,,,,,,,,,,,,,,,,,,,,,,,,,,,,,,,,,,,,,,,598.1126271669928,598.1192988750117,599.1121342919942,600.1024003750063,600.1024003750063,600.1024003750063,601.4654405000038,left,1.360313875018619,None,,,,,,,,,,,014388,001,2024-11-28_14h18.23.035,Test,2024.2.4,None,2024-11-28 14h18.33.964327 +0100,
63,150,150,22,None,63,63,0,True,,,,right,1.2166240839869715,None,,,,,,,,,,,,,0,63,63,63,601.4800622920156,,,,,,,,,,,,,,,,,,,,,,,,,,,,,,,,,,,,,,,,,,,,,,,,,,,,,,,,,,,,,,,,,,,,,,601.4742028749897,601.4800622920156,602.4787760830077,603.4623235420149,603.4623235420149,603.4623235420149,604.6819512500078,right,1.2166240839869715,None,,,,,,,,,,,014388,001,2024-11-28_14h18.23.035,Test,2024.2.4,None,2024-11-28 14h18.33.964327 +0100,
19,150,90,43,None,64,64,0,False,,,,left,5.750058625009842,None,,,,,,,,,,,,,0,64,64,64,604.6970111670089,,,,,,,,,,,,,,,,,,,,,,,,,,,,,,,,,,,,,,,,,,,,,,,,,,,,,,,,,,,,,,,,,,,,,,604.6907186250028,604.6970111670089,605.6954563329928,606.6788328750117,606.6788328750117,606.6788328750117,612.4316537920095,left,5.750058625009842,None,609.6672777080094,609.6672777080094,609.6787826670043,,,,,,,,014388,001,2024-11-28_14h18.23.035,Test,2024.2.4,None,2024-11-28 14h18.33.964327 +0100,
62,150,150,68,None,65,65,0,True,,,,right,0.7834747080050875,None,,,,,,,,,,,,,0,65,65,65,612.4459914170147,,,,,,,,,,,,,,,,,,,,,,,,,,,,,,,,,,,,,,,,,,,,,,,,,,,,,,,,,,,,,,,,,,,,,,612.4399782080145,612.4459914170147,613.4339952080045,614.4289229169954,614.4289229169954,614.4289229169954,615.2152587079909,right,0.7834747080050875,None,,,,,,,,,,,014388,001,2024-11-28_14h18.23.035,Test,2024.2.4,None,2024-11-28 14h18.33.964327 +0100,
25,150,120,65,None,66,66,0,False,,,,right,1.957675042009214,None,,,,,,,,,,,,,0,66,66,66,615.2291915829992,,,,,,,,,,,,,,,,,,,,,,,,,,,,,,,,,,,,,,,,,,,,,,,,,,,,,,,,,,,,,,,,,,,,,,615.2234545829997,615.2291915829992,616.2167014580045,617.2121945830004,617.2121945830004,617.2121945830004,619.1809299580054,right,1.957675042009214,None,,,,,,,,,,,014388,001,2024-11-28_14h18.23.035,Test,2024.2.4,None,2024-11-28 14h18.33.964327 +0100,
38,150,0,15,None,67,67,0,True,,,,left,1.0056776249839459,None,,,,,,,,,,,,,0,67,67,67,619.1965949170117,,,,,,,,,,,,,,,,,,,,,,,,,,,,,,,,,,,,,,,,,,,,,,,,,,,,,,,,,,,,,,,,,,,,,,619.1897354169923,619.1965949170117,620.1954962080054,621.1789016670082,621.1789016670082,621.1789016670082,622.1871648750093,left,1.0056776249839459,None,,,,,,,,,,,014388,001,2024-11-28_14h18.23.035,Test,2024.2.4,None,2024-11-28 14h18.33.964327 +0100,
66,150,180,35,None,68,68,0,True,,,,right,1.1058916670153849,None,,,,,,,,,,,,,0,68,68,68,622.2017181249976,,,,,,,,,,,,,,,,,,,,,,,,,,,,,,,,,,,,,,,,,,,,,,,,,,,,,,,,,,,,,,,,,,,,,,622.1958736249944,622.2017181249976,623.195498666988,624.1858318749873,624.1858318749873,624.1858318749873,625.297486083,right,1.1058916670153849,None,,,,,,,,,,,014388,001,2024-11-28_14h18.23.035,Test,2024.2.4,None,2024-11-28 14h18.33.964327 +0100,
17,150,90,54,None,69,69,0,False,,,,right,1.1419432919938117,None,,,,,,,,,,,,,0,69,69,69,625.312201666995,,,,,,,,,,,,,,,,,,,,,,,,,,,,,,,,,,,,,,,,,,,,,,,,,,,,,,,,,,,,,,,,,,,,,,625.3061640000087,625.312201666995,626.3002780420065,627.2956108750077,627.2956108750077,627.2956108750077,628.447639207996,right,1.1419432919938117,None,,,,,,,,,,,014388,001,2024-11-28_14h18.23.035,Test,2024.2.4,None,2024-11-28 14h18.33.964327 +0100,
,,,,,,,,,,,,,,,,,,,,,,,,,,,,,,,,,,,,,,,,,,,,,,,,,,,,,,,,,,,,,,,,,,,,,,,,,,,,,,,,,,,,,,,,,,,,,,,,,,,,,,,,,,,,,,,,,,628.4480023749929,628.4589220829948,628.4589220829948,630.3212424580124,space,1.8596685829979833,None,014388,001,2024-11-28_14h18.23.035,Test,2024.2.4,None,2024-11-28 14h18.33.964327 +0100,
