Trial_Number,Exposure_Duration,Displacement_Angle,Stimulus,Response,thisN,thisTrialN,thisRepN,Is_Distractor,key_resp_3.keys,key_resp_3.rt,key_resp_3.duration,key_resp_7.keys,key_resp_7.rt,key_resp_7.duration,trials.thisRepN,trials.thisTrialN,trials.thisN,trials.thisIndex,trials_2.thisRepN,trials_2.thisTrialN,trials_2.thisN,trials_2.thisIndex,trials_3.thisRepN,trials_3.thisTrialN,trials_3.thisN,trials_3.thisIndex,trials_4.thisRepN,trials_4.thisTrialN,trials_4.thisN,trials_4.thisIndex,thisRow.t,notes,Intro_to_experiment.started,important1_2.started,key_resp_8.started,Intro_to_experiment.stopped,key_resp_8.keys,key_resp_8.rt,key_resp_8.duration,important.started,important1.started,key_resp_4.started,important.stopped,key_resp_4.keys,key_resp_4.rt,key_resp_4.duration,instruction.started,text_7.started,key_resp_9.started,instruction.stopped,key_resp_9.keys,key_resp_9.rt,key_resp_9.duration,training_trial.started,cross.started,image.started,aperture.started,cross.stopped,image.stopped,aperture.stopped,training_trial.stopped,New_instruction.started,text.started,key_resp_2.started,New_instruction.stopped,key_resp_2.keys,key_resp_2.rt,key_resp_2.duration,test_trial.started,cross2.started,cross2.stopped,image_2.started,key_resp_3.started,aperture_2.started,test_trial.stopped,trials_2.key_resp_3.keys,trials_2.key_resp_3.rt,trials_2.key_resp_3.duration,start_blok_2.started,key_resp_5.started,text_4.started,start_blok_2.stopped,key_resp_5.keys,key_resp_5.rt,key_resp_5.duration,training_2.started,cross_2.started,image_3.started,aperture_3.started,cross_2.stopped,image_3.stopped,aperture_3.stopped,training_2.stopped,nyeste_instruks.started,text_5.started,key_resp_6.started,nyeste_instruks.stopped,key_resp_6.keys,key_resp_6.rt,key_resp_6.duration,test_2.started,cross2_2.started,cross2_2.stopped,image_4.started,key_resp_7.started,aperture_4.started,test_2.stopped,trials_4.key_resp_7.keys,trials_4.key_resp_7.rt,trials_4.key_resp_7.duration,Instruction1.started,Instruktion.started,key_resp.started,Instruction1.stopped,key_resp.keys,key_resp.rt,key_resp.duration,participant,session,date,expName,psychopyVersion,frameRate,expStart,
,,,,,,,,,,,,,,,,,,,,,,,,,,,,,,,,,0.007444792005117051,0.017210807010997087,0.017210807010997087,19.059238113011816,space,19.01198098801251,None,,,,,,,,,,,,,,,,,,,,,,,,,,,,,,,,,,,,,,,,,,,,,,,,,,,,,,,,,,,,,,,,,,,,,,,,,,,,,,,031244,001,2024-12-03_21h26.57.206,Test,2024.2.1,60.42799176688793,2024-12-03 21h27.33.194627 +0100,
,,,,,,,,,,,,,,,,,,,,,,,,,,,,,,,,,,,,,,,,19.05930013100442,19.081753092003055,19.081753092003055,38.422199621010805,space,19.328420673002256,None,,,,,,,,,,,,,,,,,,,,,,,,,,,,,,,,,,,,,,,,,,,,,,,,,,,,,,,,,,,,,,,,,,,,,,,,031244,001,2024-12-03_21h26.57.206,Test,2024.2.1,60.42799176688793,2024-12-03 21h27.33.194627 +0100,
,,,,,,,,,,,,,,,,,,,,,,,,,,,,,,,,,,,,,,,,,,,,,,,38.4222593010054,38.436720494006295,38.436720494006295,48.83958630901179,space,10.385806299993419,None,,,,,,,,,,,,,,,,,,,,,,,,,,,,,,,,,,,,,,,,,,,,,,,,,,,,,,,,,,,,,,,,,031244,001,2024-12-03_21h26.57.206,Test,2024.2.1,60.42799176688793,2024-12-03 21h27.33.194627 +0100,
21,150,120,70,None,0,0,0,,,,,,,,0,0,0,20,,,,,,,,,,,,,48.87064546601323,,,,,,,,,,,,,,,,,,,,,,,48.86138671000663,48.87064546601323,49.05440614100371,49.05440614100371,49.07158148899907,50.756168111998704,50.756168111998704,50.738972907012794,,,,,,,,,,,,,,,,,,,,,,,,,,,,,,,,,,,,,,,,,,,,,,,,,,,,,,,,,031244,001,2024-12-03_21h26.57.206,Test,2024.2.1,60.42799176688793,2024-12-03 21h27.33.194627 +0100,
32,150,180,37,None,1,1,0,,,,,,,,0,1,1,31,,,,,,,,,,,,,50.756168111998704,,,,,,,,,,,,,,,,,,,,,,,50.74761265900452,50.756168111998704,50.93803604900313,50.93803604900313,50.971446194002056,52.63983088900568,52.63983088900568,52.62269116099924,,,,,,,,,,,,,,,,,,,,,,,,,,,,,,,,,,,,,,,,,,,,,,,,,,,,,,,,,031244,001,2024-12-03_21h26.57.206,Test,2024.2.1,60.42799176688793,2024-12-03 21h27.33.194627 +0100,
8,150,30,18,None,2,2,0,,,,,,,,0,2,2,7,,,,,,,,,,,,,52.63983088900568,,,,,,,,,,,,,,,,,,,,,,,52.63038898599916,52.63983088900568,52.85516566700244,52.85516566700244,52.85516566700244,54.55457856900466,54.55457856900466,54.53910983000242,,,,,,,,,,,,,,,,,,,,,,,,,,,,,,,,,,,,,,,,,,,,,,,,,,,,,,,,,031244,001,2024-12-03_21h26.57.206,Test,2024.2.1,60.42799176688793,2024-12-03 21h27.33.194627 +0100,
3,150,0,10,None,3,3,0,,,,,,,,0,3,3,2,,,,,,,,,,,,,54.55457856900466,,,,,,,,,,,,,,,,,,,,,,,54.54576484800782,54.55457856900466,54.755433072001324,54.755433072001324,54.755433072001324,56.45468260800408,56.45468260800408,56.4393439500127,,,,,,,,,,,,,,,,,,,,,,,,,,,,,,,,,,,,,,,,,,,,,,,,,,,,,,,,,031244,001,2024-12-03_21h26.57.206,Test,2024.2.1,60.42799176688793,2024-12-03 21h27.33.194627 +0100,
22,150,120,42,None,4,4,0,,,,,,,,0,4,4,21,,,,,,,,,,,,,56.45468260800408,,,,,,,,,,,,,,,,,,,,,,,56.44652937700448,56.45468260800408,56.65541309500986,56.65541309500986,56.65541309500986,58.35487528001249,58.35487528001249,58.33934179600328,,,,,,,,,,,,,,,,,,,,,,,,,,,,,,,,,,,,,,,,,,,,,,,,,,,,,,,,,031244,001,2024-12-03_21h26.57.206,Test,2024.2.1,60.42799176688793,2024-12-03 21h27.33.194627 +0100,
12,150,60,8,None,5,5,0,,,,,,,,0,5,5,11,,,,,,,,,,,,,58.35487528001249,,,,,,,,,,,,,,,,,,,,,,,58.34503384301206,58.35487528001249,58.53867345501203,58.53867345501203,58.55595173500478,60.238923121010885,60.238923121010885,60.22300139001163,,,,,,,,,,,,,,,,,,,,,,,,,,,,,,,,,,,,,,,,,,,,,,,,,,,,,,,,,031244,001,2024-12-03_21h26.57.206,Test,2024.2.1,60.42799176688793,2024-12-03 21h27.33.194627 +0100,
14,150,60,62,None,6,6,0,,,,,,,,0,6,6,13,,,,,,,,,,,,,60.238923121010885,,,,,,,,,,,,,,,,,,,,,,,60.23055946100794,60.238923121010885,60.43946413000231,60.43946413000231,60.43946413000231,62.13870280999981,62.13870280999981,62.122949412005255,,,,,,,,,,,,,,,,,,,,,,,,,,,,,,,,,,,,,,,,,,,,,,,,,,,,,,,,,031244,001,2024-12-03_21h26.57.206,Test,2024.2.1,60.42799176688793,2024-12-03 21h27.33.194627 +0100,
35,150,180,16,None,7,7,0,,,,,,,,0,7,7,34,,,,,,,,,,,,,62.13870280999981,,,,,,,,,,,,,,,,,,,,,,,62.128068244011956,62.13870280999981,62.339021201012656,62.339021201012656,62.339021201012656,64.03826754700276,64.03826754700276,64.02251169800002,,,,,,,,,,,,,,,,,,,,,,,,,,,,,,,,,,,,,,,,,,,,,,,,,,,,,,,,,031244,001,2024-12-03_21h26.57.206,Test,2024.2.1,60.42799176688793,2024-12-03 21h27.33.194627 +0100,
18,150,90,59,None,8,8,0,,,,,,,,0,8,8,17,,,,,,,,,,,,,64.03826754700276,,,,,,,,,,,,,,,,,,,,,,,64.02756163400772,64.0554314230103,64.23838005700964,64.23838005700964,64.25528775900602,65.93926241400186,65.93926241400186,65.92321687900403,,,,,,,,,,,,,,,,,,,,,,,,,,,,,,,,,,,,,,,,,,,,,,,,,,,,,,,,,031244,001,2024-12-03_21h26.57.206,Test,2024.2.1,60.42799176688793,2024-12-03 21h27.33.194627 +0100,
34,150,180,61,None,9,9,0,,,,,,,,0,9,9,33,,,,,,,,,,,,,65.93926241400186,,,,,,,,,,,,,,,,,,,,,,,65.92896329100768,65.93926241400186,66.13911877801002,66.13911877801002,66.13911877801002,67.83886698599963,67.83886698599963,67.82361815401237,,,,,,,,,,,,,,,,,,,,,,,,,,,,,,,,,,,,,,,,,,,,,,,,,,,,,,,,,031244,001,2024-12-03_21h26.57.206,Test,2024.2.1,60.42799176688793,2024-12-03 21h27.33.194627 +0100,
15,150,60,9,None,10,10,0,,,,,,,,0,10,10,14,,,,,,,,,,,,,67.83886698599963,,,,,,,,,,,,,,,,,,,,,,,67.82936448400142,67.83886698599963,68.03914552700007,68.03914552700007,68.03914552700007,69.73887179601297,69.73887179601297,69.72360783100885,,,,,,,,,,,,,,,,,,,,,,,,,,,,,,,,,,,,,,,,,,,,,,,,,,,,,,,,,031244,001,2024-12-03_21h26.57.206,Test,2024.2.1,60.42799176688793,2024-12-03 21h27.33.194627 +0100,
29,150,150,44,None,11,11,0,,,,,,,,0,11,11,28,,,,,,,,,,,,,69.73887179601297,,,,,,,,,,,,,,,,,,,,,,,69.73017334700853,69.73887179601297,69.93950933399901,69.93950933399901,69.93950933399901,71.63905762400827,71.63905762400827,71.62423199000477,,,,,,,,,,,,,,,,,,,,,,,,,,,,,,,,,,,,,,,,,,,,,,,,,,,,,,,,,031244,001,2024-12-03_21h26.57.206,Test,2024.2.1,60.42799176688793,2024-12-03 21h27.33.194627 +0100,
25,150,120,26,None,12,12,0,,,,,,,,0,12,12,24,,,,,,,,,,,,,71.63905762400827,,,,,,,,,,,,,,,,,,,,,,,71.6306619530078,71.63905762400827,71.83990511400043,71.83990511400043,71.83990511400043,73.53946234600153,73.53946234600153,73.52357071400911,,,,,,,,,,,,,,,,,,,,,,,,,,,,,,,,,,,,,,,,,,,,,,,,,,,,,,,,,031244,001,2024-12-03_21h26.57.206,Test,2024.2.1,60.42799176688793,2024-12-03 21h27.33.194627 +0100,
28,150,150,29,None,13,13,0,,,,,,,,0,13,13,27,,,,,,,,,,,,,73.53946234600153,,,,,,,,,,,,,,,,,,,,,,,73.52946651101229,73.53946234600153,73.7399482440087,73.7399482440087,73.7399482440087,75.4394377360004,75.4394377360004,75.4238104820106,,,,,,,,,,,,,,,,,,,,,,,,,,,,,,,,,,,,,,,,,,,,,,,,,,,,,,,,,031244,001,2024-12-03_21h26.57.206,Test,2024.2.1,60.42799176688793,2024-12-03 21h27.33.194627 +0100,
27,150,150,41,None,14,14,0,,,,,,,,0,14,14,26,,,,,,,,,,,,,75.4394377360004,,,,,,,,,,,,,,,,,,,,,,,75.42911171200103,75.4394377360004,75.63999942100781,75.63999942100781,75.63999942100781,77.33952691900777,77.33952691900777,77.32392738800263,,,,,,,,,,,,,,,,,,,,,,,,,,,,,,,,,,,,,,,,,,,,,,,,,,,,,,,,,031244,001,2024-12-03_21h26.57.206,Test,2024.2.1,60.42799176688793,2024-12-03 21h27.33.194627 +0100,
24,150,120,49,None,15,15,0,,,,,,,,0,15,15,23,,,,,,,,,,,,,77.33952691900777,,,,,,,,,,,,,,,,,,,,,,,77.32986600900767,77.33952691900777,77.53976350701123,77.53976350701123,77.53976350701123,79.23965667201264,79.23965667201264,79.22462344300584,,,,,,,,,,,,,,,,,,,,,,,,,,,,,,,,,,,,,,,,,,,,,,,,,,,,,,,,,031244,001,2024-12-03_21h26.57.206,Test,2024.2.1,60.42799176688793,2024-12-03 21h27.33.194627 +0100,
26,150,150,17,None,16,16,0,,,,,,,,0,16,16,25,,,,,,,,,,,,,79.23965667201264,,,,,,,,,,,,,,,,,,,,,,,79.23084601100709,79.23965667201264,79.44094686300377,79.44094686300377,79.44094686300377,81.13968201600073,81.13968201600073,81.12427027300873,,,,,,,,,,,,,,,,,,,,,,,,,,,,,,,,,,,,,,,,,,,,,,,,,,,,,,,,,031244,001,2024-12-03_21h26.57.206,Test,2024.2.1,60.42799176688793,2024-12-03 21h27.33.194627 +0100,
7,150,30,15,None,17,17,0,,,,,,,,0,17,17,6,,,,,,,,,,,,,81.13968201600073,,,,,,,,,,,,,,,,,,,,,,,81.1300240260025,81.13968201600073,81.34044899600849,81.34044899600849,81.34044899600849,83.04100533100427,83.04100533100427,83.02490673601278,,,,,,,,,,,,,,,,,,,,,,,,,,,,,,,,,,,,,,,,,,,,,,,,,,,,,,,,,031244,001,2024-12-03_21h26.57.206,Test,2024.2.1,60.42799176688793,2024-12-03 21h27.33.194627 +0100,
1,150,0,36,None,18,18,0,,,,,,,,0,18,18,0,,,,,,,,,,,,,83.04100533100427,,,,,,,,,,,,,,,,,,,,,,,83.03221928101266,83.04100533100427,83.24031586800993,83.24031586800993,83.24031586800993,84.94009318800818,84.94009318800818,84.92440602600982,,,,,,,,,,,,,,,,,,,,,,,,,,,,,,,,,,,,,,,,,,,,,,,,,,,,,,,,,031244,001,2024-12-03_21h26.57.206,Test,2024.2.1,60.42799176688793,2024-12-03 21h27.33.194627 +0100,
23,150,120,67,None,19,19,0,,,,,,,,0,19,19,22,,,,,,,,,,,,,84.94009318800818,,,,,,,,,,,,,,,,,,,,,,,84.93005089600047,84.94009318800818,85.14084564600489,85.14084564600489,85.14084564600489,86.84443540600478,86.84443540600478,86.82446404600341,,,,,,,,,,,,,,,,,,,,,,,,,,,,,,,,,,,,,,,,,,,,,,,,,,,,,,,,,031244,001,2024-12-03_21h26.57.206,Test,2024.2.1,60.42799176688793,2024-12-03 21h27.33.194627 +0100,
31,150,180,1,None,20,20,0,,,,,,,,0,20,20,30,,,,,,,,,,,,,86.84443540600478,,,,,,,,,,,,,,,,,,,,,,,86.8295958200033,86.84443540600478,87.04055855701154,87.04055855701154,87.05717776301026,88.74044273101026,88.74044273101026,88.72440634800296,,,,,,,,,,,,,,,,,,,,,,,,,,,,,,,,,,,,,,,,,,,,,,,,,,,,,,,,,031244,001,2024-12-03_21h26.57.206,Test,2024.2.1,60.42799176688793,2024-12-03 21h27.33.194627 +0100,
4,150,0,47,None,21,21,0,,,,,,,,0,21,21,3,,,,,,,,,,,,,88.74044273101026,,,,,,,,,,,,,,,,,,,,,,,88.73074229901249,88.74044273101026,88.94106043501233,88.94106043501233,88.94106043501233,90.64080157200806,90.64080157200806,90.6250598350016,,,,,,,,,,,,,,,,,,,,,,,,,,,,,,,,,,,,,,,,,,,,,,,,,,,,,,,,,031244,001,2024-12-03_21h26.57.206,Test,2024.2.1,60.42799176688793,2024-12-03 21h27.33.194627 +0100,
13,150,60,4,None,22,22,0,,,,,,,,0,22,22,12,,,,,,,,,,,,,90.64080157200806,,,,,,,,,,,,,,,,,,,,,,,90.63152454901137,90.64080157200806,90.84121619199868,90.84121619199868,90.84121619199868,92.54080658100429,92.54080658100429,92.52497878800204,,,,,,,,,,,,,,,,,,,,,,,,,,,,,,,,,,,,,,,,,,,,,,,,,,,,,,,,,031244,001,2024-12-03_21h26.57.206,Test,2024.2.1,60.42799176688793,2024-12-03 21h27.33.194627 +0100,
16,150,90,46,None,23,23,0,,,,,,,,0,23,23,15,,,,,,,,,,,,,92.54080658100429,,,,,,,,,,,,,,,,,,,,,,,92.53182388099958,92.54080658100429,92.74111527200148,92.74111527200148,92.74111527200148,94.44060222500411,94.44060222500411,94.42527700800565,,,,,,,,,,,,,,,,,,,,,,,,,,,,,,,,,,,,,,,,,,,,,,,,,,,,,,,,,031244,001,2024-12-03_21h26.57.206,Test,2024.2.1,60.42799176688793,2024-12-03 21h27.33.194627 +0100,
11,150,60,38,None,24,24,0,,,,,,,,0,24,24,10,,,,,,,,,,,,,94.44060222500411,,,,,,,,,,,,,,,,,,,,,,,94.43195938800636,94.44060222500411,94.64124437900318,94.64124437900318,94.64124437900318,96.34147856599884,96.34147856599884,96.32546981101041,,,,,,,,,,,,,,,,,,,,,,,,,,,,,,,,,,,,,,,,,,,,,,,,,,,,,,,,,031244,001,2024-12-03_21h26.57.206,Test,2024.2.1,60.42799176688793,2024-12-03 21h27.33.194627 +0100,
9,150,30,51,None,25,25,0,,,,,,,,0,25,25,8,,,,,,,,,,,,,96.34147856599884,,,,,,,,,,,,,,,,,,,,,,,96.33111049300351,96.34147856599884,96.54234326900041,96.54234326900041,96.54234326900041,98.24982414800616,98.24982414800616,98.233510407008,,,,,,,,,,,,,,,,,,,,,,,,,,,,,,,,,,,,,,,,,,,,,,,,,,,,,,,,,031244,001,2024-12-03_21h26.57.206,Test,2024.2.1,60.42799176688793,2024-12-03 21h27.33.194627 +0100,
19,150,90,65,None,26,26,0,,,,,,,,0,26,26,18,,,,,,,,,,,,,98.24982414800616,,,,,,,,,,,,,,,,,,,,,,,98.24224928300828,98.24982414800616,98.44225408100465,98.44225408100465,98.45910181100771,100.1412318090006,100.1412318090006,100.12592337800015,,,,,,,,,,,,,,,,,,,,,,,,,,,,,,,,,,,,,,,,,,,,,,,,,,,,,,,,,031244,001,2024-12-03_21h26.57.206,Test,2024.2.1,60.42799176688793,2024-12-03 21h27.33.194627 +0100,
2,150,0,52,None,27,27,0,,,,,,,,0,27,27,1,,,,,,,,,,,,,100.1412318090006,,,,,,,,,,,,,,,,,,,,,,,100.1331557980011,100.1412318090006,100.34144794401072,100.34144794401072,100.34144794401072,102.04183588900196,102.04183588900196,102.02599865800585,,,,,,,,,,,,,,,,,,,,,,,,,,,,,,,,,,,,,,,,,,,,,,,,,,,,,,,,,031244,001,2024-12-03_21h26.57.206,Test,2024.2.1,60.42799176688793,2024-12-03 21h27.33.194627 +0100,
5,150,0,32,None,28,28,0,,,,,,,,0,28,28,4,,,,,,,,,,,,,102.04183588900196,,,,,,,,,,,,,,,,,,,,,,,102.031812516012,102.04183588900196,102.24165648400958,102.24165648400958,102.24165648400958,103.94172543101013,103.94172543101013,103.92587361400365,,,,,,,,,,,,,,,,,,,,,,,,,,,,,,,,,,,,,,,,,,,,,,,,,,,,,,,,,031244,001,2024-12-03_21h26.57.206,Test,2024.2.1,60.42799176688793,2024-12-03 21h27.33.194627 +0100,
20,150,90,68,None,29,29,0,,,,,,,,0,29,29,19,,,,,,,,,,,,,103.94172543101013,,,,,,,,,,,,,,,,,,,,,,,103.93353014100285,103.94172543101013,104.1419006340002,104.1419006340002,104.1419006340002,105.8416074780107,105.8416074780107,105.82547564400011,,,,,,,,,,,,,,,,,,,,,,,,,,,,,,,,,,,,,,,,,,,,,,,,,,,,,,,,,031244,001,2024-12-03_21h26.57.206,Test,2024.2.1,60.42799176688793,2024-12-03 21h27.33.194627 +0100,
17,150,90,25,None,30,30,0,,,,,,,,0,30,30,16,,,,,,,,,,,,,105.8416074780107,,,,,,,,,,,,,,,,,,,,,,,105.83092455701262,105.8416074780107,106.04224389701267,106.04224389701267,106.04224389701267,107.74202730500838,107.74202730500838,107.72608187000151,,,,,,,,,,,,,,,,,,,,,,,,,,,,,,,,,,,,,,,,,,,,,,,,,,,,,,,,,031244,001,2024-12-03_21h26.57.206,Test,2024.2.1,60.42799176688793,2024-12-03 21h27.33.194627 +0100,
10,150,30,19,None,31,31,0,,,,,,,,0,31,31,9,,,,,,,,,,,,,107.74202730500838,,,,,,,,,,,,,,,,,,,,,,,107.7313161540078,107.74202730500838,107.94200158200692,107.94200158200692,107.94200158200692,109.64198224899883,109.64198224899883,109.6262925320043,,,,,,,,,,,,,,,,,,,,,,,,,,,,,,,,,,,,,,,,,,,,,,,,,,,,,,,,,031244,001,2024-12-03_21h26.57.206,Test,2024.2.1,60.42799176688793,2024-12-03 21h27.33.194627 +0100,
30,150,150,53,None,32,32,0,,,,,,,,0,32,32,29,,,,,,,,,,,,,109.64198224899883,,,,,,,,,,,,,,,,,,,,,,,109.63170262200583,109.64198224899883,109.84229838399915,109.84229838399915,109.84229838399915,111.5459949060023,111.5459949060023,111.52746878600738,,,,,,,,,,,,,,,,,,,,,,,,,,,,,,,,,,,,,,,,,,,,,,,,,,,,,,,,,031244,001,2024-12-03_21h26.57.206,Test,2024.2.1,60.42799176688793,2024-12-03 21h27.33.194627 +0100,
33,150,180,23,None,33,33,0,,,,,,,,0,33,33,32,,,,,,,,,,,,,111.5459949060023,,,,,,,,,,,,,,,,,,,,,,,111.53685369101004,111.5459949060023,111.74282837800274,111.74282837800274,111.75896964300773,113.44204465400253,113.44204465400253,113.4269440180069,,,,,,,,,,,,,,,,,,,,,,,,,,,,,,,,,,,,,,,,,,,,,,,,,,,,,,,,,031244,001,2024-12-03_21h26.57.206,Test,2024.2.1,60.42799176688793,2024-12-03 21h27.33.194627 +0100,
6,150,30,66,None,34,34,0,,,,,,,,0,34,34,5,,,,,,,,,,,,,113.44204465400253,,,,,,,,,,,,,,,,,,,,,,,113.43317737799953,113.44204465400253,113.6431394770043,113.6431394770043,113.6431394770043,115.34242575000098,115.34242575000098,115.32745017700654,,,,,,,,,,,,,,,,,,,,,,,,,,,,,,,,,,,,,,,,,,,,,,,,,,,,,,,,,031244,001,2024-12-03_21h26.57.206,Test,2024.2.1,60.42799176688793,2024-12-03 21h27.33.194627 +0100,
,,,,,,,,,,,,,,,,,,,,,,,,,,,,,,,,,,,,,,,,,,,,,,,,,,,,,,,,,,,,,,115.32765254699916,115.34242575000098,115.34242575000098,128.51226809200307,space,13.1571482510044,None,,,,,,,,,,,,,,,,,,,,,,,,,,,,,,,,,,,,,,,,,,,,,,,,,,031244,001,2024-12-03_21h26.57.206,Test,2024.2.1,60.42799176688793,2024-12-03 21h27.33.194627 +0100,
39,150,0,3,None,0,0,0,True,left,1.0883912840072298,None,,,,,,,,0,0,0,0,,,,,,,,,128.53824967500987,,,,,,,,,,,,,,,,,,,,,,,,,,,,,,,,,,,,,,128.52889423600573,128.53824967500987,129.5439136440109,130.52735461801058,130.52735461801058,130.52735461801058,131.6285897730122,left,1.0883912840072298,None,,,,,,,,,,,,,,,,,,,,,,,,,,,,,,,,,,,,,,,,031244,001,2024-12-03_21h26.57.206,Test,2024.2.1,60.42799176688793,2024-12-03 21h27.33.194627 +0100,
52,150,90,13,None,1,1,0,True,right,0.7667312420089729,None,,,,,,,,0,1,1,1,,,,,,,,,131.66296118800528,,,,,,,,,,,,,,,,,,,,,,,,,,,,,,,,,,,,,,131.63467973700608,131.66296118800528,132.67676989300526,133.6281042900082,133.6281042900082,133.6281042900082,134.4116419530037,right,0.7667312420089729,None,,,,,,,,,,,,,,,,,,,,,,,,,,,,,,,,,,,,,,,,031244,001,2024-12-03_21h26.57.206,Test,2024.2.1,60.42799176688793,2024-12-03 21h27.33.194627 +0100,
45,150,30,21,None,2,2,0,True,left,2.5089956750016427,None,,,,,,,,0,2,2,2,,,,,,,,,134.4275875230087,,,,,,,,,,,,,,,,,,,,,,,,,,,,,,,,,,,,,,134.41754838600173,134.4275875230087,135.42738914801157,136.42695568301133,136.42695568301133,136.42695568301133,138.9461442620086,left,2.5089956750016427,None,,,,,,,,,,,,,,,,,,,,,,,,,,,,,,,,,,,,,,,,031244,001,2024-12-03_21h26.57.206,Test,2024.2.1,60.42799176688793,2024-12-03 21h27.33.194627 +0100,
51,150,90,5,None,3,3,0,True,left,1.5745963030058192,None,,,,,,,,0,3,3,3,,,,,,,,,138.9613361070078,,,,,,,,,,,,,,,,,,,,,,,,,,,,,,,,,,,,,,138.9524686240038,138.9613361070078,139.96130442300637,140.9611540670012,140.9611540670012,140.9611540670012,142.54581421799958,left,1.5745963030058192,None,,,,,,,,,,,,,,,,,,,,,,,,,,,,,,,,,,,,,,,,031244,001,2024-12-03_21h26.57.206,Test,2024.2.1,60.42799176688793,2024-12-03 21h27.33.194627 +0100,
18,150,90,59,None,4,4,0,False,right,0.8680533709994052,None,,,,,,,,0,4,4,4,,,,,,,,,142.56142200500472,,,,,,,,,,,,,,,,,,,,,,,,,,,,,,,,,,,,,,142.55197864200454,142.56142200500472,143.56161226901168,144.54462647699984,144.54462647699984,144.54462647699984,145.43074221500137,right,0.8680533709994052,None,,,,,,,,,,,,,,,,,,,,,,,,,,,,,,,,,,,,,,,,031244,001,2024-12-03_21h26.57.206,Test,2024.2.1,60.42799176688793,2024-12-03 21h27.33.194627 +0100,
21,150,120,70,None,5,5,0,False,right,0.9459967520087957,None,,,,,,,,0,5,5,5,,,,,,,,,145.44775639699947,,,,,,,,,,,,,,,,,,,,,,,,,,,,,,,,,,,,,,145.43865370500134,145.44775639699947,146.46095238601265,147.4327789920062,147.4327789920062,147.4327789920062,148.38093720799952,right,0.9459967520087957,None,,,,,,,,,,,,,,,,,,,,,,,,,,,,,,,,,,,,,,,,031244,001,2024-12-03_21h26.57.206,Test,2024.2.1,60.42799176688793,2024-12-03 21h27.33.194627 +0100,
3,150,0,10,None,6,6,0,False,left,1.510333931990317,None,,,,,,,,0,6,6,6,,,,,,,,,148.39543877899996,,,,,,,,,,,,,,,,,,,,,,,,,,,,,,,,,,,,,,148.3866958800063,148.39543877899996,149.39530911200563,150.39549132100365,150.39549132100365,150.39549132100365,151.91347120499995,left,1.510333931990317,None,,,,,,,,,,,,,,,,,,,,,,,,,,,,,,,,,,,,,,,,031244,001,2024-12-03_21h26.57.206,Test,2024.2.1,60.42799176688793,2024-12-03 21h27.33.194627 +0100,
35,150,180,16,None,7,7,0,False,right,1.1880811680020997,None,,,,,,,,0,7,7,7,,,,,,,,,151.92876103101298,,,,,,,,,,,,,,,,,,,,,,,,,,,,,,,,,,,,,,151.91898271800892,151.92876103101298,152.92979803100752,153.92869723400509,153.92869723400509,153.92869723400509,155.13013709800725,right,1.1880811680020997,None,,,,,,,,,,,,,,,,,,,,,,,,,,,,,,,,,,,,,,,,031244,001,2024-12-03_21h26.57.206,Test,2024.2.1,60.42799176688793,2024-12-03 21h27.33.194627 +0100,
1,150,0,36,None,8,8,0,False,right,0.7174706560035702,None,,,,,,,,0,8,8,8,,,,,,,,,155.14532190799946,,,,,,,,,,,,,,,,,,,,,,,,,,,,,,,,,,,,,,155.13618186001258,155.14532190799946,156.14588145900052,157.14586261101067,157.14586261101067,157.14586261101067,157.88124254200375,right,0.7174706560035702,None,,,,,,,,,,,,,,,,,,,,,,,,,,,,,,,,,,,,,,,,031244,001,2024-12-03_21h26.57.206,Test,2024.2.1,60.42799176688793,2024-12-03 21h27.33.194627 +0100,
2,150,0,52,None,9,9,0,False,left,1.0011238059960306,None,,,,,,,,0,9,9,9,,,,,,,,,157.89637302901247,,,,,,,,,,,,,,,,,,,,,,,,,,,,,,,,,,,,,,157.88742672301305,157.89637302901247,158.8961544860067,159.89573708901298,159.89573708901298,159.89573708901298,160.91398797401052,left,1.0011238059960306,None,,,,,,,,,,,,,,,,,,,,,,,,,,,,,,,,,,,,,,,,031244,001,2024-12-03_21h26.57.206,Test,2024.2.1,60.42799176688793,2024-12-03 21h27.33.194627 +0100,
67,150,180,2,None,10,10,0,True,left,1.0256695360003505,None,,,,,,,,0,10,10,10,,,,,,,,,160.9304118709988,,,,,,,,,,,,,,,,,,,,,,,,,,,,,,,,,,,,,,160.9212315150071,160.9304118709988,161.9469296590105,162.92927439200867,162.92927439200867,162.92927439200867,163.96437634200265,left,1.0256695360003505,None,,,,,,,,,,,,,,,,,,,,,,,,,,,,,,,,,,,,,,,,031244,001,2024-12-03_21h26.57.206,Test,2024.2.1,60.42799176688793,2024-12-03 21h27.33.194627 +0100,
26,150,150,17,None,11,11,0,False,left,1.5103369650023524,None,,,,,,,,0,11,11,11,,,,,,,,,163.97967291300301,,,,,,,,,,,,,,,,,,,,,,,,,,,,,,,,,,,,,,163.9703562640061,163.97967291300301,164.97980696499872,165.97942813301052,165.97942813301052,165.97942813301052,167.49739546500496,left,1.5103369650023524,None,,,,,,,,,,,,,,,,,,,,,,,,,,,,,,,,,,,,,,,,031244,001,2024-12-03_21h26.57.206,Test,2024.2.1,60.42799176688793,2024-12-03 21h27.33.194627 +0100,
37,150,0,7,None,12,12,0,True,left,1.1570248600037303,None,,,,,,,,0,12,12,12,,,,,,,,,167.51269587301067,,,,,,,,,,,,,,,,,,,,,,,,,,,,,,,,,,,,,,167.50363524400746,167.51269587301067,168.51349504799873,169.49623775501095,169.49623775501095,169.49623775501095,170.66445568999916,left,1.1570248600037303,None,,,,,,,,,,,,,,,,,,,,,,,,,,,,,,,,,,,,,,,,031244,001,2024-12-03_21h26.57.206,Test,2024.2.1,60.42799176688793,2024-12-03 21h27.33.194627 +0100,
30,150,150,53,None,13,13,0,False,left,0.9991316559899133,None,,,,,,,,0,13,13,13,,,,,,,,,170.6797505430004,,,,,,,,,,,,,,,,,,,,,,,,,,,,,,,,,,,,,,170.67054091200407,170.6797505430004,171.67979756000568,172.68051416400704,172.68051416400704,172.68051416400704,173.68274368900165,left,0.9991316559899133,None,,,,,,,,,,,,,,,,,,,,,,,,,,,,,,,,,,,,,,,,031244,001,2024-12-03_21h26.57.206,Test,2024.2.1,60.42799176688793,2024-12-03 21h27.33.194627 +0100,
25,150,120,26,None,14,14,0,False,left,1.2218117180018453,None,,,,,,,,0,14,14,14,,,,,,,,,173.6963278910116,,,,,,,,,,,,,,,,,,,,,,,,,,,,,,,,,,,,,,173.68740424100542,173.6963278910116,174.6968376020086,175.69648391100054,175.69648391100054,175.69648391100054,176.9319656810112,left,1.2218117180018453,None,,,,,,,,,,,,,,,,,,,,,,,,,,,,,,,,,,,,,,,,031244,001,2024-12-03_21h26.57.206,Test,2024.2.1,60.42799176688793,2024-12-03 21h27.33.194627 +0100,
50,150,60,55,None,15,15,0,True,right,1.1779189319931902,None,,,,,,,,0,15,15,15,,,,,,,,,176.9472347930132,,,,,,,,,,,,,,,,,,,,,,,,,,,,,,,,,,,,,,176.93786245700903,176.9472347930132,177.94640132700442,178.94711021000694,178.94711021000694,178.94711021000694,180.1320420580014,right,1.1779189319931902,None,,,,,,,,,,,,,,,,,,,,,,,,,,,,,,,,,,,,,,,,031244,001,2024-12-03_21h26.57.206,Test,2024.2.1,60.42799176688793,2024-12-03 21h27.33.194627 +0100,
17,150,90,25,None,16,16,0,False,right,1.468151865992695,None,,,,,,,,0,16,16,16,,,,,,,,,180.14716372900875,,,,,,,,,,,,,,,,,,,,,,,,,,,,,,,,,,,,,,180.137988270013,180.14716372900875,181.14727867901092,182.14726717300073,182.14726717300073,182.14726717300073,183.63310989001184,right,1.468151865992695,None,,,,,,,,,,,,,,,,,,,,,,,,,,,,,,,,,,,,,,,,031244,001,2024-12-03_21h26.57.206,Test,2024.2.1,60.42799176688793,2024-12-03 21h27.33.194627 +0100,
44,150,30,34,None,17,17,0,True,left,1.1108545760071138,None,,,,,,,,0,17,17,17,,,,,,,,,183.6526627860003,,,,,,,,,,,,,,,,,,,,,,,,,,,,,,,,,,,,,,183.6426734100096,183.6526627860003,184.66452462501184,185.65066185301112,185.65066185301112,185.65066185301112,186.76629137201235,left,1.1108545760071138,None,,,,,,,,,,,,,,,,,,,,,,,,,,,,,,,,,,,,,,,,031244,001,2024-12-03_21h26.57.206,Test,2024.2.1,60.42799176688793,2024-12-03 21h27.33.194627 +0100,
59,150,120,30,None,18,18,0,True,right,1.0660219980054535,None,,,,,,,,0,18,18,18,,,,,,,,,186.78263661100937,,,,,,,,,,,,,,,,,,,,,,,,,,,,,,,,,,,,,,186.77328249900893,186.78263661100937,187.79779252500157,188.7814776560117,188.7814776560117,188.7814776560117,189.8504918450053,right,1.0660219980054535,None,,,,,,,,,,,,,,,,,,,,,,,,,,,,,,,,,,,,,,,,031244,001,2024-12-03_21h26.57.206,Test,2024.2.1,60.42799176688793,2024-12-03 21h27.33.194627 +0100,
63,150,150,69,None,19,19,0,True,left,1.6741779939911794,None,,,,,,,,0,19,19,19,,,,,,,,,189.86677544900158,,,,,,,,,,,,,,,,,,,,,,,,,,,,,,,,,,,,,,189.8578821960109,189.86677544900158,190.88100627600215,191.86457665800117,191.86457665800117,191.86457665800117,193.54980626700853,left,1.6741779939911794,None,,,,,,,,,,,,,,,,,,,,,,,,,,,,,,,,,,,,,,,,031244,001,2024-12-03_21h26.57.206,Test,2024.2.1,60.42799176688793,2024-12-03 21h27.33.194627 +0100,
15,150,60,9,None,20,20,0,False,left,1.435039047995815,None,,,,,,,,0,20,20,20,,,,,,,,,193.56483524900977,,,,,,,,,,,,,,,,,,,,,,,,,,,,,,,,,,,,,,193.55548609000107,193.56483524900977,194.56474648200674,195.56474533599976,195.56474533599976,195.56474533599976,197.0172133800079,left,1.435039047995815,None,,,,,,,,,,,,,,,,,,,,,,,,,,,,,,,,,,,,,,,,031244,001,2024-12-03_21h26.57.206,Test,2024.2.1,60.42799176688793,2024-12-03 21h27.33.194627 +0100,
53,150,90,27,None,21,21,0,True,right,1.3219246810040204,None,,,,,,,,0,21,21,21,,,,,,,,,197.03230825001083,,,,,,,,,,,,,,,,,,,,,,,,,,,,,,,,,,,,,,197.02346225301153,197.03230825001083,198.03153326800384,199.03176240000175,199.03176240000175,199.03176240000175,200.36727523000445,right,1.3219246810040204,None,,,,,,,,,,,,,,,,,,,,,,,,,,,,,,,,,,,,,,,,031244,001,2024-12-03_21h26.57.206,Test,2024.2.1,60.42799176688793,2024-12-03 21h27.33.194627 +0100,
34,150,180,61,None,22,22,0,False,left,2.0471267529937904,None,,,,,,,,0,22,22,22,,,,,,,,,200.3827954120061,,,,,,,,,,,,,,,,,,,,,,,,,,,,,,,,,,,,,,200.3735532060091,200.3827954120061,201.39864420500817,202.3818510070123,202.3818510070123,202.3818510070123,204.43404776400712,left,2.0471267529937904,None,,,,,,,,,,,,,,,,,,,,,,,,,,,,,,,,,,,,,,,,031244,001,2024-12-03_21h26.57.206,Test,2024.2.1,60.42799176688793,2024-12-03 21h27.33.194627 +0100,
43,150,30,31,None,23,23,0,True,left,1.3682611969998106,None,,,,,,,,0,23,23,23,,,,,,,,,204.44964741100557,,,,,,,,,,,,,,,,,,,,,,,,,,,,,,,,,,,,,,204.43986165100068,204.44964741100557,205.44891983301204,206.4489780300064,206.4489780300064,206.4489780300064,207.82098552300886,left,1.3682611969998106,None,,,,,,,,,,,,,,,,,,,,,,,,,,,,,,,,,,,,,,,,031244,001,2024-12-03_21h26.57.206,Test,2024.2.1,60.42799176688793,2024-12-03 21h27.33.194627 +0100,
28,150,150,29,None,24,24,0,False,left,1.3005146979994606,None,,,,,,,,0,24,24,24,,,,,,,,,207.83598295300908,,,,,,,,,,,,,,,,,,,,,,,,,,,,,,,,,,,,,,207.82647521300532,207.83598295300908,208.84952556400094,209.83233352600655,209.83233352600655,209.83233352600655,211.1353021130053,left,1.3005146979994606,None,,,,,,,,,,,,,,,,,,,,,,,,,,,,,,,,,,,,,,,,031244,001,2024-12-03_21h26.57.206,Test,2024.2.1,60.42799176688793,2024-12-03 21h27.33.194627 +0100,
64,150,150,22,None,25,25,0,True,left,1.0364733489986975,None,,,,,,,,0,25,25,25,,,,,,,,,211.15191030201095,,,,,,,,,,,,,,,,,,,,,,,,,,,,,,,,,,,,,,211.14262925401272,211.15191030201095,212.16584631700243,213.14954463401227,213.14954463401227,213.14954463401227,214.2021088590118,left,1.0364733489986975,None,,,,,,,,,,,,,,,,,,,,,,,,,,,,,,,,,,,,,,,,031244,001,2024-12-03_21h26.57.206,Test,2024.2.1,60.42799176688793,2024-12-03 21h27.33.194627 +0100,
5,150,0,32,None,26,26,0,False,left,1.1103535319998628,None,,,,,,,,0,26,26,26,,,,,,,,,214.2167731600057,,,,,,,,,,,,,,,,,,,,,,,,,,,,,,,,,,,,,,214.2081080670032,214.2167731600057,215.21612480501062,216.21644117400865,216.21644117400865,216.21644117400865,217.33425021400035,left,1.1103535319998628,None,,,,,,,,,,,,,,,,,,,,,,,,,,,,,,,,,,,,,,,,031244,001,2024-12-03_21h26.57.206,Test,2024.2.1,60.42799176688793,2024-12-03 21h27.33.194627 +0100,
46,150,60,39,None,27,27,0,True,right,1.467836494994117,None,,,,,,,,0,27,27,27,,,,,,,,,217.35032451200823,,,,,,,,,,,,,,,,,,,,,,,,,,,,,,,,,,,,,,217.3415703770006,217.35032451200823,218.34975703500095,219.33350247300405,219.33350247300405,219.33350247300405,220.8190578470094,right,1.467836494994117,None,,,,,,,,,,,,,,,,,,,,,,,,,,,,,,,,,,,,,,,,031244,001,2024-12-03_21h26.57.206,Test,2024.2.1,60.42799176688793,2024-12-03 21h27.33.194627 +0100,
47,150,60,57,None,28,28,0,True,left,1.2188282270071795,None,,,,,,,,0,28,28,28,,,,,,,,,220.83480259300268,,,,,,,,,,,,,,,,,,,,,,,,,,,,,,,,,,,,,,220.8256224479992,220.83480259300268,221.83426435101137,222.83412865300488,222.83412865300488,222.83412865300488,224.06946617600624,left,1.2188282270071795,None,,,,,,,,,,,,,,,,,,,,,,,,,,,,,,,,,,,,,,,,031244,001,2024-12-03_21h26.57.206,Test,2024.2.1,60.42799176688793,2024-12-03 21h27.33.194627 +0100,
36,150,0,45,None,29,29,0,True,left,0.9256922399945324,None,,,,,,,,0,29,29,29,,,,,,,,,224.08455068600597,,,,,,,,,,,,,,,,,,,,,,,,,,,,,,,,,,,,,,224.07539144100156,224.08455068600597,225.10033701600332,226.08339740500378,226.08339740500378,226.08339740500378,227.019716048002,left,0.9256922399945324,None,,,,,,,,,,,,,,,,,,,,,,,,,,,,,,,,,,,,,,,,031244,001,2024-12-03_21h26.57.206,Test,2024.2.1,60.42799176688793,2024-12-03 21h27.33.194627 +0100,
27,150,150,41,None,30,30,0,False,right,1.0809162500081584,None,,,,,,,,0,30,30,30,,,,,,,,,227.03663081800914,,,,,,,,,,,,,,,,,,,,,,,,,,,,,,,,,,,,,,227.02699267600838,227.03663081800914,228.05269617300655,229.0336785660038,229.0336785660038,229.0336785660038,230.1200451770128,right,1.0809162500081584,None,,,,,,,,,,,,,,,,,,,,,,,,,,,,,,,,,,,,,,,,031244,001,2024-12-03_21h26.57.206,Test,2024.2.1,60.42799176688793,2024-12-03 21h27.33.194627 +0100,
16,150,90,46,None,31,31,0,False,right,0.9227368450083304,None,,,,,,,,0,31,31,31,,,,,,,,,230.1348725370044,,,,,,,,,,,,,,,,,,,,,,,,,,,,,,,,,,,,,,230.1253624210076,230.1348725370044,231.150589597004,232.1337890450086,232.1337890450086,232.1337890450086,233.06848631901084,right,0.9227368450083304,None,,,,,,,,,,,,,,,,,,,,,,,,,,,,,,,,,,,,,,,,031244,001,2024-12-03_21h26.57.206,Test,2024.2.1,60.42799176688793,2024-12-03 21h27.33.194627 +0100,
19,150,90,65,None,32,32,0,False,left,1.2090273759968113,None,,,,,,,,0,32,32,32,,,,,,,,,233.08671621901158,,,,,,,,,,,,,,,,,,,,,,,,,,,,,,,,,,,,,,233.07753055200737,233.08671621901158,234.1008948890085,235.0844019690121,235.0844019690121,235.0844019690121,236.30227769201156,left,1.2090273759968113,None,,,,,,,,,,,,,,,,,,,,,,,,,,,,,,,,,,,,,,,,031244,001,2024-12-03_21h26.57.206,Test,2024.2.1,60.42799176688793,2024-12-03 21h27.33.194627 +0100,
6,150,30,66,None,33,33,0,False,right,0.8516287239908706,None,,,,,,,,0,33,33,33,,,,,,,,,236.31714879500214,,,,,,,,,,,,,,,,,,,,,,,,,,,,,,,,,,,,,,236.30773619300453,236.31714879500214,237.31712181800685,238.3171275920031,238.3171275920031,238.3171275920031,239.1856474100059,right,0.8516287239908706,None,,,,,,,,,,,,,,,,,,,,,,,,,,,,,,,,,,,,,,,,031244,001,2024-12-03_21h26.57.206,Test,2024.2.1,60.42799176688793,2024-12-03 21h27.33.194627 +0100,
38,150,0,56,None,34,34,0,True,left,0.9232462670042878,None,,,,,,,,0,34,34,34,,,,,,,,,239.20061685700784,,,,,,,,,,,,,,,,,,,,,,,,,,,,,,,,,,,,,,239.19074273700244,239.20061685700784,240.20077597000636,241.20070466501056,241.20070466501056,241.20070466501056,242.13632230600342,left,0.9232462670042878,None,,,,,,,,,,,,,,,,,,,,,,,,,,,,,,,,,,,,,,,,031244,001,2024-12-03_21h26.57.206,Test,2024.2.1,60.42799176688793,2024-12-03 21h27.33.194627 +0100,
12,150,60,8,None,35,35,0,False,left,0.9332281280076131,None,,,,,,,,0,35,35,35,,,,,,,,,242.1514825350023,,,,,,,,,,,,,,,,,,,,,,,,,,,,,,,,,,,,,,242.14190169700305,242.1514825350023,243.15155315300217,244.15184672400937,244.15184672400937,244.15184672400937,245.0879405420128,left,0.9332281280076131,None,,,,,,,,,,,,,,,,,,,,,,,,,,,,,,,,,,,,,,,,031244,001,2024-12-03_21h26.57.206,Test,2024.2.1,60.42799176688793,2024-12-03 21h27.33.194627 +0100,
70,150,180,54,None,36,36,0,True,left,0.9578291479992913,None,,,,,,,,0,36,36,36,,,,,,,,,245.11746015099925,,,,,,,,,,,,,,,,,,,,,,,,,,,,,,,,,,,,,,245.1088847409992,245.11746015099925,246.11880681400362,247.10241476500232,247.10241476500232,247.10241476500232,248.07050852201064,left,0.9578291479992913,None,,,,,,,,,,,,,,,,,,,,,,,,,,,,,,,,,,,,,,,,031244,001,2024-12-03_21h26.57.206,Test,2024.2.1,60.42799176688793,2024-12-03 21h27.33.194627 +0100,
56,150,120,24,None,37,37,0,True,right,1.051026709988946,None,,,,,,,,0,37,37,37,,,,,,,,,248.08552965900162,,,,,,,,,,,,,,,,,,,,,,,,,,,,,,,,,,,,,,248.07611437499872,248.08552965900162,249.0846258750098,250.08510136901168,250.08510136901168,250.08510136901168,251.15312687501137,right,1.051026709988946,None,,,,,,,,,,,,,,,,,,,,,,,,,,,,,,,,,,,,,,,,031244,001,2024-12-03_21h26.57.206,Test,2024.2.1,60.42799176688793,2024-12-03 21h27.33.194627 +0100,
54,150,90,35,None,38,38,0,True,right,1.1085803629975999,None,,,,,,,,0,38,38,38,,,,,,,,,251.1681964770105,,,,,,,,,,,,,,,,,,,,,,,,,,,,,,,,,,,,,,251.15842389099998,251.1681964770105,252.1682047820068,253.16837170800136,253.16837170800136,253.16837170800136,254.28681520700047,right,1.1085803629975999,None,,,,,,,,,,,,,,,,,,,,,,,,,,,,,,,,,,,,,,,,031244,001,2024-12-03_21h26.57.206,Test,2024.2.1,60.42799176688793,2024-12-03 21h27.33.194627 +0100,
49,150,60,63,None,39,39,0,True,left,1.1753660770045826,None,,,,,,,,0,39,39,39,,,,,,,,,254.30204991801293,,,,,,,,,,,,,,,,,,,,,,,,,,,,,,,,,,,,,,254.2922413010092,254.30204991801293,255.3017626410001,256.3022261770093,256.3022261770093,256.3022261770093,257.4875848330121,left,1.1753660770045826,None,,,,,,,,,,,,,,,,,,,,,,,,,,,,,,,,,,,,,,,,031244,001,2024-12-03_21h26.57.206,Test,2024.2.1,60.42799176688793,2024-12-03 21h27.33.194627 +0100,
14,150,60,62,None,40,40,0,False,right,1.2107451080082683,None,,,,,,,,0,40,40,40,,,,,,,,,257.51047099300195,,,,,,,,,,,,,,,,,,,,,,,,,,,,,,,,,,,,,,257.502377916011,257.51047099300195,258.51941654100665,259.50216694601113,259.50216694601113,259.50216694601113,260.7203294140054,right,1.2107451080082683,None,,,,,,,,,,,,,,,,,,,,,,,,,,,,,,,,,,,,,,,,031244,001,2024-12-03_21h26.57.206,Test,2024.2.1,60.42799176688793,2024-12-03 21h27.33.194627 +0100,
4,150,0,47,None,41,41,0,False,left,1.3087421859963797,None,,,,,,,,0,41,41,41,,,,,,,,,260.73517450400686,,,,,,,,,,,,,,,,,,,,,,,,,,,,,,,,,,,,,,260.7259524480032,260.73517450400686,261.73579975400935,262.7354659600096,262.7354659600096,262.7354659600096,264.0556484510016,left,1.3087421859963797,None,,,,,,,,,,,,,,,,,,,,,,,,,,,,,,,,,,,,,,,,031244,001,2024-12-03_21h26.57.206,Test,2024.2.1,60.42799176688793,2024-12-03 21h27.33.194627 +0100,
9,150,30,51,None,42,42,0,False,left,0.8576227279991144,None,,,,,,,,0,42,42,42,,,,,,,,,264.0772009659995,,,,,,,,,,,,,,,,,,,,,,,,,,,,,,,,,,,,,,264.0693983240053,264.0772009659995,265.08596762100933,266.07006425100553,266.07006425100553,266.07006425100553,266.93716466600017,left,0.8576227279991144,None,,,,,,,,,,,,,,,,,,,,,,,,,,,,,,,,,,,,,,,,031244,001,2024-12-03_21h26.57.206,Test,2024.2.1,60.42799176688793,2024-12-03 21h27.33.194627 +0100,
61,150,150,12,None,43,43,0,True,right,1.172159642999759,None,,,,,,,,0,43,43,43,,,,,,,,,266.9526701470022,,,,,,,,,,,,,,,,,,,,,,,,,,,,,,,,,,,,,,266.94297613800154,266.9526701470022,267.9533520430123,268.95322295700316,268.95322295700316,268.95322295700316,270.13758570900245,right,1.172159642999759,None,,,,,,,,,,,,,,,,,,,,,,,,,,,,,,,,,,,,,,,,031244,001,2024-12-03_21h26.57.206,Test,2024.2.1,60.42799176688793,2024-12-03 21h27.33.194627 +0100,
22,150,120,42,None,44,44,0,False,left,1.508290591998957,None,,,,,,,,0,44,44,44,,,,,,,,,270.1524497210048,,,,,,,,,,,,,,,,,,,,,,,,,,,,,,,,,,,,,,270.1433751600125,270.1524497210048,271.15316093301226,272.1371280349995,272.1371280349995,272.1371280349995,273.65508693500306,left,1.508290591998957,None,,,,,,,,,,,,,,,,,,,,,,,,,,,,,,,,,,,,,,,,031244,001,2024-12-03_21h26.57.206,Test,2024.2.1,60.42799176688793,2024-12-03 21h27.33.194627 +0100,
8,150,30,18,None,45,45,0,False,right,1.2787630370003171,None,,,,,,,,0,45,45,45,,,,,,,,,273.6704279680125,,,,,,,,,,,,,,,,,,,,,,,,,,,,,,,,,,,,,,273.6603103080124,273.6704279680125,274.6703440880083,275.6704116950132,275.6704116950132,275.6704116950132,276.9560675100074,right,1.2787630370003171,None,,,,,,,,,,,,,,,,,,,,,,,,,,,,,,,,,,,,,,,,031244,001,2024-12-03_21h26.57.206,Test,2024.2.1,60.42799176688793,2024-12-03 21h27.33.194627 +0100,
65,150,150,6,None,46,46,0,True,right,1.489487842991366,None,,,,,,,,0,46,46,46,,,,,,,,,276.97059612900193,,,,,,,,,,,,,,,,,,,,,,,,,,,,,,,,,,,,,,276.961679502012,276.97059612900193,277.97046840300027,278.96991273600725,278.96991273600725,278.96991273600725,280.4724604840012,right,1.489487842991366,None,,,,,,,,,,,,,,,,,,,,,,,,,,,,,,,,,,,,,,,,031244,001,2024-12-03_21h26.57.206,Test,2024.2.1,60.42799176688793,2024-12-03 21h27.33.194627 +0100,
60,150,120,20,None,47,47,0,True,right,1.4538838709995616,None,,,,,,,,0,47,47,47,,,,,,,,,280.48734686500393,,,,,,,,,,,,,,,,,,,,,,,,,,,,,,,,,,,,,,280.47817737900186,280.48734686500393,281.48723555900506,282.471745494011,282.471745494011,282.471745494011,283.93937923401245,right,1.4538838709995616,None,,,,,,,,,,,,,,,,,,,,,,,,,,,,,,,,,,,,,,,,031244,001,2024-12-03_21h26.57.206,Test,2024.2.1,60.42799176688793,2024-12-03 21h27.33.194627 +0100,
68,150,180,40,None,48,48,0,True,right,1.3335593069932656,None,,,,,,,,0,48,48,48,,,,,,,,,283.9547642940015,,,,,,,,,,,,,,,,,,,,,,,,,,,,,,,,,,,,,,283.9451718210039,283.9547642940015,284.95438965900394,285.93817819400283,285.93817819400283,285.93817819400283,287.2738872780028,right,1.3335593069932656,None,,,,,,,,,,,,,,,,,,,,,,,,,,,,,,,,,,,,,,,,031244,001,2024-12-03_21h26.57.206,Test,2024.2.1,60.42799176688793,2024-12-03 21h27.33.194627 +0100,
11,150,60,38,None,49,49,0,False,right,0.9027605070004938,None,,,,,,,,0,49,49,49,,,,,,,,,287.29024713500985,,,,,,,,,,,,,,,,,,,,,,,,,,,,,,,,,,,,,,287.28075600400916,287.29024713500985,288.30453453400696,289.28868392801087,289.28868392801087,289.28868392801087,290.20623234900995,right,0.9027605070004938,None,,,,,,,,,,,,,,,,,,,,,,,,,,,,,,,,,,,,,,,,031244,001,2024-12-03_21h26.57.206,Test,2024.2.1,60.42799176688793,2024-12-03 21h27.33.194627 +0100,
69,150,180,58,None,50,50,0,True,left,0.834278952999739,None,,,,,,,,0,50,50,50,,,,,,,,,290.22150286700344,,,,,,,,,,,,,,,,,,,,,,,,,,,,,,,,,,,,,,290.2120206969994,290.22150286700344,291.2213102400128,292.2214599130093,292.2214599130093,292.2214599130093,293.0737951730116,left,0.834278952999739,None,,,,,,,,,,,,,,,,,,,,,,,,,,,,,,,,,,,,,,,,031244,001,2024-12-03_21h26.57.206,Test,2024.2.1,60.42799176688793,2024-12-03 21h27.33.194627 +0100,
55,150,90,48,None,51,51,0,True,left,1.3971039019961609,None,,,,,,,,0,51,51,51,,,,,,,,,293.08860210501007,,,,,,,,,,,,,,,,,,,,,,,,,,,,,,,,,,,,,,293.07957528400584,293.08860210501007,294.08829892100766,295.08873511001,295.08873511001,295.08873511001,296.4903248310002,left,1.3971039019961609,None,,,,,,,,,,,,,,,,,,,,,,,,,,,,,,,,,,,,,,,,031244,001,2024-12-03_21h26.57.206,Test,2024.2.1,60.42799176688793,2024-12-03 21h27.33.194627 +0100,
13,150,60,4,None,52,52,0,False,right,0.8362200470000971,None,,,,,,,,0,52,52,52,,,,,,,,,296.50556741100445,,,,,,,,,,,,,,,,,,,,,,,,,,,,,,,,,,,,,,296.49628523600404,296.50556741100445,297.5052623590018,298.50595959801285,298.50595959801285,298.50595959801285,299.3578826090088,right,0.8362200470000971,None,,,,,,,,,,,,,,,,,,,,,,,,,,,,,,,,,,,,,,,,031244,001,2024-12-03_21h26.57.206,Test,2024.2.1,60.42799176688793,2024-12-03 21h27.33.194627 +0100,
20,150,90,68,None,53,53,0,False,right,0.9881842370086815,None,,,,,,,,0,53,53,53,,,,,,,,,299.3742037730117,,,,,,,,,,,,,,,,,,,,,,,,,,,,,,,,,,,,,,299.36359889899904,299.3742037730117,300.3886550300085,301.37289226800203,301.37289226800203,301.37289226800203,302.37424681200355,right,0.9881842370086815,None,,,,,,,,,,,,,,,,,,,,,,,,,,,,,,,,,,,,,,,,031244,001,2024-12-03_21h26.57.206,Test,2024.2.1,60.42799176688793,2024-12-03 21h27.33.194627 +0100,
23,150,120,67,None,54,54,0,False,left,0.9638270819996251,None,,,,,,,,0,54,54,54,,,,,,,,,302.3899955590023,,,,,,,,,,,,,,,,,,,,,,,,,,,,,,,,,,,,,,302.38145227100176,302.3899955590023,303.40545610900153,304.3889625400043,304.3889625400043,304.3889625400043,305.35794301600254,left,0.9638270819996251,None,,,,,,,,,,,,,,,,,,,,,,,,,,,,,,,,,,,,,,,,031244,001,2024-12-03_21h26.57.206,Test,2024.2.1,60.42799176688793,2024-12-03 21h27.33.194627 +0100,
10,150,30,19,None,55,55,0,False,left,0.9587918229954084,None,,,,,,,,0,55,55,55,,,,,,,,,305.3730706530041,,,,,,,,,,,,,,,,,,,,,,,,,,,,,,,,,,,,,,305.36361639200186,305.3730706530041,306.37327584000013,307.3724768850079,307.3724768850079,307.3724768850079,308.3406188020017,left,0.9587918229954084,None,,,,,,,,,,,,,,,,,,,,,,,,,,,,,,,,,,,,,,,,031244,001,2024-12-03_21h26.57.206,Test,2024.2.1,60.42799176688793,2024-12-03 21h27.33.194627 +0100,
31,150,180,1,None,56,56,0,False,right,0.9009518039965769,None,,,,,,,,0,56,56,56,,,,,,,,,308.3559415730124,,,,,,,,,,,,,,,,,,,,,,,,,,,,,,,,,,,,,,308.3463635430089,308.3559415730124,309.35682252900733,310.35577591499896,310.35577591499896,310.35577591499896,311.25899312100955,right,0.9009518039965769,None,,,,,,,,,,,,,,,,,,,,,,,,,,,,,,,,,,,,,,,,031244,001,2024-12-03_21h26.57.206,Test,2024.2.1,60.42799176688793,2024-12-03 21h27.33.194627 +0100,
29,150,150,44,None,57,57,0,False,right,0.9241302089940291,None,,,,,,,,0,57,57,57,,,,,,,,,311.27503639300994,,,,,,,,,,,,,,,,,,,,,,,,,,,,,,,,,,,,,,311.26597050300916,311.27503639300994,312.28951793500164,313.30043262300023,313.30043262300023,313.30043262300023,314.24124329700135,right,0.9241302089940291,None,,,,,,,,,,,,,,,,,,,,,,,,,,,,,,,,,,,,,,,,031244,001,2024-12-03_21h26.57.206,Test,2024.2.1,60.42799176688793,2024-12-03 21h27.33.194627 +0100,
57,150,120,43,None,58,58,0,True,right,1.6018869359977543,None,,,,,,,,0,58,58,58,,,,,,,,,314.25674211300793,,,,,,,,,,,,,,,,,,,,,,,,,,,,,,,,,,,,,,314.2463570930122,314.25674211300793,315.25691725400975,316.2564019429992,316.2564019429992,316.2564019429992,317.87527557600697,right,1.6018869359977543,None,,,,,,,,,,,,,,,,,,,,,,,,,,,,,,,,,,,,,,,,031244,001,2024-12-03_21h26.57.206,Test,2024.2.1,60.42799176688793,2024-12-03 21h27.33.194627 +0100,
7,150,30,15,None,59,59,0,False,right,1.0370459670084529,None,,,,,,,,0,59,59,59,,,,,,,,,317.89226760101155,,,,,,,,,,,,,,,,,,,,,,,,,,,,,,,,,,,,,,317.88328533600725,317.89226760101155,318.90649519900035,319.8907902560022,319.8907902560022,319.8907902560022,320.9414960550057,right,1.0370459670084529,None,,,,,,,,,,,,,,,,,,,,,,,,,,,,,,,,,,,,,,,,031244,001,2024-12-03_21h26.57.206,Test,2024.2.1,60.42799176688793,2024-12-03 21h27.33.194627 +0100,
33,150,180,23,None,60,60,0,False,left,0.8711306659970433,None,,,,,,,,0,60,60,60,,,,,,,,,320.95751415900304,,,,,,,,,,,,,,,,,,,,,,,,,,,,,,,,,,,,,,320.9484260980098,320.95751415900304,321.9567405340058,322.9571005630132,322.9571005630132,322.9571005630132,323.84153369000705,left,0.8711306659970433,None,,,,,,,,,,,,,,,,,,,,,,,,,,,,,,,,,,,,,,,,031244,001,2024-12-03_21h26.57.206,Test,2024.2.1,60.42799176688793,2024-12-03 21h27.33.194627 +0100,
48,150,60,14,None,61,61,0,True,left,1.6434888929943554,None,,,,,,,,0,61,61,61,,,,,,,,,323.8566210100107,,,,,,,,,,,,,,,,,,,,,,,,,,,,,,,,,,,,,,323.84647332500026,323.8566210100107,324.8572584650101,325.8571025880083,325.8571025880083,325.8571025880083,327.5095727050066,left,1.6434888929943554,None,,,,,,,,,,,,,,,,,,,,,,,,,,,,,,,,,,,,,,,,031244,001,2024-12-03_21h26.57.206,Test,2024.2.1,60.42799176688793,2024-12-03 21h27.33.194627 +0100,
40,150,0,64,None,62,62,0,True,left,0.9597332089906558,None,,,,,,,,0,62,62,62,,,,,,,,,327.5242552330019,,,,,,,,,,,,,,,,,,,,,,,,,,,,,,,,,,,,,,327.51527415501187,327.5242552330019,328.52398106500914,329.52350886000204,329.52350886000204,329.52350886000204,330.49212269800773,left,0.9597332089906558,None,,,,,,,,,,,,,,,,,,,,,,,,,,,,,,,,,,,,,,,,031244,001,2024-12-03_21h26.57.206,Test,2024.2.1,60.42799176688793,2024-12-03 21h27.33.194627 +0100,
66,150,180,33,None,63,63,0,True,left,1.3564539650105871,None,,,,,,,,0,63,63,63,,,,,,,,,330.5073650580016,,,,,,,,,,,,,,,,,,,,,,,,,,,,,,,,,,,,,,330.4977997160022,330.5073650580016,331.5083806410112,332.49200201701024,332.49200201701024,332.49200201701024,333.85931248001,left,1.3564539650105871,None,,,,,,,,,,,,,,,,,,,,,,,,,,,,,,,,,,,,,,,,031244,001,2024-12-03_21h26.57.206,Test,2024.2.1,60.42799176688793,2024-12-03 21h27.33.194627 +0100,
62,150,150,11,None,64,64,0,True,right,0.8844856499927118,None,,,,,,,,0,64,64,64,,,,,,,,,333.8757562460087,,,,,,,,,,,,,,,,,,,,,,,,,,,,,,,,,,,,,,333.86672375400667,333.8757562460087,334.875509563004,335.87457100900065,335.87457100900065,335.87457100900065,336.77647172300203,right,0.8844856499927118,None,,,,,,,,,,,,,,,,,,,,,,,,,,,,,,,,,,,,,,,,031244,001,2024-12-03_21h26.57.206,Test,2024.2.1,60.42799176688793,2024-12-03 21h27.33.194627 +0100,
32,150,180,37,None,65,65,0,False,left,1.0108006130030844,None,,,,,,,,0,65,65,65,,,,,,,,,336.79136386400205,,,,,,,,,,,,,,,,,,,,,,,,,,,,,,,,,,,,,,336.7824074730015,336.79136386400205,337.7925336150074,338.7913357770012,338.7913357770012,338.7913357770012,339.8096358200128,left,1.0108006130030844,None,,,,,,,,,,,,,,,,,,,,,,,,,,,,,,,,,,,,,,,,031244,001,2024-12-03_21h26.57.206,Test,2024.2.1,60.42799176688793,2024-12-03 21h27.33.194627 +0100,
41,150,30,60,None,66,66,0,True,left,1.7603242909972323,None,,,,,,,,0,66,66,66,,,,,,,,,339.8247128790099,,,,,,,,,,,,,,,,,,,,,,,,,,,,,,,,,,,,,,339.81557417000295,339.8247128790099,340.8252170540072,341.8248475450091,341.8248475450091,341.8248475450091,343.59350004101,left,1.7603242909972323,None,,,,,,,,,,,,,,,,,,,,,,,,,,,,,,,,,,,,,,,,031244,001,2024-12-03_21h26.57.206,Test,2024.2.1,60.42799176688793,2024-12-03 21h27.33.194627 +0100,
24,150,120,49,None,67,67,0,False,left,1.305952430004254,None,,,,,,,,0,67,67,67,,,,,,,,,343.6088764550077,,,,,,,,,,,,,,,,,,,,,,,,,,,,,,,,,,,,,,343.599222431003,343.6088764550077,344.6082649230084,345.6083342570055,345.6083342570055,345.6083342570055,346.92673475600895,left,1.305952430004254,None,,,,,,,,,,,,,,,,,,,,,,,,,,,,,,,,,,,,,,,,031244,001,2024-12-03_21h26.57.206,Test,2024.2.1,60.42799176688793,2024-12-03 21h27.33.194627 +0100,
42,150,30,50,None,68,68,0,True,left,1.214094737006235,None,,,,,,,,0,68,68,68,,,,,,,,,346.9420301360078,,,,,,,,,,,,,,,,,,,,,,,,,,,,,,,,,,,,,,346.9326918779989,346.9420301360078,347.94263383401267,348.9419970950112,348.9419970950112,348.9419970950112,350.16091917701124,left,1.214094737006235,None,,,,,,,,,,,,,,,,,,,,,,,,,,,,,,,,,,,,,,,,031244,001,2024-12-03_21h26.57.206,Test,2024.2.1,60.42799176688793,2024-12-03 21h27.33.194627 +0100,
58,150,120,28,None,69,69,0,True,left,1.234949495003093,None,,,,,,,,0,69,69,69,,,,,,,,,350.1902954670077,,,,,,,,,,,,,,,,,,,,,,,,,,,,,,,,,,,,,,350.1657047059998,350.1902954670077,351.1929596080008,352.1758429160109,352.1758429160109,352.1758429160109,353.42790341300133,left,1.234949495003093,None,,,,,,,,,,,,,,,,,,,,,,,,,,,,,,,,,,,,,,,,031244,001,2024-12-03_21h26.57.206,Test,2024.2.1,60.42799176688793,2024-12-03 21h27.33.194627 +0100,
,,,,,,,,,,,,,,,,,,,,,,,,,,,,,,,,,,,,,,,,,,,,,,,,,,,,,,,,,,,,,,,,,,,,,,,,,,,,,,,353.4280684280093,353.442622098999,353.442622098999,356.44379882499925,space,2.989164676007931,None,,,,,,,,,,,,,,,,,,,,,,,,,,,,,,,,,031244,001,2024-12-03_21h26.57.206,Test,2024.2.1,60.42799176688793,2024-12-03 21h27.33.194627 +0100,
33,150,180,23,None,0,0,0,,,,,,,,,,,,,,,,0,0,0,32,,,,,356.4681827460008,,,,,,,,,,,,,,,,,,,,,,,,,,,,,,,,,,,,,,,,,,,,,,,,,,,,,,,356.459154673008,356.4681827460008,356.6595680850005,356.6595680850005,356.67681982200884,358.3589052169991,358.3589052169991,358.3435403370095,,,,,,,,,,,,,,,,,,,,,,,,,031244,001,2024-12-03_21h26.57.206,Test,2024.2.1,60.42799176688793,2024-12-03 21h27.33.194627 +0100,
13,150,60,4,None,1,1,0,,,,,,,,,,,,,,,,0,1,1,12,,,,,358.3589052169991,,,,,,,,,,,,,,,,,,,,,,,,,,,,,,,,,,,,,,,,,,,,,,,,,,,,,,,358.3494611310016,358.3589052169991,358.55963019000774,358.55963019000774,358.55963019000774,360.2607336150104,360.2607336150104,360.2438116770063,,,,,,,,,,,,,,,,,,,,,,,,,031244,001,2024-12-03_21h26.57.206,Test,2024.2.1,60.42799176688793,2024-12-03 21h27.33.194627 +0100,
14,150,60,62,None,2,2,0,,,,,,,,,,,,,,,,0,2,2,13,,,,,360.2607336150104,,,,,,,,,,,,,,,,,,,,,,,,,,,,,,,,,,,,,,,,,,,,,,,,,,,,,,,360.25191198001266,360.2607336150104,360.4594350080006,360.4594350080006,360.4755562270002,362.1591703870072,362.1591703870072,362.143428580006,,,,,,,,,,,,,,,,,,,,,,,,,031244,001,2024-12-03_21h26.57.206,Test,2024.2.1,60.42799176688793,2024-12-03 21h27.33.194627 +0100,
31,150,180,1,None,3,3,0,,,,,,,,,,,,,,,,0,3,3,30,,,,,362.1591703870072,,,,,,,,,,,,,,,,,,,,,,,,,,,,,,,,,,,,,,,,,,,,,,,,,,,,,,,362.15032811400306,362.1591703870072,362.34294099399995,362.34294099399995,362.35976705900976,364.0473837820027,364.0473837820027,364.02897672200925,,,,,,,,,,,,,,,,,,,,,,,,,031244,001,2024-12-03_21h26.57.206,Test,2024.2.1,60.42799176688793,2024-12-03 21h27.33.194627 +0100,
35,150,180,16,None,4,4,0,,,,,,,,,,,,,,,,0,4,4,34,,,,,364.0473837820027,,,,,,,,,,,,,,,,,,,,,,,,,,,,,,,,,,,,,,,,,,,,,,,,,,,,,,,364.0391017070069,364.0473837820027,364.24364145001164,364.24364145001164,364.2596490660071,365.96002056400175,365.96002056400175,365.9440825740021,,,,,,,,,,,,,,,,,,,,,,,,,031244,001,2024-12-03_21h26.57.206,Test,2024.2.1,60.42799176688793,2024-12-03 21h27.33.194627 +0100,
25,150,120,26,None,5,5,0,,,,,,,,,,,,,,,,0,5,5,24,,,,,365.96002056400175,,,,,,,,,,,,,,,,,,,,,,,,,,,,,,,,,,,,,,,,,,,,,,,,,,,,,,,365.9504687860026,365.96002056400175,366.14320322799904,366.14320322799904,366.15990018300363,367.8430144320009,367.8430144320009,367.8279831060063,,,,,,,,,,,,,,,,,,,,,,,,,031244,001,2024-12-03_21h26.57.206,Test,2024.2.1,60.42799176688793,2024-12-03 21h27.33.194627 +0100,
22,150,120,42,None,6,6,0,,,,,,,,,,,,,,,,0,6,6,21,,,,,367.8430144320009,,,,,,,,,,,,,,,,,,,,,,,,,,,,,,,,,,,,,,,,,,,,,,,,,,,,,,,367.8346036790026,367.8430144320009,368.04341236600885,368.04341236600885,368.04341236600885,369.74372752300405,369.74372752300405,369.7278027690045,,,,,,,,,,,,,,,,,,,,,,,,,031244,001,2024-12-03_21h26.57.206,Test,2024.2.1,60.42799176688793,2024-12-03 21h27.33.194627 +0100,
2,150,0,52,None,7,7,0,,,,,,,,,,,,,,,,0,7,7,1,,,,,369.74372752300405,,,,,,,,,,,,,,,,,,,,,,,,,,,,,,,,,,,,,,,,,,,,,,,,,,,,,,,369.73371522600064,369.74372752300405,369.94386479900277,369.94386479900277,369.94386479900277,371.64583729900187,371.64583729900187,371.62819723199937,,,,,,,,,,,,,,,,,,,,,,,,,031244,001,2024-12-03_21h26.57.206,Test,2024.2.1,60.42799176688793,2024-12-03 21h27.33.194627 +0100,
18,150,90,59,None,8,8,0,,,,,,,,,,,,,,,,0,8,8,17,,,,,371.64583729900187,,,,,,,,,,,,,,,,,,,,,,,,,,,,,,,,,,,,,,,,,,,,,,,,,,,,,,,371.637438759004,371.64583729900187,371.84363597600895,371.84363597600895,371.860274621009,373.54460833600024,373.54460833600024,373.52829742300673,,,,,,,,,,,,,,,,,,,,,,,,,031244,001,2024-12-03_21h26.57.206,Test,2024.2.1,60.42799176688793,2024-12-03 21h27.33.194627 +0100,
9,150,30,51,None,9,9,0,,,,,,,,,,,,,,,,0,9,9,8,,,,,373.54460833600024,,,,,,,,,,,,,,,,,,,,,,,,,,,,,,,,,,,,,,,,,,,,,,,,,,,,,,,373.536218579,373.54460833600024,373.74370921900845,373.74370921900845,373.76010308200784,375.44371102900186,375.44371102900186,375.4283828740008,,,,,,,,,,,,,,,,,,,,,,,,,031244,001,2024-12-03_21h26.57.206,Test,2024.2.1,60.42799176688793,2024-12-03 21h27.33.194627 +0100,
15,150,60,9,None,10,10,0,,,,,,,,,,,,,,,,0,10,10,14,,,,,375.44371102900186,,,,,,,,,,,,,,,,,,,,,,,,,,,,,,,,,,,,,,,,,,,,,,,,,,,,,,,375.4341470700019,375.44371102900186,375.6443213240127,375.6443213240127,375.6443213240127,377.34712866200425,377.34712866200425,377.3291599630029,,,,,,,,,,,,,,,,,,,,,,,,,031244,001,2024-12-03_21h26.57.206,Test,2024.2.1,60.42799176688793,2024-12-03 21h27.33.194627 +0100,
23,150,120,67,None,11,11,0,,,,,,,,,,,,,,,,0,11,11,22,,,,,377.34712866200425,,,,,,,,,,,,,,,,,,,,,,,,,,,,,,,,,,,,,,,,,,,,,,,,,,,,,,,377.33872288500424,377.34712866200425,377.5443977399991,377.5443977399991,377.5607033039996,379.24357078500907,379.24357078500907,379.2283652220067,,,,,,,,,,,,,,,,,,,,,,,,,031244,001,2024-12-03_21h26.57.206,Test,2024.2.1,60.42799176688793,2024-12-03 21h27.33.194627 +0100,
5,150,0,32,None,12,12,0,,,,,,,,,,,,,,,,0,12,12,4,,,,,379.24357078500907,,,,,,,,,,,,,,,,,,,,,,,,,,,,,,,,,,,,,,,,,,,,,,,,,,,,,,,379.23416330500913,379.24357078500907,379.444847398001,379.444847398001,379.444847398001,381.14370097999927,381.14370097999927,381.12858508700447,,,,,,,,,,,,,,,,,,,,,,,,,031244,001,2024-12-03_21h26.57.206,Test,2024.2.1,60.42799176688793,2024-12-03 21h27.33.194627 +0100,
28,150,150,29,None,13,13,0,,,,,,,,,,,,,,,,0,13,13,27,,,,,381.14370097999927,,,,,,,,,,,,,,,,,,,,,,,,,,,,,,,,,,,,,,,,,,,,,,,,,,,,,,,381.1346773789992,381.14370097999927,381.34443156300404,381.34443156300404,381.34443156300404,383.0444445200119,383.0444445200119,383.028541333013,,,,,,,,,,,,,,,,,,,,,,,,,031244,001,2024-12-03_21h26.57.206,Test,2024.2.1,60.42799176688793,2024-12-03 21h27.33.194627 +0100,
21,150,120,70,None,14,14,0,,,,,,,,,,,,,,,,0,14,14,20,,,,,383.0444445200119,,,,,,,,,,,,,,,,,,,,,,,,,,,,,,,,,,,,,,,,,,,,,,,,,,,,,,,383.0364631600096,383.0444445200119,383.3043701710121,383.3043701710121,383.3043701710121,,,384.944293722001,,,,,,,,,,,,,,,,,,,,,,,,,031244,001,2024-12-03_21h26.57.206,Test,2024.2.1,60.42799176688793,2024-12-03 21h27.33.194627 +0100,
30,150,150,53,None,15,15,0,,,,,,,,,,,,,,,,0,15,15,29,,,,,384.9605636510096,,,,,,,,,,,,,,,,,,,,,,,,,,,,,,,,,,,,,,,,,,,,,,,,,,,,,,,384.94953199000156,384.9605636510096,385.14434790000087,385.14434790000087,385.1610789880069,386.84725181800604,386.84725181800604,386.8291623940022,,,,,,,,,,,,,,,,,,,,,,,,,031244,001,2024-12-03_21h26.57.206,Test,2024.2.1,60.42799176688793,2024-12-03 21h27.33.194627 +0100,
32,150,180,37,None,16,16,0,,,,,,,,,,,,,,,,0,16,16,31,,,,,386.84725181800604,,,,,,,,,,,,,,,,,,,,,,,,,,,,,,,,,,,,,,,,,,,,,,,,,,,,,,,386.8349538890034,386.84725181800604,387.0450711380108,387.0450711380108,387.0615727760014,388.7446209129994,388.7446209129994,388.7289400490117,,,,,,,,,,,,,,,,,,,,,,,,,031244,001,2024-12-03_21h26.57.206,Test,2024.2.1,60.42799176688793,2024-12-03 21h27.33.194627 +0100,
20,150,90,68,None,17,17,0,,,,,,,,,,,,,,,,0,17,17,19,,,,,388.7446209129994,,,,,,,,,,,,,,,,,,,,,,,,,,,,,,,,,,,,,,,,,,,,,,,,,,,,,,,388.7339648699999,388.7446209129994,388.94468725800107,388.94468725800107,388.94468725800107,390.6448705410003,390.6448705410003,390.62895982401096,,,,,,,,,,,,,,,,,,,,,,,,,031244,001,2024-12-03_21h26.57.206,Test,2024.2.1,60.42799176688793,2024-12-03 21h27.33.194627 +0100,
34,150,180,61,None,18,18,0,,,,,,,,,,,,,,,,0,18,18,33,,,,,390.6448705410003,,,,,,,,,,,,,,,,,,,,,,,,,,,,,,,,,,,,,,,,,,,,,,,,,,,,,,,390.63511429401115,390.6448705410003,390.8443287859991,390.8443287859991,390.8443287859991,392.54561203900084,392.54561203900084,392.5293190640077,,,,,,,,,,,,,,,,,,,,,,,,,031244,001,2024-12-03_21h26.57.206,Test,2024.2.1,60.42799176688793,2024-12-03 21h27.33.194627 +0100,
12,150,60,8,None,19,19,0,,,,,,,,,,,,,,,,0,19,19,11,,,,,392.54561203900084,,,,,,,,,,,,,,,,,,,,,,,,,,,,,,,,,,,,,,,,,,,,,,,,,,,,,,,392.53710137101007,392.54561203900084,392.74500551100937,392.74500551100937,392.74500551100937,394.44526767700154,394.44526767700154,394.429687404001,,,,,,,,,,,,,,,,,,,,,,,,,031244,001,2024-12-03_21h26.57.206,Test,2024.2.1,60.42799176688793,2024-12-03 21h27.33.194627 +0100,
4,150,0,47,None,20,20,0,,,,,,,,,,,,,,,,0,20,20,3,,,,,394.44526767700154,,,,,,,,,,,,,,,,,,,,,,,,,,,,,,,,,,,,,,,,,,,,,,,,,,,,,,,394.43743848000304,394.44526767700154,394.6448511410126,394.6448511410126,394.6448511410126,396.3447857499996,396.3447857499996,396.3292798570037,,,,,,,,,,,,,,,,,,,,,,,,,031244,001,2024-12-03_21h26.57.206,Test,2024.2.1,60.42799176688793,2024-12-03 21h27.33.194627 +0100,
8,150,30,18,None,21,21,0,,,,,,,,,,,,,,,,0,21,21,7,,,,,396.3447857499996,,,,,,,,,,,,,,,,,,,,,,,,,,,,,,,,,,,,,,,,,,,,,,,,,,,,,,,396.33586058999936,396.3447857499996,396.54648854699917,396.54648854699917,396.54648854699917,398.2461946539988,398.2461946539988,398.2304144910013,,,,,,,,,,,,,,,,,,,,,,,,,031244,001,2024-12-03_21h26.57.206,Test,2024.2.1,60.42799176688793,2024-12-03 21h27.33.194627 +0100,
19,150,90,65,None,22,22,0,,,,,,,,,,,,,,,,0,22,22,18,,,,,398.2461946539988,,,,,,,,,,,,,,,,,,,,,,,,,,,,,,,,,,,,,,,,,,,,,,,,,,,,,,,398.2382924500125,398.2461946539988,398.445819569999,398.445819569999,398.445819569999,400.14519533301063,400.14519533301063,400.12957441101025,,,,,,,,,,,,,,,,,,,,,,,,,031244,001,2024-12-03_21h26.57.206,Test,2024.2.1,60.42799176688793,2024-12-03 21h27.33.194627 +0100,
26,150,150,17,None,23,23,0,,,,,,,,,,,,,,,,0,23,23,25,,,,,400.14519533301063,,,,,,,,,,,,,,,,,,,,,,,,,,,,,,,,,,,,,,,,,,,,,,,,,,,,,,,400.1352740260045,400.14519533301063,400.3455027410091,400.3455027410091,400.3455027410091,402.04513464000775,402.04513464000775,402.02956406101293,,,,,,,,,,,,,,,,,,,,,,,,,031244,001,2024-12-03_21h26.57.206,Test,2024.2.1,60.42799176688793,2024-12-03 21h27.33.194627 +0100,
29,150,150,44,None,24,24,0,,,,,,,,,,,,,,,,0,24,24,28,,,,,402.04513464000775,,,,,,,,,,,,,,,,,,,,,,,,,,,,,,,,,,,,,,,,,,,,,,,,,,,,,,,402.0353561910015,402.04513464000775,402.2454272550094,402.2454272550094,402.2454272550094,403.9454028830078,403.9454028830078,403.9299362830061,,,,,,,,,,,,,,,,,,,,,,,,,031244,001,2024-12-03_21h26.57.206,Test,2024.2.1,60.42799176688793,2024-12-03 21h27.33.194627 +0100,
7,150,30,15,None,25,25,0,,,,,,,,,,,,,,,,0,25,25,6,,,,,403.9454028830078,,,,,,,,,,,,,,,,,,,,,,,,,,,,,,,,,,,,,,,,,,,,,,,,,,,,,,,403.93596496700775,403.9454028830078,404.1462416590075,404.1462416590075,404.1462416590075,405.845440575009,405.845440575009,405.8304459380015,,,,,,,,,,,,,,,,,,,,,,,,,031244,001,2024-12-03_21h26.57.206,Test,2024.2.1,60.42799176688793,2024-12-03 21h27.33.194627 +0100,
27,150,150,41,None,26,26,0,,,,,,,,,,,,,,,,0,26,26,26,,,,,405.845440575009,,,,,,,,,,,,,,,,,,,,,,,,,,,,,,,,,,,,,,,,,,,,,,,,,,,,,,,405.83620347300894,405.845440575009,406.0459379189997,406.0459379189997,406.0459379189997,407.74648422900646,407.74648422900646,407.73039309900196,,,,,,,,,,,,,,,,,,,,,,,,,031244,001,2024-12-03_21h26.57.206,Test,2024.2.1,60.42799176688793,2024-12-03 21h27.33.194627 +0100,
24,150,120,49,None,27,27,0,,,,,,,,,,,,,,,,0,27,27,23,,,,,407.74648422900646,,,,,,,,,,,,,,,,,,,,,,,,,,,,,,,,,,,,,,,,,,,,,,,,,,,,,,,407.73820293899917,407.74648422900646,407.9473739620007,407.9473739620007,407.9473739620007,,,409.6464782240073,,,,,,,,,,,,,,,,,,,,,,,,,031244,001,2024-12-03_21h26.57.206,Test,2024.2.1,60.42799176688793,2024-12-03 21h27.33.194627 +0100,
11,150,60,38,None,28,28,0,,,,,,,,,,,,,,,,0,28,28,10,,,,,409.66253177700855,,,,,,,,,,,,,,,,,,,,,,,,,,,,,,,,,,,,,,,,,,,,,,,,,,,,,,,409.65224220600794,409.66253177700855,409.8467895470094,409.8467895470094,409.8629508360027,411.5458439470094,411.5458439470094,411.530488222008,,,,,,,,,,,,,,,,,,,,,,,,,031244,001,2024-12-03_21h26.57.206,Test,2024.2.1,60.42799176688793,2024-12-03 21h27.33.194627 +0100,
6,150,30,66,None,29,29,0,,,,,,,,,,,,,,,,0,29,29,5,,,,,411.5458439470094,,,,,,,,,,,,,,,,,,,,,,,,,,,,,,,,,,,,,,,,,,,,,,,,,,,,,,,411.53725629200926,411.5458439470094,411.74640572900535,411.74640572900535,411.74640572900535,413.44597137100936,413.44597137100936,413.4310700019996,,,,,,,,,,,,,,,,,,,,,,,,,031244,001,2024-12-03_21h26.57.206,Test,2024.2.1,60.42799176688793,2024-12-03 21h27.33.194627 +0100,
3,150,0,10,None,30,30,0,,,,,,,,,,,,,,,,0,30,30,2,,,,,413.44597137100936,,,,,,,,,,,,,,,,,,,,,,,,,,,,,,,,,,,,,,,,,,,,,,,,,,,,,,,413.4375006920018,413.44597137100936,413.64783341099974,413.64783341099974,413.64783341099974,,,415.3468009250064,,,,,,,,,,,,,,,,,,,,,,,,,031244,001,2024-12-03_21h26.57.206,Test,2024.2.1,60.42799176688793,2024-12-03 21h27.33.194627 +0100,
16,150,90,46,None,31,31,0,,,,,,,,,,,,,,,,0,31,31,15,,,,,415.3629004930117,,,,,,,,,,,,,,,,,,,,,,,,,,,,,,,,,,,,,,,,,,,,,,,,,,,,,,,415.3535168070084,415.3629004930117,415.54672366700834,415.54672366700834,415.5634652600129,417.24640070300666,417.24640070300666,417.2311383460037,,,,,,,,,,,,,,,,,,,,,,,,,031244,001,2024-12-03_21h26.57.206,Test,2024.2.1,60.42799176688793,2024-12-03 21h27.33.194627 +0100,
17,150,90,25,None,32,32,0,,,,,,,,,,,,,,,,0,32,32,16,,,,,417.24640070300666,,,,,,,,,,,,,,,,,,,,,,,,,,,,,,,,,,,,,,,,,,,,,,,,,,,,,,,417.23720295200474,417.24640070300666,417.44689134501095,417.44689134501095,417.44689134501095,419.1470443930011,419.1470443930011,419.131181210003,,,,,,,,,,,,,,,,,,,,,,,,,031244,001,2024-12-03_21h26.57.206,Test,2024.2.1,60.42799176688793,2024-12-03 21h27.33.194627 +0100,
10,150,30,19,None,33,33,0,,,,,,,,,,,,,,,,0,33,33,9,,,,,419.1470443930011,,,,,,,,,,,,,,,,,,,,,,,,,,,,,,,,,,,,,,,,,,,,,,,,,,,,,,,419.1375308370043,419.1470443930011,419.3467567510088,419.3467567510088,419.3467567510088,421.05157227000745,421.05157227000745,421.03258740100136,,,,,,,,,,,,,,,,,,,,,,,,,031244,001,2024-12-03_21h26.57.206,Test,2024.2.1,60.42799176688793,2024-12-03 21h27.33.194627 +0100,
1,150,0,36,None,34,34,0,,,,,,,,,,,,,,,,0,34,34,0,,,,,421.05157227000745,,,,,,,,,,,,,,,,,,,,,,,,,,,,,,,,,,,,,,,,,,,,,,,,,,,,,,,421.04276682600903,421.05157227000745,421.2472485400067,421.2472485400067,421.26420640300785,422.947217257999,422.947217257999,422.9312329390086,,,,,,,,,,,,,,,,,,,,,,,,,031244,001,2024-12-03_21h26.57.206,Test,2024.2.1,60.42799176688793,2024-12-03 21h27.33.194627 +0100,
,,,,,,,,,,,,,,,,,,,,,,,,,,,,,,,,,,,,,,,,,,,,,,,,,,,,,,,,,,,,,,,,,,,,,,,,,,,,,,,,,,,,,,,,,,,,,,422.93138219400134,422.947217257999,422.947217257999,428.58220498700393,space,5.623554403005983,None,,,,,,,,,,,,,,,,,,031244,001,2024-12-03_21h26.57.206,Test,2024.2.1,60.42799176688793,2024-12-03 21h27.33.194627 +0100,
39,150,0,3,None,0,0,0,True,,,,left,0.8866798850067426,None,,,,,,,,,,,,,0,0,0,0,428.60719357100606,,,,,,,,,,,,,,,,,,,,,,,,,,,,,,,,,,,,,,,,,,,,,,,,,,,,,,,,,,,,,,,,,,,,,,428.5980917620036,428.60719357100606,429.6154917870008,430.5984116690088,430.5984116690088,430.5984116690088,431.50020031900203,left,0.8866798850067426,None,,,,,,,,031244,001,2024-12-03_21h26.57.206,Test,2024.2.1,60.42799176688793,2024-12-03 21h27.33.194627 +0100,
52,150,90,13,None,1,1,0,True,,,,left,1.0922398529946804,None,,,,,,,,,,,,,0,1,1,1,431.5175304340082,,,,,,,,,,,,,,,,,,,,,,,,,,,,,,,,,,,,,,,,,,,,,,,,,,,,,,,,,,,,,,,,,,,,,,431.50822461801,431.5175304340082,432.53129140300734,433.5145814550051,433.5145814550051,433.5145814550051,434.61623302299995,left,1.0922398529946804,None,,,,,,,,031244,001,2024-12-03_21h26.57.206,Test,2024.2.1,60.42799176688793,2024-12-03 21h27.33.194627 +0100,
45,150,30,21,None,2,2,0,True,,,,right,0.7846136320004007,None,,,,,,,,,,,,,0,2,2,2,434.63209363500937,,,,,,,,,,,,,,,,,,,,,,,,,,,,,,,,,,,,,,,,,,,,,,,,,,,,,,,,,,,,,,,,,,,,,,434.62233897999977,434.63209363500937,435.63216091200593,436.63199226801225,436.63199226801225,436.63199226801225,437.4335615660093,right,0.7846136320004007,None,,,,,,,,031244,001,2024-12-03_21h26.57.206,Test,2024.2.1,60.42799176688793,2024-12-03 21h27.33.194627 +0100,
51,150,90,5,None,3,3,0,True,,,,right,1.2354296410048846,None,,,,,,,,,,,,,0,3,3,3,437.4485423180013,,,,,,,,,,,,,,,,,,,,,,,,,,,,,,,,,,,,,,,,,,,,,,,,,,,,,,,,,,,,,,,,,,,,,,437.4392682220059,437.4485423180013,438.448962917013,439.4314341230056,439.4314341230056,439.4314341230056,440.6836826350045,right,1.2354296410048846,None,,,,,,,,031244,001,2024-12-03_21h26.57.206,Test,2024.2.1,60.42799176688793,2024-12-03 21h27.33.194627 +0100,
18,150,90,59,None,4,4,0,False,,,,right,1.0672480700013693,None,,,,,,,,,,,,,0,4,4,4,440.6991217390023,,,,,,,,,,,,,,,,,,,,,,,,,,,,,,,,,,,,,,,,,,,,,,,,,,,,,,,,,,,,,,,,,,,,,,440.68917305501236,440.6991217390023,441.69912063900847,442.69856048800284,442.69856048800284,442.69856048800284,443.7681686490105,right,1.0672480700013693,None,,,,,,,,031244,001,2024-12-03_21h26.57.206,Test,2024.2.1,60.42799176688793,2024-12-03 21h27.33.194627 +0100,
21,150,120,70,None,5,5,0,False,,,,right,1.1089056380005786,None,,,,,,,,,,,,,0,5,5,5,443.7824717290059,,,,,,,,,,,,,,,,,,,,,,,,,,,,,,,,,,,,,,,,,,,,,,,,,,,,,,,,,,,,,,,,,,,,,,443.7735651719995,443.7824717290059,444.78288637100195,445.78197678600554,445.78197678600554,445.78197678600554,446.8995586920064,right,1.1089056380005786,None,,,,,,,,031244,001,2024-12-03_21h26.57.206,Test,2024.2.1,60.42799176688793,2024-12-03 21h27.33.194627 +0100,
3,150,0,10,None,6,6,0,False,,,,right,0.8235033289965941,None,,,,,,,,,,,,,0,6,6,6,446.91524690001097,,,,,,,,,,,,,,,,,,,,,,,,,,,,,,,,,,,,,,,,,,,,,,,,,,,,,,,,,,,,,,,,,,,,,,446.90525730700756,446.91524690001097,447.9157360740064,448.89993106000475,448.89993106000475,448.89993106000475,449.73562323300575,right,0.8235033289965941,None,,,,,,,,031244,001,2024-12-03_21h26.57.206,Test,2024.2.1,60.42799176688793,2024-12-03 21h27.33.194627 +0100,
35,150,180,16,None,7,7,0,False,,,,left,1.1437523859931389,None,,,,,,,,,,,,,0,7,7,7,449.7516552320012,,,,,,,,,,,,,,,,,,,,,,,,,,,,,,,,,,,,,,,,,,,,,,,,,,,,,,,,,,,,,,,,,,,,,,449.74217244300235,449.7516552320012,450.7656575130095,451.75004543901014,451.75004543901014,451.75004543901014,452.90093357200385,left,1.1437523859931389,None,,,,,,,,031244,001,2024-12-03_21h26.57.206,Test,2024.2.1,60.42799176688793,2024-12-03 21h27.33.194627 +0100,
1,150,0,36,None,8,8,0,False,,,,left,0.9167217810027068,None,,,,,,,,,,,,,0,8,8,8,452.91640054801246,,,,,,,,,,,,,,,,,,,,,,,,,,,,,,,,,,,,,,,,,,,,,,,,,,,,,,,,,,,,,,,,,,,,,,452.906729549999,452.91640054801246,453.9168234050012,454.9166104350006,454.9166104350006,454.9166104350006,455.8505642480013,left,0.9167217810027068,None,,,,,,,,031244,001,2024-12-03_21h26.57.206,Test,2024.2.1,60.42799176688793,2024-12-03 21h27.33.194627 +0100,
2,150,0,52,None,9,9,0,False,,,,left,1.5062620820099255,None,,,,,,,,,,,,,0,9,9,9,455.8669758360047,,,,,,,,,,,,,,,,,,,,,,,,,,,,,,,,,,,,,,,,,,,,,,,,,,,,,,,,,,,,,,,,,,,,,,455.8588566180115,455.8669758360047,456.8661488850048,457.8497827780084,457.8497827780084,457.8497827780084,459.3677722660068,left,1.5062620820099255,None,,,,,,,,031244,001,2024-12-03_21h26.57.206,Test,2024.2.1,60.42799176688793,2024-12-03 21h27.33.194627 +0100,
67,150,180,2,None,10,10,0,True,,,,left,1.0379495560046053,None,,,,,,,,,,,,,0,10,10,10,459.3849674860103,,,,,,,,,,,,,,,,,,,,,,,,,,,,,,,,,,,,,,,,,,,,,,,,,,,,,,,,,,,,,,,,,,,,,,459.37620521101053,459.3849674860103,460.3997440110106,461.3674339940044,461.3674339940044,461.3674339940044,462.41785062001145,left,1.0379495560046053,None,,,,,,,,031244,001,2024-12-03_21h26.57.206,Test,2024.2.1,60.42799176688793,2024-12-03 21h27.33.194627 +0100,
26,150,150,17,None,11,11,0,False,,,,right,0.7709846590005327,None,,,,,,,,,,,,,0,11,11,11,462.4331379070063,,,,,,,,,,,,,,,,,,,,,,,,,,,,,,,,,,,,,,,,,,,,,,,,,,,,,,,,,,,,,,,,,,,,,,462.42315258600865,462.4331379070063,463.4337157370028,464.417346377013,464.417346377013,464.417346377013,465.2015181700117,right,0.7709846590005327,None,,,,,,,,031244,001,2024-12-03_21h26.57.206,Test,2024.2.1,60.42799176688793,2024-12-03 21h27.33.194627 +0100,
37,150,0,7,None,12,12,0,True,,,,left,0.9742153530096402,None,,,,,,,,,,,,,0,12,12,12,465.21644068000023,,,,,,,,,,,,,,,,,,,,,,,,,,,,,,,,,,,,,,,,,,,,,,,,,,,,,,,,,,,,,,,,,,,,,,465.2070325270033,465.21644068000023,466.21665349700197,467.21686295401014,467.21686295401014,467.21686295401014,468.2020089560101,left,0.9742153530096402,None,,,,,,,,031244,001,2024-12-03_21h26.57.206,Test,2024.2.1,60.42799176688793,2024-12-03 21h27.33.194627 +0100,
30,150,150,53,None,13,13,0,False,,,,left,1.1003257090051193,None,,,,,,,,,,,,,0,13,13,13,468.21662405900133,,,,,,,,,,,,,,,,,,,,,,,,,,,,,,,,,,,,,,,,,,,,,,,,,,,,,,,,,,,,,,,,,,,,,,468.20741113800614,468.21662405900133,469.21693969800253,470.21758858700923,470.21758858700923,470.21758858700923,471.334494737006,left,1.1003257090051193,None,,,,,,,,031244,001,2024-12-03_21h26.57.206,Test,2024.2.1,60.42799176688793,2024-12-03 21h27.33.194627 +0100,
25,150,120,26,None,14,14,0,False,,,,right,0.9328219689923571,None,,,,,,,,,,,,,0,14,14,14,471.34990013700735,,,,,,,,,,,,,,,,,,,,,,,,,,,,,,,,,,,,,,,,,,,,,,,,,,,,,,,,,,,,,,,,,,,,,,471.3402770829998,471.34990013700735,472.366818118011,473.3339285760012,473.3339285760012,473.3339285760012,474.27017210400663,right,0.9328219689923571,None,,,,,,,,031244,001,2024-12-03_21h26.57.206,Test,2024.2.1,60.42799176688793,2024-12-03 21h27.33.194627 +0100,
50,150,60,55,None,15,15,0,True,,,,left,1.530736964996322,None,,,,,,,,,,,,,0,15,15,15,474.28539816000557,,,,,,,,,,,,,,,,,,,,,,,,,,,,,,,,,,,,,,,,,,,,,,,,,,,,,,,,,,,,,,,,,,,,,,474.2760281630035,474.28539816000557,475.30085906801105,476.2844945780089,476.2844945780089,476.2844945780089,477.82025196299946,left,1.530736964996322,None,,,,,,,,031244,001,2024-12-03_21h26.57.206,Test,2024.2.1,60.42799176688793,2024-12-03 21h27.33.194627 +0100,
17,150,90,25,None,16,16,0,False,,,,right,0.9695229200005997,None,,,,,,,,,,,,,0,16,16,16,477.8347528430022,,,,,,,,,,,,,,,,,,,,,,,,,,,,,,,,,,,,,,,,,,,,,,,,,,,,,,,,,,,,,,,,,,,,,,477.8258109570015,477.8347528430022,478.8345840020047,479.83385652500147,479.83385652500147,479.83385652500147,480.81996026400884,right,0.9695229200005997,None,,,,,,,,031244,001,2024-12-03_21h26.57.206,Test,2024.2.1,60.42799176688793,2024-12-03 21h27.33.194627 +0100,
44,150,30,34,None,17,17,0,True,,,,left,1.0008505220030202,None,,,,,,,,,,,,,0,17,17,17,480.83513162600866,,,,,,,,,,,,,,,,,,,,,,,,,,,,,,,,,,,,,,,,,,,,,,,,,,,,,,,,,,,,,,,,,,,,,,480.825999313005,480.83513162600866,481.8354970720102,482.83496332200593,482.83496332200593,482.83496332200593,483.8524313490052,left,1.0008505220030202,None,,,,,,,,031244,001,2024-12-03_21h26.57.206,Test,2024.2.1,60.42799176688793,2024-12-03 21h27.33.194627 +0100,
59,150,120,30,None,18,18,0,True,,,,left,1.3727823160006665,None,,,,,,,,,,,,,0,18,18,18,483.8676978040021,,,,,,,,,,,,,,,,,,,,,,,,,,,,,,,,,,,,,,,,,,,,,,,,,,,,,,,,,,,,,,,,,,,,,,483.85779073300364,483.8676978040021,484.86855595400266,485.867936930008,485.867936930008,485.867936930008,487.25265814200975,left,1.3727823160006665,None,,,,,,,,031244,001,2024-12-03_21h26.57.206,Test,2024.2.1,60.42799176688793,2024-12-03 21h27.33.194627 +0100,
63,150,150,69,None,19,19,0,True,,,,right,1.3453714680072153,None,,,,,,,,,,,,,0,19,19,19,487.26930827200704,,,,,,,,,,,,,,,,,,,,,,,,,,,,,,,,,,,,,,,,,,,,,,,,,,,,,,,,,,,,,,,,,,,,,,487.25983891299984,487.26930827200704,488.28510520201235,489.26865614000417,489.26865614000417,489.26865614000417,490.6200848060107,right,1.3453714680072153,None,,,,,,,,031244,001,2024-12-03_21h26.57.206,Test,2024.2.1,60.42799176688793,2024-12-03 21h27.33.194627 +0100,
15,150,60,9,None,20,20,0,False,,,,left,1.0963935879990458,None,,,,,,,,,,,,,0,20,20,20,490.6355961510126,,,,,,,,,,,,,,,,,,,,,,,,,,,,,,,,,,,,,,,,,,,,,,,,,,,,,,,,,,,,,,,,,,,,,,490.6261298310128,490.6355961510126,491.6354823550064,492.6347872699989,492.6347872699989,492.6347872699989,493.73698236800556,left,1.0963935879990458,None,,,,,,,,031244,001,2024-12-03_21h26.57.206,Test,2024.2.1,60.42799176688793,2024-12-03 21h27.33.194627 +0100,
53,150,90,27,None,21,21,0,True,,,,left,1.5021336229983717,None,,,,,,,,,,,,,0,21,21,21,493.7521976810094,,,,,,,,,,,,,,,,,,,,,,,,,,,,,,,,,,,,,,,,,,,,,,,,,,,,,,,,,,,,,,,,,,,,,,493.7431278810109,493.7521976810094,494.75221336301183,495.75208581300103,495.75208581300103,495.75208581300103,497.2712598910002,left,1.5021336229983717,None,,,,,,,,031244,001,2024-12-03_21h26.57.206,Test,2024.2.1,60.42799176688793,2024-12-03 21h27.33.194627 +0100,
34,150,180,61,None,22,22,0,False,,,,right,1.0162465429893928,None,,,,,,,,,,,,,0,22,22,22,497.28621638700133,,,,,,,,,,,,,,,,,,,,,,,,,,,,,,,,,,,,,,,,,,,,,,,,,,,,,,,,,,,,,,,,,,,,,,497.2773915310099,497.28621638700133,498.2855523239996,499.2856850570097,499.2856850570097,499.2856850570097,500.30505293300666,right,1.0162465429893928,None,,,,,,,,031244,001,2024-12-03_21h26.57.206,Test,2024.2.1,60.42799176688793,2024-12-03 21h27.33.194627 +0100,
43,150,30,31,None,23,23,0,True,,,,left,0.9249019200069597,None,,,,,,,,,,,,,0,23,23,23,500.31992155899934,,,,,,,,,,,,,,,,,,,,,,,,,,,,,,,,,,,,,,,,,,,,,,,,,,,,,,,,,,,,,,,,,,,,,,500.31049498300126,500.31992155899934,501.319741534011,502.30283934800536,502.30283934800536,502.30283934800536,503.23770087100274,left,0.9249019200069597,None,,,,,,,,031244,001,2024-12-03_21h26.57.206,Test,2024.2.1,60.42799176688793,2024-12-03 21h27.33.194627 +0100,
28,150,150,29,None,24,24,0,False,,,,right,0.9746951400011312,None,,,,,,,,,,,,,0,24,24,24,503.2538461600052,,,,,,,,,,,,,,,,,,,,,,,,,,,,,,,,,,,,,,,,,,,,,,,,,,,,,,,,,,,,,,,,,,,,,,503.2443011889991,503.2538461600052,504.2527145780041,505.23632276800345,505.23632276800345,505.23632276800345,506.2217078870017,right,0.9746951400011312,None,,,,,,,,031244,001,2024-12-03_21h26.57.206,Test,2024.2.1,60.42799176688793,2024-12-03 21h27.33.194627 +0100,
64,150,150,22,None,25,25,0,True,,,,left,1.3334220749966335,None,,,,,,,,,,,,,0,25,25,25,506.23747609500424,,,,,,,,,,,,,,,,,,,,,,,,,,,,,,,,,,,,,,,,,,,,,,,,,,,,,,,,,,,,,,,,,,,,,,506.22784576000413,506.23747609500424,507.2662363290001,508.2356178260088,508.2356178260088,508.2356178260088,509.57284443201206,left,1.3334220749966335,None,,,,,,,,031244,001,2024-12-03_21h26.57.206,Test,2024.2.1,60.42799176688793,2024-12-03 21h27.33.194627 +0100,
5,150,0,32,None,26,26,0,False,,,,left,0.9224508499901276,None,,,,,,,,,,,,,0,26,26,26,509.5874152900069,,,,,,,,,,,,,,,,,,,,,,,,,,,,,,,,,,,,,,,,,,,,,,,,,,,,,,,,,,,,,,,,,,,,,,509.5782867210073,509.5874152900069,510.58635889600555,511.586974373,511.586974373,511.586974373,512.521057408012,left,0.9224508499901276,None,,,,,,,,031244,001,2024-12-03_21h26.57.206,Test,2024.2.1,60.42799176688793,2024-12-03 21h27.33.194627 +0100,
46,150,60,39,None,27,27,0,True,,,,left,1.4632358529925114,None,,,,,,,,,,,,,0,27,27,27,512.5371987680119,,,,,,,,,,,,,,,,,,,,,,,,,,,,,,,,,,,,,,,,,,,,,,,,,,,,,,,,,,,,,,,,,,,,,,512.5285164650122,512.5371987680119,513.5377676630014,514.5206760310102,514.5206760310102,514.5206760310102,515.9889019810071,left,1.4632358529925114,None,,,,,,,,031244,001,2024-12-03_21h26.57.206,Test,2024.2.1,60.42799176688793,2024-12-03 21h27.33.194627 +0100,
47,150,60,57,None,28,28,0,True,,,,left,1.662818878001417,None,,,,,,,,,,,,,0,28,28,28,516.0040332120116,,,,,,,,,,,,,,,,,,,,,,,,,,,,,,,,,,,,,,,,,,,,,,,,,,,,,,,,,,,,,,,,,,,,,,515.9946612950007,516.0040332120116,517.003664007003,517.9884548110131,517.9884548110131,517.9884548110131,519.6560758340056,left,1.662818878001417,None,,,,,,,,031244,001,2024-12-03_21h26.57.206,Test,2024.2.1,60.42799176688793,2024-12-03 21h27.33.194627 +0100,
36,150,0,45,None,29,29,0,True,,,,left,1.0510617429972626,None,,,,,,,,,,,,,0,29,29,29,519.6718897700048,,,,,,,,,,,,,,,,,,,,,,,,,,,,,,,,,,,,,,,,,,,,,,,,,,,,,,,,,,,,,,,,,,,,,,519.6623384490085,519.6718897700048,520.6876438640029,521.6706089000072,521.6706089000072,521.6706089000072,522.7394853350124,left,1.0510617429972626,None,,,,,,,,031244,001,2024-12-03_21h26.57.206,Test,2024.2.1,60.42799176688793,2024-12-03 21h27.33.194627 +0100,
27,150,150,41,None,30,30,0,False,,,,left,1.3009079820039915,None,,,,,,,,,,,,,0,30,30,30,522.7542621270113,,,,,,,,,,,,,,,,,,,,,,,,,,,,,,,,,,,,,,,,,,,,,,,,,,,,,,,,,,,,,,,,,,,,,,522.7452039700001,522.7542621270113,523.755230876006,524.7546891020029,524.7546891020029,524.7546891020029,526.0730189150054,left,1.3009079820039915,None,,,,,,,,031244,001,2024-12-03_21h26.57.206,Test,2024.2.1,60.42799176688793,2024-12-03 21h27.33.194627 +0100,
16,150,90,46,None,31,31,0,False,,,,right,1.2007205499976408,None,,,,,,,,,,,,,0,31,31,31,526.0881874400075,,,,,,,,,,,,,,,,,,,,,,,,,,,,,,,,,,,,,,,,,,,,,,,,,,,,,,,,,,,,,,,,,,,,,,526.0791705529991,526.0881874400075,527.0871963310055,528.0881522500131,528.0881522500131,528.0881522500131,529.3052444070054,right,1.2007205499976408,None,,,,,,,,031244,001,2024-12-03_21h26.57.206,Test,2024.2.1,60.42799176688793,2024-12-03 21h27.33.194627 +0100,
19,150,90,65,None,32,32,0,False,,,,left,0.9803493879880989,None,,,,,,,,,,,,,0,32,32,32,529.3210320030048,,,,,,,,,,,,,,,,,,,,,,,,,,,,,,,,,,,,,,,,,,,,,,,,,,,,,,,,,,,,,,,,,,,,,,529.3105984720023,529.3210320030048,530.3213780590013,531.3045789590105,531.3045789590105,531.3045789590105,532.2898939090082,left,0.9803493879880989,None,,,,,,,,031244,001,2024-12-03_21h26.57.206,Test,2024.2.1,60.42799176688793,2024-12-03 21h27.33.194627 +0100,
6,150,30,66,None,33,33,0,False,,,,right,1.1189361889992142,None,,,,,,,,,,,,,0,33,33,33,532.304733240002,,,,,,,,,,,,,,,,,,,,,,,,,,,,,,,,,,,,,,,,,,,,,,,,,,,,,,,,,,,,,,,,,,,,,,532.2957703090069,532.304733240002,533.3049226490111,534.304785639004,534.304785639004,534.304785639004,535.4404305110074,right,1.1189361889992142,None,,,,,,,,031244,001,2024-12-03_21h26.57.206,Test,2024.2.1,60.42799176688793,2024-12-03 21h27.33.194627 +0100,
38,150,0,56,None,34,34,0,True,,,,left,1.4806124449969502,None,,,,,,,,,,,,,0,34,34,34,535.455256330999,,,,,,,,,,,,,,,,,,,,,,,,,,,,,,,,,,,,,,,,,,,,,,,,,,,,,,,,,,,,,,,,,,,,,,535.4464124420047,535.455256330999,536.4550947590033,537.4551715770067,537.4551715770067,537.4551715770067,538.9406002080068,left,1.4806124449969502,None,,,,,,,,031244,001,2024-12-03_21h26.57.206,Test,2024.2.1,60.42799176688793,2024-12-03 21h27.33.194627 +0100,
12,150,60,8,None,35,35,0,False,,,,left,1.090547747007804,None,,,,,,,,,,,,,0,35,35,35,538.9558061550051,,,,,,,,,,,,,,,,,,,,,,,,,,,,,,,,,,,,,,,,,,,,,,,,,,,,,,,,,,,,,,,,,,,,,,538.9468398489989,538.9558061550051,539.9550845850026,540.9554043530079,540.9554043530079,540.9554043530079,542.0568242590089,left,1.090547747007804,None,,,,,,,,031244,001,2024-12-03_21h26.57.206,Test,2024.2.1,60.42799176688793,2024-12-03 21h27.33.194627 +0100,
70,150,180,54,None,36,36,0,True,,,,right,0.9916828029963654,None,,,,,,,,,,,,,0,36,36,36,542.0719515780074,,,,,,,,,,,,,,,,,,,,,,,,,,,,,,,,,,,,,,,,,,,,,,,,,,,,,,,,,,,,,,,,,,,,,,542.0627601940068,542.0719515780074,543.0721251070063,544.0564499330067,544.0564499330067,544.0564499330067,545.0563968540082,right,0.9916828029963654,None,,,,,,,,031244,001,2024-12-03_21h26.57.206,Test,2024.2.1,60.42799176688793,2024-12-03 21h27.33.194627 +0100,
56,150,120,24,None,37,37,0,True,,,,right,0.9952954460022738,None,,,,,,,,,,,,,0,37,37,37,545.0723398530099,,,,,,,,,,,,,,,,,,,,,,,,,,,,,,,,,,,,,,,,,,,,,,,,,,,,,,,,,,,,,,,,,,,,,,545.0622042169998,545.0723398530099,546.0723104450008,547.0558850990055,547.0558850990055,547.0558850990055,548.0576989620022,right,0.9952954460022738,None,,,,,,,,031244,001,2024-12-03_21h26.57.206,Test,2024.2.1,60.42799176688793,2024-12-03 21h27.33.194627 +0100,
54,150,90,35,None,38,38,0,True,,,,left,1.4154733050090726,None,,,,,,,,,,,,,0,38,38,38,548.0732173760043,,,,,,,,,,,,,,,,,,,,,,,,,,,,,,,,,,,,,,,,,,,,,,,,,,,,,,,,,,,,,,,,,,,,,,548.0640596760059,548.0732173760043,549.0728100440028,550.0568773090054,550.0568773090054,550.0568773090054,551.4752945600048,left,1.4154733050090726,None,,,,,,,,031244,001,2024-12-03_21h26.57.206,Test,2024.2.1,60.42799176688793,2024-12-03 21h27.33.194627 +0100,
49,150,60,63,None,39,39,0,True,,,,left,1.2687501650070772,None,,,,,,,,,,,,,0,39,39,39,551.49128303201,,,,,,,,,,,,,,,,,,,,,,,,,,,,,,,,,,,,,,,,,,,,,,,,,,,,,,,,,,,,,,,,,,,,,,551.4828199190088,551.49128303201,552.5060820370127,553.4903630590125,553.4903630590125,553.4903630590125,554.7753663290059,left,1.2687501650070772,None,,,,,,,,031244,001,2024-12-03_21h26.57.206,Test,2024.2.1,60.42799176688793,2024-12-03 21h27.33.194627 +0100,
14,150,60,62,None,40,40,0,False,,,,right,1.3107559339987347,None,,,,,,,,,,,,,0,40,40,40,554.7930633100041,,,,,,,,,,,,,,,,,,,,,,,,,,,,,,,,,,,,,,,,,,,,,,,,,,,,,,,,,,,,,,,,,,,,,,554.7829930040025,554.7930633100041,555.8062371720007,556.789943574011,556.789943574011,556.789943574011,558.108080888007,right,1.3107559339987347,None,,,,,,,,031244,001,2024-12-03_21h26.57.206,Test,2024.2.1,60.42799176688793,2024-12-03 21h27.33.194627 +0100,
4,150,0,47,None,41,41,0,False,,,,left,1.2803105110069737,None,,,,,,,,,,,,,0,41,41,41,558.1251860470074,,,,,,,,,,,,,,,,,,,,,,,,,,,,,,,,,,,,,,,,,,,,,,,,,,,,,,,,,,,,,,,,,,,,,,558.1160707970121,558.1251860470074,559.1244996940077,560.1227890279988,560.1227890279988,560.1227890279988,561.4084962400084,left,1.2803105110069737,None,,,,,,,,031244,001,2024-12-03_21h26.57.206,Test,2024.2.1,60.42799176688793,2024-12-03 21h27.33.194627 +0100,
9,150,30,51,None,42,42,0,False,,,,right,2.6014367750030942,None,,,,,,,,,,,,,0,42,42,42,561.4236916680093,,,,,,,,,,,,,,,,,,,,,,,,,,,,,,,,,,,,,,,,,,,,,,,,,,,,,,,,,,,,,,,,,,,,,,561.4136628480046,561.4236916680093,562.4233280980116,563.4242454060004,563.4242454060004,563.4242454060004,566.0420480830071,right,2.6014367750030942,None,,,,,,,,031244,001,2024-12-03_21h26.57.206,Test,2024.2.1,60.42799176688793,2024-12-03 21h27.33.194627 +0100,
61,150,150,12,None,43,43,0,True,,,,left,0.90951570100151,None,,,,,,,,,,,,,0,43,43,43,566.0576731860056,,,,,,,,,,,,,,,,,,,,,,,,,,,,,,,,,,,,,,,,,,,,,,,,,,,,,,,,,,,,,,,,,,,,,,566.048156394012,566.0576731860056,567.0571553350019,568.0576034880069,568.0576034880069,568.0576034880069,568.975304246007,left,0.90951570100151,None,,,,,,,,031244,001,2024-12-03_21h26.57.206,Test,2024.2.1,60.42799176688793,2024-12-03 21h27.33.194627 +0100,
22,150,120,42,None,44,44,0,False,,,,right,1.0157248449977487,None,,,,,,,,,,,,,0,44,44,44,568.9904676470032,,,,,,,,,,,,,,,,,,,,,,,,,,,,,,,,,,,,,,,,,,,,,,,,,,,,,,,,,,,,,,,,,,,,,,568.980544652004,568.9904676470032,569.9905584470107,570.9747931919992,570.9747931919992,570.9747931919992,571.9935004360013,right,1.0157248449977487,None,,,,,,,,031244,001,2024-12-03_21h26.57.206,Test,2024.2.1,60.42799176688793,2024-12-03 21h27.33.194627 +0100,
8,150,30,18,None,45,45,0,False,,,,left,1.2114568630058784,None,,,,,,,,,,,,,0,45,45,45,572.009560202001,,,,,,,,,,,,,,,,,,,,,,,,,,,,,,,,,,,,,,,,,,,,,,,,,,,,,,,,,,,,,,,,,,,,,,572.000622972002,572.009560202001,573.0243774550036,574.0225765850046,574.0225765850046,574.0225765850046,575.2421298360132,left,1.2114568630058784,None,,,,,,,,031244,001,2024-12-03_21h26.57.206,Test,2024.2.1,60.42799176688793,2024-12-03 21h27.33.194627 +0100,
65,150,150,6,None,46,46,0,True,,,,left,0.991413587005809,None,,,,,,,,,,,,,0,46,46,46,575.257146628006,,,,,,,,,,,,,,,,,,,,,,,,,,,,,,,,,,,,,,,,,,,,,,,,,,,,,,,,,,,,,,,,,,,,,,575.2474763150094,575.257146628006,576.2582109080104,577.241311662001,577.241311662001,577.241311662001,578.242382692013,left,0.991413587005809,None,,,,,,,,031244,001,2024-12-03_21h26.57.206,Test,2024.2.1,60.42799176688793,2024-12-03 21h27.33.194627 +0100,
60,150,120,20,None,47,47,0,True,,,,left,1.111141845001839,None,,,,,,,,,,,,,0,47,47,47,578.2580628170108,,,,,,,,,,,,,,,,,,,,,,,,,,,,,,,,,,,,,,,,,,,,,,,,,,,,,,,,,,,,,,,,,,,,,,578.2480320590112,578.2580628170108,579.2750560000131,580.2415368830116,580.2415368830116,580.2415368830116,581.3594455060083,left,1.111141845001839,None,,,,,,,,031244,001,2024-12-03_21h26.57.206,Test,2024.2.1,60.42799176688793,2024-12-03 21h27.33.194627 +0100,
68,150,180,40,None,48,48,0,True,,,,left,1.591762458003359,None,,,,,,,,,,,,,0,48,48,48,581.3745726460038,,,,,,,,,,,,,,,,,,,,,,,,,,,,,,,,,,,,,,,,,,,,,,,,,,,,,,,,,,,,,,,,,,,,,,581.3653043660015,581.3745726460038,582.375741366006,583.3746889930044,583.3746889930044,583.3746889930044,584.9796220270073,left,1.591762458003359,None,,,,,,,,031244,001,2024-12-03_21h26.57.206,Test,2024.2.1,60.42799176688793,2024-12-03 21h27.33.194627 +0100,
11,150,60,38,None,49,49,0,False,,,,right,1.0369657619885402,None,,,,,,,,,,,,,0,49,49,49,584.996634990006,,,,,,,,,,,,,,,,,,,,,,,,,,,,,,,,,,,,,,,,,,,,,,,,,,,,,,,,,,,,,,,,,,,,,,584.9873611090006,584.996634990006,586.00863037401,586.9926713820023,586.9926713820023,586.9926713820023,588.0439237490064,right,1.0369657619885402,None,,,,,,,,031244,001,2024-12-03_21h26.57.206,Test,2024.2.1,60.42799176688793,2024-12-03 21h27.33.194627 +0100,
69,150,180,58,None,50,50,0,True,,,,left,1.1613345840014517,None,,,,,,,,,,,,,0,50,50,50,588.0591666469991,,,,,,,,,,,,,,,,,,,,,,,,,,,,,,,,,,,,,,,,,,,,,,,,,,,,,,,,,,,,,,,,,,,,,,588.0503192300093,588.0591666469991,589.0589248040051,590.0587721530028,590.0587721530028,590.0587721530028,591.2280651020119,left,1.1613345840014517,None,,,,,,,,031244,001,2024-12-03_21h26.57.206,Test,2024.2.1,60.42799176688793,2024-12-03 21h27.33.194627 +0100,
55,150,90,48,None,51,51,0,True,,,,left,1.070779265006422,None,,,,,,,,,,,,,0,51,51,51,591.2435100420116,,,,,,,,,,,,,,,,,,,,,,,,,,,,,,,,,,,,,,,,,,,,,,,,,,,,,,,,,,,,,,,,,,,,,,591.2337530000077,591.2435100420116,592.2425383340014,593.2555443900055,593.2555443900055,593.2555443900055,594.3439794450096,left,1.070779265006422,None,,,,,,,,031244,001,2024-12-03_21h26.57.206,Test,2024.2.1,60.42799176688793,2024-12-03 21h27.33.194627 +0100,
13,150,60,4,None,52,52,0,False,,,,left,1.373849720999715,None,,,,,,,,,,,,,0,52,52,52,594.3609229120048,,,,,,,,,,,,,,,,,,,,,,,,,,,,,,,,,,,,,,,,,,,,,,,,,,,,,,,,,,,,,,,,,,,,,,594.3514183360094,594.3609229120048,595.3758744180086,596.3589043680113,596.3589043680113,596.3589043680113,597.7437315160059,left,1.373849720999715,None,,,,,,,,031244,001,2024-12-03_21h26.57.206,Test,2024.2.1,60.42799176688793,2024-12-03 21h27.33.194627 +0100,
20,150,90,68,None,53,53,0,False,,,,left,1.3102695859997766,None,,,,,,,,,,,,,0,53,53,53,597.7588655,,,,,,,,,,,,,,,,,,,,,,,,,,,,,,,,,,,,,,,,,,,,,,,,,,,,,,,,,,,,,,,,,,,,,,597.749185535009,597.7588655,598.7591448650055,599.7424511530116,599.7424511530116,599.7424511530116,601.0610234300111,left,1.3102695859997766,None,,,,,,,,031244,001,2024-12-03_21h26.57.206,Test,2024.2.1,60.42799176688793,2024-12-03 21h27.33.194627 +0100,
23,150,120,67,None,54,54,0,False,,,,right,2.2098828260059236,None,,,,,,,,,,,,,0,54,54,54,601.0767687860061,,,,,,,,,,,,,,,,,,,,,,,,,,,,,,,,,,,,,,,,,,,,,,,,,,,,,,,,,,,,,,,,,,,,,,601.0676682720077,601.0767687860061,602.0759036640084,603.0755342440098,603.0755342440098,603.0755342440098,605.2943933980132,right,2.2098828260059236,None,,,,,,,,031244,001,2024-12-03_21h26.57.206,Test,2024.2.1,60.42799176688793,2024-12-03 21h27.33.194627 +0100,
10,150,30,19,None,55,55,0,False,,,,right,2.658945204995689,None,,,,,,,,,,,,,0,55,55,55,605.3145944780117,,,,,,,,,,,,,,,,,,,,,,,,,,,,,,,,,,,,,,,,,,,,,,,,,,,,,,,,,,,,,,,,,,,,,,605.3065658470005,605.3145944780117,606.3269914039993,607.3106740110088,607.3106740110088,607.3106740110088,609.9777534780005,right,2.658945204995689,None,,,,,,,,031244,001,2024-12-03_21h26.57.206,Test,2024.2.1,60.42799176688793,2024-12-03 21h27.33.194627 +0100,
31,150,180,1,None,56,56,0,False,,,,left,1.0003980769979535,None,,,,,,,,,,,,,0,56,56,56,609.9929423660069,,,,,,,,,,,,,,,,,,,,,,,,,,,,,,,,,,,,,,,,,,,,,,,,,,,,,,,,,,,,,,,,,,,,,,609.9828188790125,609.9929423660069,610.9932486280013,611.9931379090121,611.9931379090121,611.9931379090121,612.9958853870048,left,1.0003980769979535,None,,,,,,,,031244,001,2024-12-03_21h26.57.206,Test,2024.2.1,60.42799176688793,2024-12-03 21h27.33.194627 +0100,
29,150,150,44,None,57,57,0,False,,,,right,1.2923624959948938,None,,,,,,,,,,,,,0,57,57,57,613.0162272919988,,,,,,,,,,,,,,,,,,,,,,,,,,,,,,,,,,,,,,,,,,,,,,,,,,,,,,,,,,,,,,,,,,,,,,613.0085696930037,613.0162272919988,614.0274439200002,615.0100675620051,615.0100675620051,615.0100675620051,616.3124171230011,right,1.2923624959948938,None,,,,,,,,031244,001,2024-12-03_21h26.57.206,Test,2024.2.1,60.42799176688793,2024-12-03 21h27.33.194627 +0100,
57,150,120,43,None,58,58,0,True,,,,left,1.1935795129975304,None,,,,,,,,,,,,,0,58,58,58,616.3290086699999,,,,,,,,,,,,,,,,,,,,,,,,,,,,,,,,,,,,,,,,,,,,,,,,,,,,,,,,,,,,,,,,,,,,,,616.3194211910013,616.3290086699999,617.3284737510112,618.327257943005,618.327257943005,618.327257943005,619.5286850400007,left,1.1935795129975304,None,,,,,,,,031244,001,2024-12-03_21h26.57.206,Test,2024.2.1,60.42799176688793,2024-12-03 21h27.33.194627 +0100,
7,150,30,15,None,59,59,0,False,,,,left,0.9058257160068024,None,,,,,,,,,,,,,0,59,59,59,619.5437116200046,,,,,,,,,,,,,,,,,,,,,,,,,,,,,,,,,,,,,,,,,,,,,,,,,,,,,,,,,,,,,,,,,,,,,,619.5332373960118,619.5437116200046,620.5444875280082,621.5436586050055,621.5436586050055,621.5436586050055,622.4633656640071,left,0.9058257160068024,None,,,,,,,,031244,001,2024-12-03_21h26.57.206,Test,2024.2.1,60.42799176688793,2024-12-03 21h27.33.194627 +0100,
33,150,180,23,None,60,60,0,False,,,,left,1.2437696699926164,None,,,,,,,,,,,,,0,60,60,60,622.4782117319992,,,,,,,,,,,,,,,,,,,,,,,,,,,,,,,,,,,,,,,,,,,,,,,,,,,,,,,,,,,,,,,,,,,,,,622.4682496290043,622.4782117319992,623.4772601889999,624.4782471910003,624.4782471910003,624.4782471910003,625.7300181510072,left,1.2437696699926164,None,,,,,,,,031244,001,2024-12-03_21h26.57.206,Test,2024.2.1,60.42799176688793,2024-12-03 21h27.33.194627 +0100,
48,150,60,14,None,61,61,0,True,,,,right,1.5807991640031105,None,,,,,,,,,,,,,0,61,61,61,625.7440630150086,,,,,,,,,,,,,,,,,,,,,,,,,,,,,,,,,,,,,,,,,,,,,,,,,,,,,,,,,,,,,,,,,,,,,,625.7346441120026,625.7440630150086,626.7449975830095,627.7443124370038,627.7443124370038,627.7443124370038,629.3307507340069,right,1.5807991640031105,None,,,,,,,,031244,001,2024-12-03_21h26.57.206,Test,2024.2.1,60.42799176688793,2024-12-03 21h27.33.194627 +0100,
40,150,0,64,None,62,62,0,True,,,,left,0.9785656059975736,None,,,,,,,,,,,,,0,62,62,62,629.3504988850036,,,,,,,,,,,,,,,,,,,,,,,,,,,,,,,,,,,,,,,,,,,,,,,,,,,,,,,,,,,,,,,,,,,,,,629.3429102869995,629.3504988850036,630.3610508870042,631.3453489270032,631.3453489270032,631.3453489270032,632.3300744750013,left,0.9785656059975736,None,,,,,,,,031244,001,2024-12-03_21h26.57.206,Test,2024.2.1,60.42799176688793,2024-12-03 21h27.33.194627 +0100,
66,150,180,33,None,63,63,0,True,,,,right,1.37295065500075,None,,,,,,,,,,,,,0,63,63,63,632.3453876780113,,,,,,,,,,,,,,,,,,,,,,,,,,,,,,,,,,,,,,,,,,,,,,,,,,,,,,,,,,,,,,,,,,,,,,632.3363271320122,632.3453876780113,633.3457378180028,634.3450221730018,634.3450221730018,634.3450221730018,635.7304599300114,right,1.37295065500075,None,,,,,,,,031244,001,2024-12-03_21h26.57.206,Test,2024.2.1,60.42799176688793,2024-12-03 21h27.33.194627 +0100,
62,150,150,11,None,64,64,0,True,,,,left,0.9609266089973971,None,,,,,,,,,,,,,0,64,64,64,635.7478146979993,,,,,,,,,,,,,,,,,,,,,,,,,,,,,,,,,,,,,,,,,,,,,,,,,,,,,,,,,,,,,,,,,,,,,,635.7376811249997,635.7478146979993,636.7619748889992,637.746376370007,637.746376370007,637.746376370007,638.713645582,left,0.9609266089973971,None,,,,,,,,031244,001,2024-12-03_21h26.57.206,Test,2024.2.1,60.42799176688793,2024-12-03 21h27.33.194627 +0100,
32,150,180,37,None,65,65,0,False,,,,right,1.1755180999898585,None,,,,,,,,,,,,,0,65,65,65,638.7295548560069,,,,,,,,,,,,,,,,,,,,,,,,,,,,,,,,,,,,,,,,,,,,,,,,,,,,,,,,,,,,,,,,,,,,,,638.7200200440129,638.7295548560069,639.7459781340003,640.7288127690117,640.7288127690117,640.7288127690117,641.9143638710084,right,1.1755180999898585,None,,,,,,,,031244,001,2024-12-03_21h26.57.206,Test,2024.2.1,60.42799176688793,2024-12-03 21h27.33.194627 +0100,
41,150,30,60,None,66,66,0,True,,,,left,0.9815138050034875,None,,,,,,,,,,,,,0,66,66,66,641.9293929609994,,,,,,,,,,,,,,,,,,,,,,,,,,,,,,,,,,,,,,,,,,,,,,,,,,,,,,,,,,,,,,,,,,,,,,641.9205479040102,641.9293929609994,642.928957606011,643.929674554005,643.929674554005,643.929674554005,644.9147389280115,left,0.9815138050034875,None,,,,,,,,031244,001,2024-12-03_21h26.57.206,Test,2024.2.1,60.42799176688793,2024-12-03 21h27.33.194627 +0100,
24,150,120,49,None,67,67,0,False,,,,left,1.4429021130054025,None,,,,,,,,,,,,,0,67,67,67,644.9300156400132,,,,,,,,,,,,,,,,,,,,,,,,,,,,,,,,,,,,,,,,,,,,,,,,,,,,,,,,,,,,,,,,,,,,,,644.9209003990109,644.9300156400132,645.929072799001,646.9297499900131,646.9297499900131,646.9297499900131,648.3809744000027,left,1.4429021130054025,None,,,,,,,,031244,001,2024-12-03_21h26.57.206,Test,2024.2.1,60.42799176688793,2024-12-03 21h27.33.194627 +0100,
42,150,30,50,None,68,68,0,True,,,,left,1.2446214559895452,None,,,,,,,,,,,,,0,68,68,68,648.396210596009,,,,,,,,,,,,,,,,,,,,,,,,,,,,,,,,,,,,,,,,,,,,,,,,,,,,,,,,,,,,,,,,,,,,,,648.3871659690049,648.396210596009,649.3960445970006,650.380341120006,650.380341120006,650.380341120006,651.6330516180024,left,1.2446214559895452,None,,,,,,,,031244,001,2024-12-03_21h26.57.206,Test,2024.2.1,60.42799176688793,2024-12-03 21h27.33.194627 +0100,
58,150,120,28,None,69,69,0,True,,,,left,1.1362962080020225,None,,,,,,,,,,,,,0,69,69,69,651.6496378360025,,,,,,,,,,,,,,,,,,,,,,,,,,,,,,,,,,,,,,,,,,,,,,,,,,,,,,,,,,,,,,,,,,,,,,651.6411068849993,651.6496378360025,652.6632705230004,653.64637055801,653.64637055801,653.64637055801,654.7981576989987,left,1.1362962080020225,None,,,,,,,,031244,001,2024-12-03_21h26.57.206,Test,2024.2.1,60.42799176688793,2024-12-03 21h27.33.194627 +0100,
,,,,,,,,,,,,,,,,,,,,,,,,,,,,,,,,,,,,,,,,,,,,,,,,,,,,,,,,,,,,,,,,,,,,,,,,,,,,,,,,,,,,,,,,,,,,,,,,,,,,,,,,,,,,,,,654.798374533013,654.8125782950083,654.8125782950083,657.6818417380127,space,2.8521258010005113,None,031244,001,2024-12-03_21h26.57.206,Test,2024.2.1,60.42799176688793,2024-12-03 21h27.33.194627 +0100,
