Trial_Number,Exposure_Duration,Displacement_Angle,Stimulus,Response,thisN,thisTrialN,thisRepN,Is_Distractor,key_resp_3.keys,key_resp_3.rt,key_resp_3.duration,key_resp_7.keys,key_resp_7.rt,key_resp_7.duration,trials.thisRepN,trials.thisTrialN,trials.thisN,trials.thisIndex,trials_2.thisRepN,trials_2.thisTrialN,trials_2.thisN,trials_2.thisIndex,trials_3.thisRepN,trials_3.thisTrialN,trials_3.thisN,trials_3.thisIndex,trials_4.thisRepN,trials_4.thisTrialN,trials_4.thisN,trials_4.thisIndex,thisRow.t,notes,Intro_to_experiment.started,important1_2.started,key_resp_8.started,Intro_to_experiment.stopped,key_resp_8.keys,key_resp_8.rt,key_resp_8.duration,important.started,important1.started,key_resp_4.started,important.stopped,key_resp_4.keys,key_resp_4.rt,key_resp_4.duration,training_instruction.started,key_resp_9.started,important1_3.started,training_instruction.stopped,key_resp_9.keys,key_resp_9.rt,key_resp_9.duration,training_trial.started,cross.started,image.started,aperture.started,cross.stopped,image.stopped,aperture.stopped,training_trial.stopped,New_instruction.started,text.started,key_resp_2.started,New_instruction.stopped,key_resp_2.keys,key_resp_2.rt,key_resp_2.duration,test_trial.started,cross2.started,cross2.stopped,image_2.started,key_resp_3.started,aperture_2.started,test_trial.stopped,trials_2.key_resp_3.keys,trials_2.key_resp_3.rt,trials_2.key_resp_3.duration,image_2.stopped,text_3.started,aperture_2.stopped,start_blok_2.started,key_resp_5.started,text_4.started,start_blok_2.stopped,key_resp_5.keys,key_resp_5.rt,key_resp_5.duration,training_2.started,cross_2.started,image_3.started,aperture_3.started,cross_2.stopped,image_3.stopped,aperture_3.stopped,training_2.stopped,nyeste_instruks.started,text_5.started,key_resp_6.started,nyeste_instruks.stopped,key_resp_6.keys,key_resp_6.rt,key_resp_6.duration,test_2.started,cross2_2.started,cross2_2.stopped,image_4.started,key_resp_7.started,aperture_4.started,test_2.stopped,trials_4.key_resp_7.keys,trials_4.key_resp_7.rt,trials_4.key_resp_7.duration,image_4.stopped,text_6.started,aperture_4.stopped,Instruction.started,Instruktion.started,key_resp.started,Instruction.stopped,key_resp.keys,key_resp.rt,key_resp.duration,participant,session,date,expName,psychopyVersion,frameRate,expStart,
,,,,,,,,,,,,,,,,,,,,,,,,,,,,,,,,,0.007464500027708709,0.023946916044224054,0.023946916044224054,132.10391549998894,space,132.02073766698595,None,,,,,,,,,,,,,,,,,,,,,,,,,,,,,,,,,,,,,,,,,,,,,,,,,,,,,,,,,,,,,,,,,,,,,,,,,,,,,,,,,,,,,054376,001,2024-12-08_16h56.09.850,Test,2024.2.4,None,2024-12-08 16h56.44.433170 +0100,
,,,,,,,,,,,,,,,,,,,,,,,,,,,,,,,,,,,,,,,,132.10404416604433,132.1105351659935,132.1105351659935,152.26446916599525,space,20.144505625008605,None,,,,,,,,,,,,,,,,,,,,,,,,,,,,,,,,,,,,,,,,,,,,,,,,,,,,,,,,,,,,,,,,,,,,,,,,,,,,,,054376,001,2024-12-08_16h56.09.850,Test,2024.2.4,None,2024-12-08 16h56.44.433170 +0100,
,,,,,,,,,,,,,,,,,,,,,,,,,,,,,,,,,,,,,,,,,,,,,,,152.26458408299368,152.2916154160048,152.2916154160048,165.61518066603458,space,13.314328000007663,None,,,,,,,,,,,,,,,,,,,,,,,,,,,,,,,,,,,,,,,,,,,,,,,,,,,,,,,,,,,,,,,,,,,,,,,054376,001,2024-12-08_16h56.09.850,Test,2024.2.4,None,2024-12-08 16h56.44.433170 +0100,
27,150,150,55,None,0,0,0,,,,,,,,0,0,0,26,,,,,,,,,,,,,165.66961162502412,,,,,,,,,,,,,,,,,,,,,,,165.6635921249981,165.66961162502412,165.81294691603398,165.81294691603398,165.86871654103743,167.5123618330108,167.5123618330108,167.4975954160327,,,,,,,,,,,,,,,,,,,,,,,,,,,,,,,,,,,,,,,,,,,,,,,,,,,,,,,,,,,,,,,054376,001,2024-12-08_16h56.09.850,Test,2024.2.4,None,2024-12-08 16h56.44.433170 +0100,
16,150,90,20,None,1,1,0,,,,,,,,0,1,1,15,,,,,,,,,,,,,167.5123618330108,,,,,,,,,,,,,,,,,,,,,,,167.50775533303386,167.52999141602777,167.7132809580071,167.7132809580071,167.71953541599214,169.41292262502247,169.41292262502247,169.39760012499755,,,,,,,,,,,,,,,,,,,,,,,,,,,,,,,,,,,,,,,,,,,,,,,,,,,,,,,,,,,,,,,054376,001,2024-12-08_16h56.09.850,Test,2024.2.4,None,2024-12-08 16h56.44.433170 +0100,
25,150,120,26,None,2,2,0,,,,,,,,0,2,2,24,,,,,,,,,,,,,169.41292262502247,,,,,,,,,,,,,,,,,,,,,,,169.4080723330262,169.416798958031,169.6136636250303,169.6136636250303,169.6136636250303,171.31262454099488,171.31262454099488,171.2975782910362,,,,,,,,,,,,,,,,,,,,,,,,,,,,,,,,,,,,,,,,,,,,,,,,,,,,,,,,,,,,,,,054376,001,2024-12-08_16h56.09.850,Test,2024.2.4,None,2024-12-08 16h56.44.433170 +0100,
20,150,90,27,None,3,3,0,,,,,,,,0,3,3,19,,,,,,,,,,,,,171.31262454099488,,,,,,,,,,,,,,,,,,,,,,,171.30776941601653,171.32994279102422,171.51329500001157,171.51329500001157,171.51923508301843,173.2122940410045,173.2122940410045,173.19768495799508,,,,,,,,,,,,,,,,,,,,,,,,,,,,,,,,,,,,,,,,,,,,,,,,,,,,,,,,,,,,,,,054376,001,2024-12-08_16h56.09.850,Test,2024.2.4,None,2024-12-08 16h56.44.433170 +0100,
1,150,0,37,None,4,4,0,,,,,,,,0,4,4,0,,,,,,,,,,,,,173.2122940410045,,,,,,,,,,,,,,,,,,,,,,,173.20735479099676,173.21700033301022,173.41333670803579,173.41333670803579,173.41333670803579,175.1117182080052,175.1117182080052,175.0975263750297,,,,,,,,,,,,,,,,,,,,,,,,,,,,,,,,,,,,,,,,,,,,,,,,,,,,,,,,,,,,,,,054376,001,2024-12-08_16h56.09.850,Test,2024.2.4,None,2024-12-08 16h56.44.433170 +0100,
9,150,30,57,None,5,5,0,,,,,,,,0,5,5,8,,,,,,,,,,,,,175.1117182080052,,,,,,,,,,,,,,,,,,,,,,,175.1067147910362,175.1164784579887,175.31329066603212,175.31329066603212,175.31329066603212,177.01237366598798,177.01237366598798,176.99775108299218,,,,,,,,,,,,,,,,,,,,,,,,,,,,,,,,,,,,,,,,,,,,,,,,,,,,,,,,,,,,,,,054376,001,2024-12-08_16h56.09.850,Test,2024.2.4,None,2024-12-08 16h56.44.433170 +0100,
19,150,90,46,None,6,6,0,,,,,,,,0,6,6,18,,,,,,,,,,,,,177.01237366598798,,,,,,,,,,,,,,,,,,,,,,,177.00750383303966,177.01715891604545,177.21333933301503,177.21333933301503,177.21333933301503,178.9123089160421,178.9123089160421,178.89764666603878,,,,,,,,,,,,,,,,,,,,,,,,,,,,,,,,,,,,,,,,,,,,,,,,,,,,,,,,,,,,,,,054376,001,2024-12-08_16h56.09.850,Test,2024.2.4,None,2024-12-08 16h56.44.433170 +0100,
32,150,180,66,None,7,7,0,,,,,,,,0,7,7,31,,,,,,,,,,,,,178.9123089160421,,,,,,,,,,,,,,,,,,,,,,,178.90726233302848,178.91682087501977,179.1134428330115,179.1134428330115,179.1134428330115,180.8110968330293,180.8110968330293,180.79757458303357,,,,,,,,,,,,,,,,,,,,,,,,,,,,,,,,,,,,,,,,,,,,,,,,,,,,,,,,,,,,,,,054376,001,2024-12-08_16h56.09.850,Test,2024.2.4,None,2024-12-08 16h56.44.433170 +0100,
18,150,90,51,None,8,8,0,,,,,,,,0,8,8,17,,,,,,,,,,,,,180.8110968330293,,,,,,,,,,,,,,,,,,,,,,,180.80623149999883,180.8157915000338,181.01331583299907,181.01331583299907,181.01331583299907,182.71201087499503,182.71201087499503,182.6977326250053,,,,,,,,,,,,,,,,,,,,,,,,,,,,,,,,,,,,,,,,,,,,,,,,,,,,,,,,,,,,,,,054376,001,2024-12-08_16h56.09.850,Test,2024.2.4,None,2024-12-08 16h56.44.433170 +0100,
28,150,150,28,None,9,9,0,,,,,,,,0,9,9,27,,,,,,,,,,,,,182.71201087499503,,,,,,,,,,,,,,,,,,,,,,,182.70709008304402,182.7160489160451,182.91333083302015,182.91333083302015,182.91333083302015,184.6112244160031,184.6112244160031,184.59763216599822,,,,,,,,,,,,,,,,,,,,,,,,,,,,,,,,,,,,,,,,,,,,,,,,,,,,,,,,,,,,,,,054376,001,2024-12-08_16h56.09.850,Test,2024.2.4,None,2024-12-08 16h56.44.433170 +0100,
13,150,60,16,None,10,10,0,,,,,,,,0,10,10,12,,,,,,,,,,,,,184.6112244160031,,,,,,,,,,,,,,,,,,,,,,,184.60628637502668,184.61601833300665,184.81324225000571,184.81324225000571,184.81324225000571,186.51058641599957,186.51058641599957,186.49752745800652,,,,,,,,,,,,,,,,,,,,,,,,,,,,,,,,,,,,,,,,,,,,,,,,,,,,,,,,,,,,,,,054376,001,2024-12-08_16h56.09.850,Test,2024.2.4,None,2024-12-08 16h56.44.433170 +0100,
7,150,30,43,None,11,11,0,,,,,,,,0,11,11,6,,,,,,,,,,,,,186.51058641599957,,,,,,,,,,,,,,,,,,,,,,,186.50565816601738,186.51565387501614,186.71333187504206,186.71333187504206,186.71333187504206,188.4116112079937,188.4116112079937,188.3974824580364,,,,,,,,,,,,,,,,,,,,,,,,,,,,,,,,,,,,,,,,,,,,,,,,,,,,,,,,,,,,,,,054376,001,2024-12-08_16h56.09.850,Test,2024.2.4,None,2024-12-08 16h56.44.433170 +0100,
10,150,30,35,None,12,12,0,,,,,,,,0,12,12,9,,,,,,,,,,,,,188.4116112079937,,,,,,,,,,,,,,,,,,,,,,,188.40682058304083,188.4155914580333,188.61323758302024,188.61323758302024,188.61323758302024,190.31101762503386,190.31101762503386,190.29749349999474,,,,,,,,,,,,,,,,,,,,,,,,,,,,,,,,,,,,,,,,,,,,,,,,,,,,,,,,,,,,,,,054376,001,2024-12-08_16h56.09.850,Test,2024.2.4,None,2024-12-08 16h56.44.433170 +0100,
26,150,150,44,None,13,13,0,,,,,,,,0,13,13,25,,,,,,,,,,,,,190.31101762503386,,,,,,,,,,,,,,,,,,,,,,,190.30617566598812,190.3157153330394,190.51328991603805,190.51328991603805,190.51328991603805,192.21225691604195,192.21225691604195,192.19760220800526,,,,,,,,,,,,,,,,,,,,,,,,,,,,,,,,,,,,,,,,,,,,,,,,,,,,,,,,,,,,,,,054376,001,2024-12-08_16h56.09.850,Test,2024.2.4,None,2024-12-08 16h56.44.433170 +0100,
34,150,180,63,None,14,14,0,,,,,,,,0,14,14,33,,,,,,,,,,,,,192.21225691604195,,,,,,,,,,,,,,,,,,,,,,,192.20739408303052,192.21638416603673,192.41337454103632,192.41337454103632,192.41337454103632,194.1109385410091,194.1109385410091,194.0974267499987,,,,,,,,,,,,,,,,,,,,,,,,,,,,,,,,,,,,,,,,,,,,,,,,,,,,,,,,,,,,,,,054376,001,2024-12-08_16h56.09.850,Test,2024.2.4,None,2024-12-08 16h56.44.433170 +0100,
12,150,60,13,None,15,15,0,,,,,,,,0,15,15,11,,,,,,,,,,,,,194.1109385410091,,,,,,,,,,,,,,,,,,,,,,,194.10591408301843,194.11582504102262,194.3132388330414,194.3132388330414,194.3132388330414,196.0120684580179,196.0120684580179,195.99778800003696,,,,,,,,,,,,,,,,,,,,,,,,,,,,,,,,,,,,,,,,,,,,,,,,,,,,,,,,,,,,,,,054376,001,2024-12-08_16h56.09.850,Test,2024.2.4,None,2024-12-08 16h56.44.433170 +0100,
24,150,120,8,None,16,16,0,,,,,,,,0,16,16,23,,,,,,,,,,,,,196.0120684580179,,,,,,,,,,,,,,,,,,,,,,,196.0070893749944,196.0168596250005,196.21331595804077,196.21331595804077,196.21331595804077,197.91138104099082,197.91138104099082,197.8974587499979,,,,,,,,,,,,,,,,,,,,,,,,,,,,,,,,,,,,,,,,,,,,,,,,,,,,,,,,,,,,,,,054376,001,2024-12-08_16h56.09.850,Test,2024.2.4,None,2024-12-08 16h56.44.433170 +0100,
33,150,180,40,None,17,17,0,,,,,,,,0,17,17,32,,,,,,,,,,,,,197.91138104099082,,,,,,,,,,,,,,,,,,,,,,,197.90662720799446,197.915328083036,198.11324795801193,198.11324795801193,198.11324795801193,199.8112298329943,199.8112298329943,199.7974943750305,,,,,,,,,,,,,,,,,,,,,,,,,,,,,,,,,,,,,,,,,,,,,,,,,,,,,,,,,,,,,,,054376,001,2024-12-08_16h56.09.850,Test,2024.2.4,None,2024-12-08 16h56.44.433170 +0100,
3,150,0,21,None,18,18,0,,,,,,,,0,18,18,2,,,,,,,,,,,,,199.8112298329943,,,,,,,,,,,,,,,,,,,,,,,199.80632949998835,199.81619287503418,200.01329595799325,200.01329595799325,200.01329595799325,201.71108924999135,201.71108924999135,201.69773449999047,,,,,,,,,,,,,,,,,,,,,,,,,,,,,,,,,,,,,,,,,,,,,,,,,,,,,,,,,,,,,,,054376,001,2024-12-08_16h56.09.850,Test,2024.2.4,None,2024-12-08 16h56.44.433170 +0100,
14,150,60,10,None,19,19,0,,,,,,,,0,19,19,13,,,,,,,,,,,,,201.71108924999135,,,,,,,,,,,,,,,,,,,,,,,201.70624850003514,201.71561574999942,201.913134750037,201.913134750037,201.913134750037,203.61047633300768,203.61047633300768,203.59724745800486,,,,,,,,,,,,,,,,,,,,,,,,,,,,,,,,,,,,,,,,,,,,,,,,,,,,,,,,,,,,,,,054376,001,2024-12-08_16h56.09.850,Test,2024.2.4,None,2024-12-08 16h56.44.433170 +0100,
8,150,30,64,None,20,20,0,,,,,,,,0,20,20,7,,,,,,,,,,,,,203.61047633300768,,,,,,,,,,,,,,,,,,,,,,,203.60569941601716,203.61524562502746,203.81327283300925,203.81327283300925,203.81327283300925,205.51102862501284,205.51102862501284,205.4975080830045,,,,,,,,,,,,,,,,,,,,,,,,,,,,,,,,,,,,,,,,,,,,,,,,,,,,,,,,,,,,,,,054376,001,2024-12-08_16h56.09.850,Test,2024.2.4,None,2024-12-08 16h56.44.433170 +0100,
2,150,0,49,None,21,21,0,,,,,,,,0,21,21,1,,,,,,,,,,,,,205.51102862501284,,,,,,,,,,,,,,,,,,,,,,,205.50605837500188,205.51578229101142,205.7132427500328,205.7132427500328,205.7132427500328,207.41139254102018,207.41139254102018,207.39765525003895,,,,,,,,,,,,,,,,,,,,,,,,,,,,,,,,,,,,,,,,,,,,,,,,,,,,,,,,,,,,,,,054376,001,2024-12-08_16h56.09.850,Test,2024.2.4,None,2024-12-08 16h56.44.433170 +0100,
15,150,60,65,None,22,22,0,,,,,,,,0,22,22,14,,,,,,,,,,,,,207.41139254102018,,,,,,,,,,,,,,,,,,,,,,,207.4063634580234,207.4152255410445,207.61335491604405,207.61335491604405,207.61335491604405,209.31100070802495,209.31100070802495,209.2974955830141,,,,,,,,,,,,,,,,,,,,,,,,,,,,,,,,,,,,,,,,,,,,,,,,,,,,,,,,,,,,,,,054376,001,2024-12-08_16h56.09.850,Test,2024.2.4,None,2024-12-08 16h56.44.433170 +0100,
6,150,30,14,None,23,23,0,,,,,,,,0,23,23,5,,,,,,,,,,,,,209.31100070802495,,,,,,,,,,,,,,,,,,,,,,,209.3062142910203,209.31482158304425,209.51329541602172,209.51329541602172,209.51329541602172,211.2113220830215,211.2113220830215,211.197540416033,,,,,,,,,,,,,,,,,,,,,,,,,,,,,,,,,,,,,,,,,,,,,,,,,,,,,,,,,,,,,,,054376,001,2024-12-08_16h56.09.850,Test,2024.2.4,None,2024-12-08 16h56.44.433170 +0100,
17,150,90,23,None,24,24,0,,,,,,,,0,24,24,16,,,,,,,,,,,,,211.2113220830215,,,,,,,,,,,,,,,,,,,,,,,211.2065609160345,211.21517720801057,211.41337504104013,211.41337504104013,211.41337504104013,213.11116066604154,213.11116066604154,213.09749779099366,,,,,,,,,,,,,,,,,,,,,,,,,,,,,,,,,,,,,,,,,,,,,,,,,,,,,,,,,,,,,,,054376,001,2024-12-08_16h56.09.850,Test,2024.2.4,None,2024-12-08 16h56.44.433170 +0100,
4,150,0,59,None,25,25,0,,,,,,,,0,25,25,3,,,,,,,,,,,,,213.11116066604154,,,,,,,,,,,,,,,,,,,,,,,213.10640912503004,213.1158677500207,213.31321749999188,213.31321749999188,213.31321749999188,215.01054354099324,215.01054354099324,214.9975450829952,,,,,,,,,,,,,,,,,,,,,,,,,,,,,,,,,,,,,,,,,,,,,,,,,,,,,,,,,,,,,,,054376,001,2024-12-08_16h56.09.850,Test,2024.2.4,None,2024-12-08 16h56.44.433170 +0100,
29,150,150,42,None,26,26,0,,,,,,,,0,26,26,28,,,,,,,,,,,,,215.01054354099324,,,,,,,,,,,,,,,,,,,,,,,215.00568741600728,215.01623800001107,215.2132831659983,215.2132831659983,215.2132831659983,216.91113808302907,216.91113808302907,216.8975811250275,,,,,,,,,,,,,,,,,,,,,,,,,,,,,,,,,,,,,,,,,,,,,,,,,,,,,,,,,,,,,,,054376,001,2024-12-08_16h56.09.850,Test,2024.2.4,None,2024-12-08 16h56.44.433170 +0100,
35,150,180,33,None,27,27,0,,,,,,,,0,27,27,34,,,,,,,,,,,,,216.91113808302907,,,,,,,,,,,,,,,,,,,,,,,216.90631129103713,216.9160910830251,217.11338150000665,217.11338150000665,217.11338150000665,218.8107507909881,218.8107507909881,218.79743999999482,,,,,,,,,,,,,,,,,,,,,,,,,,,,,,,,,,,,,,,,,,,,,,,,,,,,,,,,,,,,,,,054376,001,2024-12-08_16h56.09.850,Test,2024.2.4,None,2024-12-08 16h56.44.433170 +0100,
22,150,120,25,None,28,28,0,,,,,,,,0,28,28,21,,,,,,,,,,,,,218.8107507909881,,,,,,,,,,,,,,,,,,,,,,,218.8059446249972,218.8155692500295,219.01323654100997,219.01323654100997,219.01323654100997,220.71154708298855,220.71154708298855,220.69771174999187,,,,,,,,,,,,,,,,,,,,,,,,,,,,,,,,,,,,,,,,,,,,,,,,,,,,,,,,,,,,,,,054376,001,2024-12-08_16h56.09.850,Test,2024.2.4,None,2024-12-08 16h56.44.433170 +0100,
30,150,150,2,None,29,29,0,,,,,,,,0,29,29,29,,,,,,,,,,,,,220.71154708298855,,,,,,,,,,,,,,,,,,,,,,,220.70656629098812,220.71638395800255,220.91333116602618,220.91333116602618,220.91333116602618,222.61117475002538,222.61117475002538,222.5974942910252,,,,,,,,,,,,,,,,,,,,,,,,,,,,,,,,,,,,,,,,,,,,,,,,,,,,,,,,,,,,,,,054376,001,2024-12-08_16h56.09.850,Test,2024.2.4,None,2024-12-08 16h56.44.433170 +0100,
5,150,0,50,None,30,30,0,,,,,,,,0,30,30,4,,,,,,,,,,,,,222.61117475002538,,,,,,,,,,,,,,,,,,,,,,,222.60623362503247,222.61622829100816,222.8133558750269,222.8133558750269,222.8133558750269,224.51104541600216,224.51104541600216,224.49755575001473,,,,,,,,,,,,,,,,,,,,,,,,,,,,,,,,,,,,,,,,,,,,,,,,,,,,,,,,,,,,,,,054376,001,2024-12-08_16h56.09.850,Test,2024.2.4,None,2024-12-08 16h56.44.433170 +0100,
11,150,60,70,None,31,31,0,,,,,,,,0,31,31,10,,,,,,,,,,,,,224.51104541600216,,,,,,,,,,,,,,,,,,,,,,,224.5060830829898,224.51512141601415,224.71327841602033,224.71327841602033,224.71327841602033,226.41062099998817,226.41062099998817,226.39755850000074,,,,,,,,,,,,,,,,,,,,,,,,,,,,,,,,,,,,,,,,,,,,,,,,,,,,,,,,,,,,,,,054376,001,2024-12-08_16h56.09.850,Test,2024.2.4,None,2024-12-08 16h56.44.433170 +0100,
31,150,180,19,None,32,32,0,,,,,,,,0,32,32,30,,,,,,,,,,,,,226.41062099998817,,,,,,,,,,,,,,,,,,,,,,,226.40579279098893,226.41531700000633,226.61335975001566,226.61335975001566,226.61335975001566,228.31049624999287,228.31049624999287,228.29744054103503,,,,,,,,,,,,,,,,,,,,,,,,,,,,,,,,,,,,,,,,,,,,,,,,,,,,,,,,,,,,,,,054376,001,2024-12-08_16h56.09.850,Test,2024.2.4,None,2024-12-08 16h56.44.433170 +0100,
23,150,120,48,None,33,33,0,,,,,,,,0,33,33,22,,,,,,,,,,,,,228.31049624999287,,,,,,,,,,,,,,,,,,,,,,,228.30569762503728,228.31524429103592,228.51345683302497,228.51345683302497,228.51345683302497,230.21029916603584,230.21029916603584,230.19731237500673,,,,,,,,,,,,,,,,,,,,,,,,,,,,,,,,,,,,,,,,,,,,,,,,,,,,,,,,,,,,,,,054376,001,2024-12-08_16h56.09.850,Test,2024.2.4,None,2024-12-08 16h56.44.433170 +0100,
21,150,120,60,None,34,34,0,,,,,,,,0,34,34,20,,,,,,,,,,,,,230.21029916603584,,,,,,,,,,,,,,,,,,,,,,,230.20551025000168,230.21494187501958,230.4132738750195,230.4132738750195,230.4132738750195,232.10297183302464,232.10297183302464,232.09754750004504,,,,,,,,,,,,,,,,,,,,,,,,,,,,,,,,,,,,,,,,,,,,,,,,,,,,,,,,,,,,,,,054376,001,2024-12-08_16h56.09.850,Test,2024.2.4,None,2024-12-08 16h56.44.433170 +0100,
,,,,,,,,,,,,,,,,,,,,,,,,,,,,,,,,,,,,,,,,,,,,,,,,,,,,,,,,,,,,,,232.0977931250236,232.11199425003724,232.11199425003724,245.78869870799826,space,13.673168207984418,None,,,,,,,,,,,,,,,,,,,,,,,,,,,,,,,,,,,,,,,,,,,,,,,,,,,,,,,,054376,001,2024-12-08_16h56.09.850,Test,2024.2.4,None,2024-12-08 16h56.44.433170 +0100,
34,150,180,63,None,0,0,0,False,right,1.448954333027359,None,,,,,,,,0,0,0,0,,,,,,,,,245.8188232500106,,,,,,,,,,,,,,,,,,,,,,,,,,,,,,,,,,,,,,245.81073583301622,245.8188232500106,246.8131467080093,247.7881793330307,247.7881793330307,247.7881793330307,249.30223829101305,right,1.448954333027359,None,,,,,,,,,,,,,,,,,,,,,,,,,,,,,,,,,,,,,,,,,,,,,,054376,001,2024-12-08_16h56.09.850,Test,2024.2.4,None,2024-12-08 16h56.44.433170 +0100,
70,150,180,1,None,1,1,0,True,right,1.952008083986584,None,,,,,,,,0,1,1,1,,,,,,,,,249.31184850004502,,,,,,,,,,,,,,,,,,,,,,,,,,,,,,,,,,,,,,249.30507116601802,249.31184850004502,250.30188416602323,251.29679912503343,251.29679912503343,251.29679912503343,253.25534920801874,right,1.952008083986584,None,,,,,,,,,,,,,,,,,,,,,,,,,,,,,,,,,,,,,,,,,,,,,,054376,001,2024-12-08_16h56.09.850,Test,2024.2.4,None,2024-12-08 16h56.44.433170 +0100,
68,150,180,68,None,2,2,0,True,left,1.5383679169462994,None,,,,,,,,0,2,2,2,,,,,,,,,253.27017204102594,,,,,,,,,,,,,,,,,,,,,,,,,,,,,,,,,,,,,,253.26382820802974,253.27017204102594,254.2633144580177,255.2531099159969,255.2531099159969,255.2531099159969,256.7988081660005,left,1.5383679169462994,None,,,,,,,,,,,,,,,,,,,,,,,,,,,,,,,,,,,,,,,,,,,,,,054376,001,2024-12-08_16h56.09.850,Test,2024.2.4,None,2024-12-08 16h56.44.433170 +0100,
6,150,30,14,None,3,3,0,False,right,0.8455019170069136,None,,,,,,,,0,3,3,3,,,,,,,,,256.8147817910067,,,,,,,,,,,,,,,,,,,,,,,,,,,,,,,,,,,,,,256.80828216602094,256.8147817910067,257.8131974579883,258.79675791598856,258.79675791598856,258.79675791598856,259.64866329100914,right,0.8455019170069136,None,,,,,,,,,,,,,,,,,,,,,,,,,,,,,,,,,,,,,,,,,,,,,,054376,001,2024-12-08_16h56.09.850,Test,2024.2.4,None,2024-12-08 16h56.44.433170 +0100,
10,150,30,35,None,4,4,0,False,left,1.2779293750063516,None,,,,,,,,0,4,4,4,,,,,,,,,259.66414879099466,,,,,,,,,,,,,,,,,,,,,,,,,,,,,,,,,,,,,,259.65757008304354,259.66414879099466,260.6518658749992,261.64670945802936,261.64670945802936,261.64670945802936,262.9321076250053,left,1.2779293750063516,None,,,,,,,,,,,,,,,,,,,,,,,,,,,,,,,,,,,,,,,,,,,,,,054376,001,2024-12-08_16h56.09.850,Test,2024.2.4,None,2024-12-08 16h56.44.433170 +0100,
25,150,120,26,None,5,5,0,False,right,1.3231848329887725,None,,,,,,,,0,5,5,5,,,,,,,,,262.94801887503127,,,,,,,,,,,,,,,,,,,,,,,,,,,,,,,,,,,,,,262.9410464160028,262.94801887503127,263.9465367910452,264.9301235830062,264.9301235830062,264.9301235830062,266.263697041024,right,1.3231848329887725,None,,,,,,,,,,,,,,,,,,,,,,,,,,,,,,,,,,,,,,,,,,,,,,054376,001,2024-12-08_16h56.09.850,Test,2024.2.4,None,2024-12-08 16h56.44.433170 +0100,
41,150,30,18,None,6,6,0,True,left,1.397296582988929,None,,,,,,,,0,6,6,6,,,,,,,,,266.27557704102946,,,,,,,,,,,,,,,,,,,,,,,,,,,,,,,,,,,,,,266.27080591599224,266.27557704102946,267.2684380830033,268.25380729103927,268.25380729103927,268.25380729103927,269.6550094159902,left,1.397296582988929,None,,,,,,,,,,,,,,,,,,,,,,,,,,,,,,,,,,,,,,,,,,,,,,054376,001,2024-12-08_16h56.09.850,Test,2024.2.4,None,2024-12-08 16h56.44.433170 +0100,
27,150,150,55,None,7,7,0,False,right,0.887231000000611,None,,,,,,,,0,7,7,7,,,,,,,,,269.6709170830436,,,,,,,,,,,,,,,,,,,,,,,,,,,,,,,,,,,,,,269.66429212503135,269.6709170830436,270.6685724160052,271.6537580830045,271.6537580830045,271.6537580830045,272.548608541023,right,0.887231000000611,None,,,,,,,,,,,,,,,,,,,,,,,,,,,,,,,,,,,,,,,,,,,,,,054376,001,2024-12-08_16h56.09.850,Test,2024.2.4,None,2024-12-08 16h56.44.433170 +0100,
23,150,120,48,None,8,8,0,False,right,0.75626595801441,None,,,,,,,,0,8,8,8,,,,,,,,,272.5642681660247,,,,,,,,,,,,,,,,,,,,,,,,,,,,,,,,,,,,,,272.55788795801345,272.5642681660247,273.55186258303,274.5466258749948,274.5466258749948,274.5466258749948,275.3053917500074,right,0.75626595801441,None,,,,,,,,,,,,,,,,,,,,,,,,,,,,,,,,,,,,,,,,,,,,,,054376,001,2024-12-08_16h56.09.850,Test,2024.2.4,None,2024-12-08 16h56.44.433170 +0100,
57,150,120,17,None,9,9,0,True,right,2.4524866249994375,None,,,,,,,,0,9,9,9,,,,,,,,,275.3206650830107,,,,,,,,,,,,,,,,,,,,,,,,,,,,,,,,,,,,,,275.31457733298885,275.3206650830107,276.31845137500204,277.303975332994,277.303975332994,277.303975332994,279.7654690410127,right,2.4524866249994375,None,,,,,,,,,,,,,,,,,,,,,,,,,,,,,,,,,,,,,,,,,,,,,,054376,001,2024-12-08_16h56.09.850,Test,2024.2.4,None,2024-12-08 16h56.44.433170 +0100,
32,150,180,66,None,10,10,0,False,right,1.9240938329603523,None,,,,,,,,0,10,10,10,,,,,,,,,279.78056791599374,,,,,,,,,,,,,,,,,,,,,,,,,,,,,,,,,,,,,,279.7737231249921,279.78056791599374,280.7675820410368,281.7632851660019,281.7632851660019,281.7632851660019,283.698654790991,right,1.9240938329603523,None,,,,,,,,,,,,,,,,,,,,,,,,,,,,,,,,,,,,,,,,,,,,,,054376,001,2024-12-08_16h56.09.850,Test,2024.2.4,None,2024-12-08 16h56.44.433170 +0100,
5,150,0,50,None,11,11,0,False,left,1.9540186250233091,None,,,,,,,,0,11,11,11,,,,,,,,,283.7139259999967,,,,,,,,,,,,,,,,,,,,,,,,,,,,,,,,,,,,,,283.70765820803354,283.7139259999967,284.70185083302204,285.69680029101437,285.69680029101437,285.69680029101437,287.6553346250439,left,1.9540186250233091,None,,,,,,,,,,,,,,,,,,,,,,,,,,,,,,,,,,,,,,,,,,,,,,054376,001,2024-12-08_16h56.09.850,Test,2024.2.4,None,2024-12-08 16h56.44.433170 +0100,
66,150,180,53,None,12,12,0,True,left,1.1596899169962853,None,,,,,,,,0,12,12,12,,,,,,,,,287.6706210830016,,,,,,,,,,,,,,,,,,,,,,,,,,,,,,,,,,,,,,287.6644794580061,287.6706210830016,288.6684094160446,289.65431637503207,289.65431637503207,289.65431637503207,290.82443854102166,left,1.1596899169962853,None,,,,,,,,,,,,,,,,,,,,,,,,,,,,,,,,,,,,,,,,,,,,,,054376,001,2024-12-08_16h56.09.850,Test,2024.2.4,None,2024-12-08 16h56.44.433170 +0100,
59,150,120,34,None,13,13,0,True,right,0.7955913749756292,None,,,,,,,,0,13,13,13,,,,,,,,,290.8461851250031,,,,,,,,,,,,,,,,,,,,,,,,,,,,,,,,,,,,,,290.8413259999943,290.8461851250031,291.83529804099817,292.8258180830162,292.8258180830162,292.8258180830162,293.6322947909939,right,0.7955913749756292,None,,,,,,,,,,,,,,,,,,,,,,,,,,,,,,,,,,,,,,,,,,,,,,054376,001,2024-12-08_16h56.09.850,Test,2024.2.4,None,2024-12-08 16h56.44.433170 +0100,
43,150,30,29,None,14,14,0,True,right,1.8265614589909092,None,,,,,,,,0,14,14,14,,,,,,,,,293.64889325003605,,,,,,,,,,,,,,,,,,,,,,,,,,,,,,,,,,,,,,293.64247162500396,293.64889325003605,294.6464799999958,295.6300620000111,295.6300620000111,295.6300620000111,297.46539066603873,right,1.8265614589909092,None,,,,,,,,,,,,,,,,,,,,,,,,,,,,,,,,,,,,,,,,,,,,,,054376,001,2024-12-08_16h56.09.850,Test,2024.2.4,None,2024-12-08 16h56.44.433170 +0100,
33,150,180,40,None,15,15,0,False,right,0.9511255840188824,None,,,,,,,,0,15,15,15,,,,,,,,,297.48097020800924,,,,,,,,,,,,,,,,,,,,,,,,,,,,,,,,,,,,,,297.47464483301155,297.48097020800924,298.4798900409951,299.4634008750436,299.4634008750436,299.4634008750436,300.4219449160155,right,0.9511255840188824,None,,,,,,,,,,,,,,,,,,,,,,,,,,,,,,,,,,,,,,,,,,,,,,054376,001,2024-12-08_16h56.09.850,Test,2024.2.4,None,2024-12-08 16h56.44.433170 +0100,
2,150,0,49,None,16,16,0,False,right,1.9927264589932747,None,,,,,,,,0,16,16,16,,,,,,,,,300.43672787502874,,,,,,,,,,,,,,,,,,,,,,,,,,,,,,,,,,,,,,300.43080812500557,300.43672787502874,301.42991545802215,302.42063283303287,302.42063283303287,302.42063283303287,304.41640395799186,right,1.9927264589932747,None,,,,,,,,,,,,,,,,,,,,,,,,,,,,,,,,,,,,,,,,,,,,,,054376,001,2024-12-08_16h56.09.850,Test,2024.2.4,None,2024-12-08 16h56.44.433170 +0100,
22,150,120,25,None,17,17,0,False,right,0.8702178749954328,None,,,,,,,,0,17,17,17,,,,,,,,,304.43145429104334,,,,,,,,,,,,,,,,,,,,,,,,,,,,,,,,,,,,,,304.42459641600726,304.43145429104334,305.42991275002714,306.4134674160159,306.4134674160159,306.4134674160159,307.28780191601254,right,0.8702178749954328,None,,,,,,,,,,,,,,,,,,,,,,,,,,,,,,,,,,,,,,,,,,,,,,054376,001,2024-12-08_16h56.09.850,Test,2024.2.4,None,2024-12-08 16h56.44.433170 +0100,
62,150,150,24,None,18,18,0,True,right,2.9975461669964716,None,,,,,,,,0,18,18,18,,,,,,,,,307.302249750006,,,,,,,,,,,,,,,,,,,,,,,,,,,,,,,,,,,,,,307.2962205830263,307.302249750006,308.2965973750106,309.2873275410384,309.2873275410384,309.2873275410384,312.29067720798776,right,2.9975461669964716,None,312.28870125004323,312.28870125004323,312.28870125004323,,,,,,,,,,,,,,,,,,,,,,,,,,,,,,,,,,,,,,,,,,,054376,001,2024-12-08_16h56.09.850,Test,2024.2.4,None,2024-12-08 16h56.44.433170 +0100,
58,150,120,47,None,19,19,0,True,right,1.0695263330126181,None,,,,,,,,0,19,19,19,,,,,,,,,312.30469775001984,,,,,,,,,,,,,,,,,,,,,,,,,,,,,,,,,,,,,,312.29847929102834,312.30469775001984,313.3019089580048,314.28677870798856,314.28677870798856,314.28677870798856,315.3654252080014,right,1.0695263330126181,None,,,,,,,,,,,,,,,,,,,,,,,,,,,,,,,,,,,,,,,,,,,,,,054376,001,2024-12-08_16h56.09.850,Test,2024.2.4,None,2024-12-08 16h56.44.433170 +0100,
7,150,30,43,None,20,20,0,False,right,2.4836826249957085,None,,,,,,,,0,20,20,20,,,,,,,,,315.38074650004273,,,,,,,,,,,,,,,,,,,,,,,,,,,,,,,,,,,,,,315.3741772079957,315.38074650004273,316.36847200000193,317.3634213330224,317.3634213330224,317.3634213330224,319.84968083299464,right,2.4836826249957085,None,,,,,,,,,,,,,,,,,,,,,,,,,,,,,,,,,,,,,,,,,,,,,,054376,001,2024-12-08_16h56.09.850,Test,2024.2.4,None,2024-12-08 16h56.44.433170 +0100,
1,150,0,37,None,21,21,0,False,left,1.06097991601564,None,,,,,,,,0,21,21,21,,,,,,,,,319.8642726659891,,,,,,,,,,,,,,,,,,,,,,,,,,,,,,,,,,,,,,319.8583621660364,319.8642726659891,320.8633422080311,321.84670012502465,321.84670012502465,321.84670012502465,322.9153561660205,left,1.06097991601564,None,,,,,,,,,,,,,,,,,,,,,,,,,,,,,,,,,,,,,,,,,,,,,,054376,001,2024-12-08_16h56.09.850,Test,2024.2.4,None,2024-12-08 16h56.44.433170 +0100,
30,150,150,2,None,22,22,0,False,right,1.7572923749685287,None,,,,,,,,0,22,22,22,,,,,,,,,322.930783000018,,,,,,,,,,,,,,,,,,,,,,,,,,,,,,,,,,,,,,322.9241877080058,322.930783000018,323.9179609580315,324.9134968750295,324.9134968750295,324.9134968750295,326.68205116601894,right,1.7572923749685287,None,,,,,,,,,,,,,,,,,,,,,,,,,,,,,,,,,,,,,,,,,,,,,,054376,001,2024-12-08_16h56.09.850,Test,2024.2.4,None,2024-12-08 16h56.44.433170 +0100,
40,150,0,9,None,23,23,0,True,left,2.055644250009209,None,,,,,,,,0,23,23,23,,,,,,,,,326.69705437502125,,,,,,,,,,,,,,,,,,,,,,,,,,,,,,,,,,,,,,326.69079458300257,326.69705437502125,327.6847096250276,328.6802263749996,328.6802263749996,328.6802263749996,330.7384181250236,left,2.055644250009209,None,,,,,,,,,,,,,,,,,,,,,,,,,,,,,,,,,,,,,,,,,,,,,,054376,001,2024-12-08_16h56.09.850,Test,2024.2.4,None,2024-12-08 16h56.44.433170 +0100,
12,150,60,13,None,24,24,0,False,right,1.084167291992344,None,,,,,,,,0,24,24,24,,,,,,,,,330.7527747080312,,,,,,,,,,,,,,,,,,,,,,,,,,,,,,,,,,,,,,330.74667191604385,330.7527747080312,331.74665787501726,332.7375566660194,332.7375566660194,332.7375566660194,333.83220654103206,right,1.084167291992344,None,,,,,,,,,,,,,,,,,,,,,,,,,,,,,,,,,,,,,,,,,,,,,,054376,001,2024-12-08_16h56.09.850,Test,2024.2.4,None,2024-12-08 16h56.44.433170 +0100,
42,150,30,7,None,25,25,0,True,right,0.7211307500256225,None,,,,,,,,0,25,25,25,,,,,,,,,333.84703508298844,,,,,,,,,,,,,,,,,,,,,,,,,,,,,,,,,,,,,,333.8411163749988,333.84703508298844,334.8351457079989,335.83023791603046,335.83023791603046,335.83023791603046,336.5550135410158,right,0.7211307500256225,None,,,,,,,,,,,,,,,,,,,,,,,,,,,,,,,,,,,,,,,,,,,,,,054376,001,2024-12-08_16h56.09.850,Test,2024.2.4,None,2024-12-08 16h56.44.433170 +0100,
8,150,30,64,None,26,26,0,False,right,0.7572049999726005,None,,,,,,,,0,26,26,26,,,,,,,,,336.568832916033,,,,,,,,,,,,,,,,,,,,,,,,,,,,,,,,,,,,,,336.56283775001066,336.568832916033,337.5632523330278,338.55368716601515,338.55368716601515,338.55368716601515,339.3152557910071,right,0.7572049999726005,None,,,,,,,,,,,,,,,,,,,,,,,,,,,,,,,,,,,,,,,,,,,,,,054376,001,2024-12-08_16h56.09.850,Test,2024.2.4,None,2024-12-08 16h56.44.433170 +0100,
17,150,90,23,None,27,27,0,False,right,1.4013044169987552,None,,,,,,,,0,27,27,27,,,,,,,,,339.3304621659918,,,,,,,,,,,,,,,,,,,,,,,,,,,,,,,,,,,,,,339.32368999999017,339.3304621659918,340.318110791035,341.3134286660352,341.3134286660352,341.3134286660352,342.72126820799895,right,1.4013044169987552,None,,,,,,,,,,,,,,,,,,,,,,,,,,,,,,,,,,,,,,,,,,,,,,054376,001,2024-12-08_16h56.09.850,Test,2024.2.4,None,2024-12-08 16h56.44.433170 +0100,
63,150,150,6,None,28,28,0,True,left,1.7702344999997877,None,,,,,,,,0,28,28,28,,,,,,,,,342.7362597910105,,,,,,,,,,,,,,,,,,,,,,,,,,,,,,,,,,,,,,342.7302852499997,342.7362597910105,343.734722083027,344.7202309159911,344.7202309159911,344.7202309159911,346.4988006250351,left,1.7702344999997877,None,,,,,,,,,,,,,,,,,,,,,,,,,,,,,,,,,,,,,,,,,,,,,,054376,001,2024-12-08_16h56.09.850,Test,2024.2.4,None,2024-12-08 16h56.44.433170 +0100,
54,150,90,38,None,29,29,0,True,right,0.8668065420351923,None,,,,,,,,0,29,29,29,,,,,,,,,346.51343208301114,,,,,,,,,,,,,,,,,,,,,,,,,,,,,,,,,,,,,,346.5073393750354,346.51343208301114,347.50117808301,348.49670237500686,348.49670237500686,348.49670237500686,349.3661223750096,right,0.8668065420351923,None,,,,,,,,,,,,,,,,,,,,,,,,,,,,,,,,,,,,,,,,,,,,,,054376,001,2024-12-08_16h56.09.850,Test,2024.2.4,None,2024-12-08 16h56.44.433170 +0100,
47,150,60,36,None,30,30,0,True,left,0.9636307080509141,None,,,,,,,,0,30,30,30,,,,,,,,,349.37996874999953,,,,,,,,,,,,,,,,,,,,,,,,,,,,,,,,,,,,,,349.3739690830116,349.37996874999953,350.36857512500137,351.36345166602405,351.36345166602405,351.36345166602405,352.3319137500366,left,0.9636307080509141,None,,,,,,,,,,,,,,,,,,,,,,,,,,,,,,,,,,,,,,,,,,,,,,054376,001,2024-12-08_16h56.09.850,Test,2024.2.4,None,2024-12-08 16h56.44.433170 +0100,
51,150,90,22,None,31,31,0,True,right,1.6970405830070376,None,,,,,,,,0,31,31,31,,,,,,,,,352.345795500034,,,,,,,,,,,,,,,,,,,,,,,,,,,,,,,,,,,,,,352.33964729099534,352.345795500034,353.33516204101034,354.33005341602257,354.33005341602257,354.33005341602257,356.03211900003953,right,1.6970405830070376,None,,,,,,,,,,,,,,,,,,,,,,,,,,,,,,,,,,,,,,,,,,,,,,054376,001,2024-12-08_16h56.09.850,Test,2024.2.4,None,2024-12-08 16h56.44.433170 +0100,
18,150,90,51,None,32,32,0,False,right,1.0908745829947293,None,,,,,,,,0,32,32,32,,,,,,,,,356.0471990000224,,,,,,,,,,,,,,,,,,,,,,,,,,,,,,,,,,,,,,356.0410100829904,356.0471990000224,357.0351441660314,358.0300995410071,358.0300995410071,358.0300995410071,359.1319384580129,right,1.0908745829947293,None,,,,,,,,,,,,,,,,,,,,,,,,,,,,,,,,,,,,,,,,,,,,,,054376,001,2024-12-08_16h56.09.850,Test,2024.2.4,None,2024-12-08 16h56.44.433170 +0100,
46,150,60,12,None,33,33,0,True,left,2.4580085839843377,None,,,,,,,,0,33,33,33,,,,,,,,,359.14714866603026,,,,,,,,,,,,,,,,,,,,,,,,,,,,,,,,,,,,,,359.1406300830422,359.14714866603026,360.13515491603175,361.12992070801556,361.12992070801556,361.12992070801556,363.5987068330287,left,2.4580085839843377,None,,,,,,,,,,,,,,,,,,,,,,,,,,,,,,,,,,,,,,,,,,,,,,054376,001,2024-12-08_16h56.09.850,Test,2024.2.4,None,2024-12-08 16h56.44.433170 +0100,
50,150,60,69,None,34,34,0,True,right,0.8519184169708751,None,,,,,,,,0,34,34,34,,,,,,,,,363.6131201250246,,,,,,,,,,,,,,,,,,,,,,,,,,,,,,,,,,,,,,363.6067892910214,363.6131201250246,364.6018474579905,365.5965553750284,365.5965553750284,365.5965553750284,366.45491112500895,right,0.8519184169708751,None,,,,,,,,,,,,,,,,,,,,,,,,,,,,,,,,,,,,,,,,,,,,,,054376,001,2024-12-08_16h56.09.850,Test,2024.2.4,None,2024-12-08 16h56.44.433170 +0100,
4,150,0,59,None,35,35,0,False,left,1.4102573330164887,None,,,,,,,,0,35,35,35,,,,,,,,,366.46937087504193,,,,,,,,,,,,,,,,,,,,,,,,,,,,,,,,,,,,,,366.4630340000149,366.46937087504193,367.4632819580147,368.45358591602417,368.45358591602417,368.45358591602417,369.87442675000057,left,1.4102573330164887,None,,,,,,,,,,,,,,,,,,,,,,,,,,,,,,,,,,,,,,,,,,,,,,054376,001,2024-12-08_16h56.09.850,Test,2024.2.4,None,2024-12-08 16h56.44.433170 +0100,
55,150,90,3,None,36,36,0,True,right,3.010124291991815,None,,,,,,,,0,36,36,36,,,,,,,,,369.88659991603345,,,,,,,,,,,,,,,,,,,,,,,,,,,,,,,,,,,,,,369.8817022500443,369.88659991603345,370.87986720801564,371.8705750410445,371.8705750410445,371.8705750410445,374.88772108301055,right,3.010124291991815,None,374.8693832500139,374.8693832500139,374.8693832500139,,,,,,,,,,,,,,,,,,,,,,,,,,,,,,,,,,,,,,,,,,,054376,001,2024-12-08_16h56.09.850,Test,2024.2.4,None,2024-12-08 16h56.44.433170 +0100,
69,150,180,39,None,37,37,0,True,right,1.3027175000170246,None,,,,,,,,0,37,37,37,,,,,,,,,374.9003156659892,,,,,,,,,,,,,,,,,,,,,,,,,,,,,,,,,,,,,,374.8950087080011,374.9003156659892,375.89655150001636,376.8872670000419,376.8872670000419,376.8872670000419,378.1987813329906,right,1.3027175000170246,None,,,,,,,,,,,,,,,,,,,,,,,,,,,,,,,,,,,,,,,,,,,,,,054376,001,2024-12-08_16h56.09.850,Test,2024.2.4,None,2024-12-08 16h56.44.433170 +0100,
13,150,60,16,None,38,38,0,False,right,0.738267500011716,None,,,,,,,,0,38,38,38,,,,,,,,,378.21384608303197,,,,,,,,,,,,,,,,,,,,,,,,,,,,,,,,,,,,,,378.2074642080115,378.21384608303197,379.2018210000242,380.19678716600174,380.19678716600174,380.19678716600174,380.9382639999967,right,0.738267500011716,None,,,,,,,,,,,,,,,,,,,,,,,,,,,,,,,,,,,,,,,,,,,,,,054376,001,2024-12-08_16h56.09.850,Test,2024.2.4,None,2024-12-08 16h56.44.433170 +0100,
65,150,150,11,None,39,39,0,True,right,0.9500175830326043,None,,,,,,,,0,39,39,39,,,,,,,,,380.951964625041,,,,,,,,,,,,,,,,,,,,,,,,,,,,,,,,,,,,,,380.9460627910448,380.951964625041,381.9467306250008,382.9369292909978,382.9369292909978,382.9369292909978,383.8992511249962,right,0.9500175830326043,None,,,,,,,,,,,,,,,,,,,,,,,,,,,,,,,,,,,,,,,,,,,,,,054376,001,2024-12-08_16h56.09.850,Test,2024.2.4,None,2024-12-08 16h56.44.433170 +0100,
38,150,0,52,None,40,40,0,True,right,0.9074561250163242,None,,,,,,,,0,40,40,40,,,,,,,,,383.9143147499999,,,,,,,,,,,,,,,,,,,,,,,,,,,,,,,,,,,,,,383.9079644579906,383.9143147499999,384.9132221250329,385.8968150000437,385.8968150000437,385.8968150000437,386.8167054580408,right,0.9074561250163242,None,,,,,,,,,,,,,,,,,,,,,,,,,,,,,,,,,,,,,,,,,,,,,,054376,001,2024-12-08_16h56.09.850,Test,2024.2.4,None,2024-12-08 16h56.44.433170 +0100,
19,150,90,46,None,41,41,0,False,left,2.4506430000183173,None,,,,,,,,0,41,41,41,,,,,,,,,386.8322552909958,,,,,,,,,,,,,,,,,,,,,,,,,,,,,,,,,,,,,,386.8256216250011,386.8322552909958,387.8299920830177,388.81340287503554,388.81340287503554,388.81340287503554,391.27465054101776,left,2.4506430000183173,None,,,,,,,,,,,,,,,,,,,,,,,,,,,,,,,,,,,,,,,,,,,,,,054376,001,2024-12-08_16h56.09.850,Test,2024.2.4,None,2024-12-08 16h56.44.433170 +0100,
28,150,150,28,None,42,42,0,False,right,1.4043742079520598,None,,,,,,,,0,42,42,42,,,,,,,,,391.28645212500123,,,,,,,,,,,,,,,,,,,,,,,,,,,,,,,,,,,,,,391.2817707910435,391.28645212500123,392.28518304100726,393.27142695803195,393.27142695803195,393.27142695803195,394.6821808750392,right,1.4043742079520598,None,,,,,,,,,,,,,,,,,,,,,,,,,,,,,,,,,,,,,,,,,,,,,,054376,001,2024-12-08_16h56.09.850,Test,2024.2.4,None,2024-12-08 16h56.44.433170 +0100,
39,150,0,56,None,43,43,0,True,right,0.8167791250161827,None,,,,,,,,0,43,43,43,,,,,,,,,394.69749500002945,,,,,,,,,,,,,,,,,,,,,,,,,,,,,,,,,,,,,,394.69080587499775,394.69749500002945,395.68524399999296,396.6801927910419,396.6801927910419,396.6801927910419,397.4994750000187,right,0.8167791250161827,None,,,,,,,,,,,,,,,,,,,,,,,,,,,,,,,,,,,,,,,,,,,,,,054376,001,2024-12-08_16h56.09.850,Test,2024.2.4,None,2024-12-08 16h56.44.433170 +0100,
11,150,60,70,None,44,44,0,False,right,0.7897066249861382,None,,,,,,,,0,44,44,44,,,,,,,,,397.5144308329909,,,,,,,,,,,,,,,,,,,,,,,,,,,,,,,,,,,,,,397.5081781659974,397.5144308329909,398.51331745804055,399.49664166598814,399.49664166598814,399.49664166598814,400.28895816602744,right,0.7897066249861382,None,,,,,,,,,,,,,,,,,,,,,,,,,,,,,,,,,,,,,,,,,,,,,,054376,001,2024-12-08_16h56.09.850,Test,2024.2.4,None,2024-12-08 16h56.44.433170 +0100,
24,150,120,8,None,45,45,0,False,right,0.8383041250053793,None,,,,,,,,0,45,45,45,,,,,,,,,400.3038227080251,,,,,,,,,,,,,,,,,,,,,,,,,,,,,,,,,,,,,,400.2978852080414,400.3038227080251,401.30180491600186,402.28678950003814,402.28678950003814,402.28678950003814,403.1318381660385,right,0.8383041250053793,None,,,,,,,,,,,,,,,,,,,,,,,,,,,,,,,,,,,,,,,,,,,,,,054376,001,2024-12-08_16h56.09.850,Test,2024.2.4,None,2024-12-08 16h56.44.433170 +0100,
35,150,180,33,None,46,46,0,False,right,2.0504728340310976,None,,,,,,,,0,46,46,46,,,,,,,,,403.14750250004,,,,,,,,,,,,,,,,,,,,,,,,,,,,,,,,,,,,,,403.14069112500874,403.14750250004,404.14663229102734,405.13001454103505,405.13001454103505,405.13001454103505,407.1836425830261,right,2.0504728340310976,None,,,,,,,,,,,,,,,,,,,,,,,,,,,,,,,,,,,,,,,,,,,,,,054376,001,2024-12-08_16h56.09.850,Test,2024.2.4,None,2024-12-08 16h56.44.433170 +0100,
53,150,90,54,None,47,47,0,True,left,1.700493208016269,None,,,,,,,,0,47,47,47,,,,,,,,,407.19941070803907,,,,,,,,,,,,,,,,,,,,,,,,,,,,,,,,,,,,,,407.19350345799467,407.19941070803907,408.19667762500467,409.18004725000355,409.18004725000355,409.18004725000355,410.8831457910128,left,1.700493208016269,None,,,,,,,,,,,,,,,,,,,,,,,,,,,,,,,,,,,,,,,,,,,,,,054376,001,2024-12-08_16h56.09.850,Test,2024.2.4,None,2024-12-08 16h56.44.433170 +0100,
45,150,30,32,None,48,48,0,True,left,1.5001515839830972,None,,,,,,,,0,48,48,48,,,,,,,,,410.8982871660264,,,,,,,,,,,,,,,,,,,,,,,,,,,,,,,,,,,,,,410.8918980830349,410.8982871660264,411.89652229100466,412.8801142500015,412.8801142500015,412.8801142500015,414.38297125004465,left,1.5001515839830972,None,,,,,,,,,,,,,,,,,,,,,,,,,,,,,,,,,,,,,,,,,,,,,,054376,001,2024-12-08_16h56.09.850,Test,2024.2.4,None,2024-12-08 16h56.44.433170 +0100,
48,150,60,58,None,49,49,0,True,right,0.8863587499945424,None,,,,,,,,0,49,49,49,,,,,,,,,414.39763670798857,,,,,,,,,,,,,,,,,,,,,,,,,,,,,,,,,,,,,,414.3917905410053,414.39763670798857,415.39656408299925,416.3801616660203,416.3801616660203,416.3801616660203,417.2716611660435,right,0.8863587499945424,None,,,,,,,,,,,,,,,,,,,,,,,,,,,,,,,,,,,,,,,,,,,,,,054376,001,2024-12-08_16h56.09.850,Test,2024.2.4,None,2024-12-08 16h56.44.433170 +0100,
56,150,120,30,None,50,50,0,True,right,0.6951827500015497,None,,,,,,,,0,50,50,50,,,,,,,,,417.28535279101925,,,,,,,,,,,,,,,,,,,,,,,,,,,,,,,,,,,,,,417.2797743330011,417.28535279101925,418.27989745803643,419.27063325000927,419.27063325000927,419.27063325000927,419.97167066601105,right,0.6951827500015497,None,,,,,,,,,,,,,,,,,,,,,,,,,,,,,,,,,,,,,,,,,,,,,,054376,001,2024-12-08_16h56.09.850,Test,2024.2.4,None,2024-12-08 16h56.44.433170 +0100,
44,150,30,45,None,51,51,0,True,left,1.4766347919940017,None,,,,,,,,0,51,51,51,,,,,,,,,419.98736066604033,,,,,,,,,,,,,,,,,,,,,,,,,,,,,,,,,,,,,,419.98055108299013,419.98736066604033,420.98510787502164,421.97172937501455,421.97172937501455,421.97172937501455,423.45483379100915,left,1.4766347919940017,None,,,,,,,,,,,,,,,,,,,,,,,,,,,,,,,,,,,,,,,,,,,,,,054376,001,2024-12-08_16h56.09.850,Test,2024.2.4,None,2024-12-08 16h56.44.433170 +0100,
67,150,180,5,None,52,52,0,True,right,2.065708083973732,None,,,,,,,,0,52,52,52,,,,,,,,,423.469332416018,,,,,,,,,,,,,,,,,,,,,,,,,,,,,,,,,,,,,,423.4635013330262,423.469332416018,424.46325595799135,425.4535402079928,425.4535402079928,425.4535402079928,427.5216494160122,right,2.065708083973732,None,,,,,,,,,,,,,,,,,,,,,,,,,,,,,,,,,,,,,,,,,,,,,,054376,001,2024-12-08_16h56.09.850,Test,2024.2.4,None,2024-12-08 16h56.44.433170 +0100,
21,150,120,60,None,53,53,0,False,right,0.8435129169956781,None,,,,,,,,0,53,53,53,,,,,,,,,427.5359734999947,,,,,,,,,,,,,,,,,,,,,,,,,,,,,,,,,,,,,,427.5302205000189,427.5359734999947,428.53519170801155,429.52063979103696,429.52063979103696,429.52063979103696,430.3752307080431,right,0.8435129169956781,None,,,,,,,,,,,,,,,,,,,,,,,,,,,,,,,,,,,,,,,,,,,,,,054376,001,2024-12-08_16h56.09.850,Test,2024.2.4,None,2024-12-08 16h56.44.433170 +0100,
3,150,0,21,None,54,54,0,False,left,1.295070709020365,None,,,,,,,,0,54,54,54,,,,,,,,,430.38686062500346,,,,,,,,,,,,,,,,,,,,,,,,,,,,,,,,,,,,,,430.38241020799614,430.38686062500346,431.38528187503107,432.3705790830427,432.3705790830427,432.3705790830427,433.67139241599943,left,1.295070709020365,None,,,,,,,,,,,,,,,,,,,,,,,,,,,,,,,,,,,,,,,,,,,,,,054376,001,2024-12-08_16h56.09.850,Test,2024.2.4,None,2024-12-08 16h56.44.433170 +0100,
49,150,60,15,None,55,55,0,True,left,0.9932092090020888,None,,,,,,,,0,55,55,55,,,,,,,,,433.68524904100923,,,,,,,,,,,,,,,,,,,,,,,,,,,,,,,,,,,,,,433.67909054103075,433.68524904100923,434.68005283299135,435.67032370803645,435.67032370803645,435.67032370803645,436.66616933303885,left,0.9932092090020888,None,,,,,,,,,,,,,,,,,,,,,,,,,,,,,,,,,,,,,,,,,,,,,,054376,001,2024-12-08_16h56.09.850,Test,2024.2.4,None,2024-12-08 16h56.44.433170 +0100,
60,150,120,31,None,56,56,0,True,right,0.8015638329670765,None,,,,,,,,0,56,56,56,,,,,,,,,436.6811938750325,,,,,,,,,,,,,,,,,,,,,,,,,,,,,,,,,,,,,,436.67485387501074,436.6811938750325,437.6799160829978,438.66328179102857,438.66328179102857,438.66328179102857,439.47158375004074,right,0.8015638329670765,None,,,,,,,,,,,,,,,,,,,,,,,,,,,,,,,,,,,,,,,,,,,,,,054376,001,2024-12-08_16h56.09.850,Test,2024.2.4,None,2024-12-08 16h56.44.433170 +0100,
9,150,30,57,None,57,57,0,False,left,2.350984124990646,None,,,,,,,,0,57,57,57,,,,,,,,,439.4865278330399,,,,,,,,,,,,,,,,,,,,,,,,,,,,,,,,,,,,,,439.48031458299374,439.4865278330399,440.47995520802215,441.4702250830014,441.4702250830014,441.4702250830014,443.83216666599037,left,2.350984124990646,None,,,,,,,,,,,,,,,,,,,,,,,,,,,,,,,,,,,,,,,,,,,,,,054376,001,2024-12-08_16h56.09.850,Test,2024.2.4,None,2024-12-08 16h56.44.433170 +0100,
52,150,90,67,None,58,58,0,True,right,0.7270835000090301,None,,,,,,,,0,58,58,58,,,,,,,,,443.8473230410018,,,,,,,,,,,,,,,,,,,,,,,,,,,,,,,,,,,,,,443.8401819160208,443.8473230410018,444.83531829103595,445.83014137501596,445.83014137501596,445.83014137501596,446.5661639160244,right,0.7270835000090301,None,,,,,,,,,,,,,,,,,,,,,,,,,,,,,,,,,,,,,,,,,,,,,,054376,001,2024-12-08_16h56.09.850,Test,2024.2.4,None,2024-12-08 16h56.44.433170 +0100,
16,150,90,20,None,59,59,0,False,right,0.7074996660230681,None,,,,,,,,0,59,59,59,,,,,,,,,446.58268625003984,,,,,,,,,,,,,,,,,,,,,,,,,,,,,,,,,,,,,,446.5753786659916,446.58268625003984,447.57995124999434,448.56336116604507,448.56336116604507,448.56336116604507,449.2822096660384,right,0.7074996660230681,None,,,,,,,,,,,,,,,,,,,,,,,,,,,,,,,,,,,,,,,,,,,,,,054376,001,2024-12-08_16h56.09.850,Test,2024.2.4,None,2024-12-08 16h56.44.433170 +0100,
64,150,150,41,None,60,60,0,True,right,0.735442667035386,None,,,,,,,,0,60,60,60,,,,,,,,,449.2978581250063,,,,,,,,,,,,,,,,,,,,,,,,,,,,,,,,,,,,,,449.2909469580045,449.2978581250063,450.2965347910067,451.2801290830248,451.2801290830248,451.2801290830248,452.02130070800195,right,0.735442667035386,None,,,,,,,,,,,,,,,,,,,,,,,,,,,,,,,,,,,,,,,,,,,,,,054376,001,2024-12-08_16h56.09.850,Test,2024.2.4,None,2024-12-08 16h56.44.433170 +0100,
15,150,60,65,None,61,61,0,False,right,2.2844586669816636,None,,,,,,,,0,61,61,61,,,,,,,,,452.03554237500066,,,,,,,,,,,,,,,,,,,,,,,,,,,,,,,,,,,,,,452.02923437498976,452.03554237500066,453.0299542080029,454.02019479102455,454.02019479102455,454.02019479102455,456.3156744579901,right,2.2844586669816636,None,,,,,,,,,,,,,,,,,,,,,,,,,,,,,,,,,,,,,,,,,,,,,,054376,001,2024-12-08_16h56.09.850,Test,2024.2.4,None,2024-12-08 16h56.44.433170 +0100,
36,150,0,62,None,62,62,0,True,left,1.1165236660162918,None,,,,,,,,0,62,62,62,,,,,,,,,456.33110466599464,,,,,,,,,,,,,,,,,,,,,,,,,,,,,,,,,,,,,,456.3244647500105,456.33110466599464,457.32997399999294,458.3136267500231,458.3136267500231,458.3136267500231,459.43255591602065,left,1.1165236660162918,None,,,,,,,,,,,,,,,,,,,,,,,,,,,,,,,,,,,,,,,,,,,,,,054376,001,2024-12-08_16h56.09.850,Test,2024.2.4,None,2024-12-08 16h56.44.433170 +0100,
14,150,60,10,None,63,63,0,False,left,1.8708150410093367,None,,,,,,,,0,63,63,63,,,,,,,,,459.44755020801676,,,,,,,,,,,,,,,,,,,,,,,,,,,,,,,,,,,,,,459.4413537910441,459.44755020801676,460.4345016250154,461.4300031249877,461.4300031249877,461.4300031249877,463.30462066602195,left,1.8708150410093367,None,,,,,,,,,,,,,,,,,,,,,,,,,,,,,,,,,,,,,,,,,,,,,,054376,001,2024-12-08_16h56.09.850,Test,2024.2.4,None,2024-12-08 16h56.44.433170 +0100,
37,150,0,4,None,64,64,0,True,left,1.1548632500343956,None,,,,,,,,0,64,64,64,,,,,,,,,463.3192933750106,,,,,,,,,,,,,,,,,,,,,,,,,,,,,,,,,,,,,,463.31328245799523,463.3192933750106,464.3132274580421,465.30446195800323,465.30446195800323,465.30446195800323,466.46537066600285,left,1.1548632500343956,None,,,,,,,,,,,,,,,,,,,,,,,,,,,,,,,,,,,,,,,,,,,,,,054376,001,2024-12-08_16h56.09.850,Test,2024.2.4,None,2024-12-08 16h56.44.433170 +0100,
31,150,180,19,None,65,65,0,False,right,0.9213888749945909,None,,,,,,,,0,65,65,65,,,,,,,,,466.48001512500923,,,,,,,,,,,,,,,,,,,,,,,,,,,,,,,,,,,,,,466.4739438749966,466.48001512500923,467.4686105000437,468.46354562503984,468.46354562503984,468.46354562503984,469.38820325001143,right,0.9213888749945909,None,,,,,,,,,,,,,,,,,,,,,,,,,,,,,,,,,,,,,,,,,,,,,,054376,001,2024-12-08_16h56.09.850,Test,2024.2.4,None,2024-12-08 16h56.44.433170 +0100,
61,150,150,61,None,66,66,0,True,left,1.9103314999956638,None,,,,,,,,0,66,66,66,,,,,,,,,469.4019401250407,,,,,,,,,,,,,,,,,,,,,,,,,,,,,,,,,,,,,,469.3961472079973,469.4019401250407,470.3967087910278,471.3872012910433,471.3872012910433,471.3872012910433,473.3046490410343,left,1.9103314999956638,None,,,,,,,,,,,,,,,,,,,,,,,,,,,,,,,,,,,,,,,,,,,,,,054376,001,2024-12-08_16h56.09.850,Test,2024.2.4,None,2024-12-08 16h56.44.433170 +0100,
26,150,150,44,None,67,67,0,False,right,1.8090926249860786,None,,,,,,,,0,67,67,67,,,,,,,,,473.31933075003326,,,,,,,,,,,,,,,,,,,,,,,,,,,,,,,,,,,,,,473.3131929580122,473.31933075003326,474.31335837498773,475.3048413330107,475.3048413330107,475.3048413330107,477.1254370000097,right,1.8090926249860786,None,,,,,,,,,,,,,,,,,,,,,,,,,,,,,,,,,,,,,,,,,,,,,,054376,001,2024-12-08_16h56.09.850,Test,2024.2.4,None,2024-12-08 16h56.44.433170 +0100,
29,150,150,42,None,68,68,0,False,right,0.7715621669776738,None,,,,,,,,0,68,68,68,,,,,,,,,477.1377038329956,,,,,,,,,,,,,,,,,,,,,,,,,,,,,,,,,,,,,,477.1328512080363,477.1377038329956,478.134441666014,479.12023075000616,479.12023075000616,479.12023075000616,479.89870658301516,right,0.7715621669776738,None,,,,,,,,,,,,,,,,,,,,,,,,,,,,,,,,,,,,,,,,,,,,,,054376,001,2024-12-08_16h56.09.850,Test,2024.2.4,None,2024-12-08 16h56.44.433170 +0100,
20,150,90,27,None,69,69,0,False,right,0.8728113330435008,None,,,,,,,,0,69,69,69,,,,,,,,,479.9140785410418,,,,,,,,,,,,,,,,,,,,,,,,,,,,,,,,,,,,,,479.90732320799725,479.9140785410418,480.9018482080428,481.89677033299813,481.89677033299813,481.89677033299813,482.7721579160425,right,0.8728113330435008,None,,,,,,,,,,,,,,,,,,,,,,,,,,,,,,,,,,,,,,,,,,,,,,054376,001,2024-12-08_16h56.09.850,Test,2024.2.4,None,2024-12-08 16h56.44.433170 +0100,
,,,,,,,,,,,,,,,,,,,,,,,,,,,,,,,,,,,,,,,,,,,,,,,,,,,,,,,,,,,,,,,,,,,,,,,,,,,,,,,,,,482.77244245802285,482.7827199160238,482.7827199160238,489.7705738749937,space,6.985602583037689,None,,,,,,,,,,,,,,,,,,,,,,,,,,,,,,,,,,,,054376,001,2024-12-08_16h56.09.850,Test,2024.2.4,None,2024-12-08 16h56.44.433170 +0100,
34,150,180,63,None,0,0,0,,,,,,,,,,,,,,,,0,0,0,33,,,,,489.794328708027,,,,,,,,,,,,,,,,,,,,,,,,,,,,,,,,,,,,,,,,,,,,,,,,,,,,,,,,,,489.7846720830421,489.794328708027,489.97030058299424,489.97030058299424,489.98532704100944,491.66685958299786,491.66685958299786,491.6538060409948,,,,,,,,,,,,,,,,,,,,,,,,,,,,054376,001,2024-12-08_16h56.09.850,Test,2024.2.4,None,2024-12-08 16h56.44.433170 +0100,
15,150,60,65,None,1,1,0,,,,,,,,,,,,,,,,0,1,1,14,,,,,491.66685958299786,,,,,,,,,,,,,,,,,,,,,,,,,,,,,,,,,,,,,,,,,,,,,,,,,,,,,,,,,,491.66154004103737,491.66685958299786,491.87046825001016,491.87046825001016,491.8634220410022,493.5783864580444,493.5783864580444,493.5642611249932,,,,,,,,,,,,,,,,,,,,,,,,,,,,054376,001,2024-12-08_16h56.09.850,Test,2024.2.4,None,2024-12-08 16h56.44.433170 +0100,
19,150,90,46,None,2,2,0,,,,,,,,,,,,,,,,0,2,2,18,,,,,493.5783864580444,,,,,,,,,,,,,,,,,,,,,,,,,,,,,,,,,,,,,,,,,,,,,,,,,,,,,,,,,,493.5727933750022,493.5783864580444,493.77087574999314,493.77087574999314,493.77087574999314,495.47827729099663,495.47827729099663,495.4643136660452,,,,,,,,,,,,,,,,,,,,,,,,,,,,054376,001,2024-12-08_16h56.09.850,Test,2024.2.4,None,2024-12-08 16h56.44.433170 +0100,
7,150,30,43,None,3,3,0,,,,,,,,,,,,,,,,0,3,3,6,,,,,495.47827729099663,,,,,,,,,,,,,,,,,,,,,,,,,,,,,,,,,,,,,,,,,,,,,,,,,,,,,,,,,,495.4729237499996,495.47827729099663,495.6703726660344,495.6703726660344,495.6703726660344,497.36607799999183,497.36607799999183,497.3534359160112,,,,,,,,,,,,,,,,,,,,,,,,,,,,054376,001,2024-12-08_16h56.09.850,Test,2024.2.4,None,2024-12-08 16h56.44.433170 +0100,
31,150,180,19,None,4,4,0,,,,,,,,,,,,,,,,0,4,4,30,,,,,497.36607799999183,,,,,,,,,,,,,,,,,,,,,,,,,,,,,,,,,,,,,,,,,,,,,,,,,,,,,,,,,,497.36167600000044,497.37998716603033,497.57000520802103,497.57000520802103,497.57000520802103,499.26552041602554,499.26552041602554,499.25370275002206,,,,,,,,,,,,,,,,,,,,,,,,,,,,054376,001,2024-12-08_16h56.09.850,Test,2024.2.4,None,2024-12-08 16h56.44.433170 +0100,
1,150,0,37,None,5,5,0,,,,,,,,,,,,,,,,0,5,5,0,,,,,499.26552041602554,,,,,,,,,,,,,,,,,,,,,,,,,,,,,,,,,,,,,,,,,,,,,,,,,,,,,,,,,,499.2610212910222,499.28022091602907,499.4702567080385,499.4702567080385,499.4702567080385,501.16721141600283,501.16721141600283,501.15354800003115,,,,,,,,,,,,,,,,,,,,,,,,,,,,054376,001,2024-12-08_16h56.09.850,Test,2024.2.4,None,2024-12-08 16h56.44.433170 +0100,
20,150,90,27,None,6,6,0,,,,,,,,,,,,,,,,0,6,6,19,,,,,501.16721141600283,,,,,,,,,,,,,,,,,,,,,,,,,,,,,,,,,,,,,,,,,,,,,,,,,,,,,,,,,,501.16251387499506,501.1799203749979,501.37013504101196,501.37013504101196,501.37013504101196,503.06542250001803,503.06542250001803,503.0535491660121,,,,,,,,,,,,,,,,,,,,,,,,,,,,054376,001,2024-12-08_16h56.09.850,Test,2024.2.4,None,2024-12-08 16h56.44.433170 +0100,
2,150,0,49,None,7,7,0,,,,,,,,,,,,,,,,0,7,7,1,,,,,503.06542250001803,,,,,,,,,,,,,,,,,,,,,,,,,,,,,,,,,,,,,,,,,,,,,,,,,,,,,,,,,,503.06094491604017,503.080034832994,503.27025620802306,503.27025620802306,503.27025620802306,504.96742912504124,504.96742912504124,504.9545446250122,,,,,,,,,,,,,,,,,,,,,,,,,,,,054376,001,2024-12-08_16h56.09.850,Test,2024.2.4,None,2024-12-08 16h56.44.433170 +0100,
32,150,180,66,None,8,8,0,,,,,,,,,,,,,,,,0,8,8,31,,,,,504.96742912504124,,,,,,,,,,,,,,,,,,,,,,,,,,,,,,,,,,,,,,,,,,,,,,,,,,,,,,,,,,504.96193670801586,504.96742912504124,505.17036095802905,505.17036095802905,505.1633060410386,506.87832191603957,506.87832191603957,506.86436075001257,,,,,,,,,,,,,,,,,,,,,,,,,,,,054376,001,2024-12-08_16h56.09.850,Test,2024.2.4,None,2024-12-08 16h56.44.433170 +0100,
13,150,60,16,None,9,9,0,,,,,,,,,,,,,,,,0,9,9,12,,,,,506.87832191603957,,,,,,,,,,,,,,,,,,,,,,,,,,,,,,,,,,,,,,,,,,,,,,,,,,,,,,,,,,506.872889958031,506.87832191603957,507.0695195830194,507.0695195830194,507.0695195830194,508.76526966603706,508.76526966603706,508.75277166604064,,,,,,,,,,,,,,,,,,,,,,,,,,,,054376,001,2024-12-08_16h56.09.850,Test,2024.2.4,None,2024-12-08 16h56.44.433170 +0100,
30,150,150,2,None,10,10,0,,,,,,,,,,,,,,,,0,10,10,29,,,,,508.76526966603706,,,,,,,,,,,,,,,,,,,,,,,,,,,,,,,,,,,,,,,,,,,,,,,,,,,,,,,,,,508.7607417500112,508.7799036250217,508.97026816604193,508.97026816604193,508.97026816604193,510.6785355830216,510.6785355830216,510.6644359159982,,,,,,,,,,,,,,,,,,,,,,,,,,,,054376,001,2024-12-08_16h56.09.850,Test,2024.2.4,None,2024-12-08 16h56.44.433170 +0100,
21,150,120,60,None,11,11,0,,,,,,,,,,,,,,,,0,11,11,20,,,,,510.6785355830216,,,,,,,,,,,,,,,,,,,,,,,,,,,,,,,,,,,,,,,,,,,,,,,,,,,,,,,,,,510.6731307079899,510.6785355830216,510.869957500021,510.869957500021,510.869957500021,512.565466583008,512.565466583008,512.5534131660243,,,,,,,,,,,,,,,,,,,,,,,,,,,,054376,001,2024-12-08_16h56.09.850,Test,2024.2.4,None,2024-12-08 16h56.44.433170 +0100,
29,150,150,42,None,12,12,0,,,,,,,,,,,,,,,,0,12,12,28,,,,,512.565466583008,,,,,,,,,,,,,,,,,,,,,,,,,,,,,,,,,,,,,,,,,,,,,,,,,,,,,,,,,,512.5607054579887,512.5800102080102,512.7700117910281,512.7700117910281,512.7700117910281,514.4653626660001,514.4653626660001,514.4535724580055,,,,,,,,,,,,,,,,,,,,,,,,,,,,054376,001,2024-12-08_16h56.09.850,Test,2024.2.4,None,2024-12-08 16h56.44.433170 +0100,
5,150,0,50,None,13,13,0,,,,,,,,,,,,,,,,0,13,13,4,,,,,514.4653626660001,,,,,,,,,,,,,,,,,,,,,,,,,,,,,,,,,,,,,,,,,,,,,,,,,,,,,,,,,,514.4608235410415,514.4799290000228,514.6703131250106,514.6703131250106,514.6703131250106,516.3660907910089,516.3660907910089,516.3537399159977,,,,,,,,,,,,,,,,,,,,,,,,,,,,054376,001,2024-12-08_16h56.09.850,Test,2024.2.4,None,2024-12-08 16h56.44.433170 +0100,
27,150,150,55,None,14,14,0,,,,,,,,,,,,,,,,0,14,14,26,,,,,516.3660907910089,,,,,,,,,,,,,,,,,,,,,,,,,,,,,,,,,,,,,,,,,,,,,,,,,,,,,,,,,,516.3617293750285,516.3800565410056,516.5706339160097,516.5706339160097,516.5706339160097,518.2751569999964,518.2751569999964,518.2640248330426,,,,,,,,,,,,,,,,,,,,,,,,,,,,054376,001,2024-12-08_16h56.09.850,Test,2024.2.4,None,2024-12-08 16h56.44.433170 +0100,
11,150,60,70,None,15,15,0,,,,,,,,,,,,,,,,0,15,15,10,,,,,518.2751569999964,,,,,,,,,,,,,,,,,,,,,,,,,,,,,,,,,,,,,,,,,,,,,,,,,,,,,,,,,,518.2706319160061,518.2751569999964,518.4702939580311,518.4702939580311,518.4702939580311,520.1657669160049,520.1657669160049,520.1534969580243,,,,,,,,,,,,,,,,,,,,,,,,,,,,054376,001,2024-12-08_16h56.09.850,Test,2024.2.4,None,2024-12-08 16h56.44.433170 +0100,
12,150,60,13,None,16,16,0,,,,,,,,,,,,,,,,0,16,16,11,,,,,520.1657669160049,,,,,,,,,,,,,,,,,,,,,,,,,,,,,,,,,,,,,,,,,,,,,,,,,,,,,,,,,,520.1614442080026,520.1797294160351,520.3703627909999,520.3703627909999,520.3703627909999,522.065870875027,522.065870875027,522.0535949160112,,,,,,,,,,,,,,,,,,,,,,,,,,,,054376,001,2024-12-08_16h56.09.850,Test,2024.2.4,None,2024-12-08 16h56.44.433170 +0100,
23,150,120,48,None,17,17,0,,,,,,,,,,,,,,,,0,17,17,22,,,,,522.065870875027,,,,,,,,,,,,,,,,,,,,,,,,,,,,,,,,,,,,,,,,,,,,,,,,,,,,,,,,,,522.0616593330051,522.0800609579892,522.2699897499988,522.2699897499988,522.2699897499988,523.9657555830199,523.9657555830199,523.9534610410337,,,,,,,,,,,,,,,,,,,,,,,,,,,,054376,001,2024-12-08_16h56.09.850,Test,2024.2.4,None,2024-12-08 16h56.44.433170 +0100,
35,150,180,33,None,18,18,0,,,,,,,,,,,,,,,,0,18,18,34,,,,,523.9657555830199,,,,,,,,,,,,,,,,,,,,,,,,,,,,,,,,,,,,,,,,,,,,,,,,,,,,,,,,,,523.9614086250076,523.9799574580393,524.1696762500214,524.1696762500214,524.1696762500214,525.8653783749905,525.8653783749905,525.8534440830117,,,,,,,,,,,,,,,,,,,,,,,,,,,,054376,001,2024-12-08_16h56.09.850,Test,2024.2.4,None,2024-12-08 16h56.44.433170 +0100,
22,150,120,25,None,19,19,0,,,,,,,,,,,,,,,,0,19,19,21,,,,,525.8653783749905,,,,,,,,,,,,,,,,,,,,,,,,,,,,,,,,,,,,,,,,,,,,,,,,,,,,,,,,,,525.86073700001,525.8799907910288,526.0706127909943,526.0706127909943,526.0706127909943,527.7673572500353,527.7673572500353,527.7537539160112,,,,,,,,,,,,,,,,,,,,,,,,,,,,054376,001,2024-12-08_16h56.09.850,Test,2024.2.4,None,2024-12-08 16h56.44.433170 +0100,
6,150,30,14,None,20,20,0,,,,,,,,,,,,,,,,0,20,20,5,,,,,527.7673572500353,,,,,,,,,,,,,,,,,,,,,,,,,,,,,,,,,,,,,,,,,,,,,,,,,,,,,,,,,,527.7620287500322,527.7673572500353,527.9702939580311,527.9702939580311,527.9632656250033,529.6785159159917,529.6785159159917,529.6643275830429,,,,,,,,,,,,,,,,,,,,,,,,,,,,054376,001,2024-12-08_16h56.09.850,Test,2024.2.4,None,2024-12-08 16h56.44.433170 +0100,
28,150,150,28,None,21,21,0,,,,,,,,,,,,,,,,0,21,21,27,,,,,529.6785159159917,,,,,,,,,,,,,,,,,,,,,,,,,,,,,,,,,,,,,,,,,,,,,,,,,,,,,,,,,,529.6731340000406,529.6785159159917,529.870127208007,529.870127208007,529.870127208007,531.5784490000224,531.5784490000224,531.5641816660063,,,,,,,,,,,,,,,,,,,,,,,,,,,,054376,001,2024-12-08_16h56.09.850,Test,2024.2.4,None,2024-12-08 16h56.44.433170 +0100,
9,150,30,57,None,22,22,0,,,,,,,,,,,,,,,,0,22,22,8,,,,,531.5784490000224,,,,,,,,,,,,,,,,,,,,,,,,,,,,,,,,,,,,,,,,,,,,,,,,,,,,,,,,,,531.5729593750439,531.5784490000224,531.7699758330127,531.7699758330127,531.7699758330127,533.4660758330137,533.4660758330137,533.4535556660267,,,,,,,,,,,,,,,,,,,,,,,,,,,,054376,001,2024-12-08_16h56.09.850,Test,2024.2.4,None,2024-12-08 16h56.44.433170 +0100,
16,150,90,20,None,23,23,0,,,,,,,,,,,,,,,,0,23,23,15,,,,,533.4660758330137,,,,,,,,,,,,,,,,,,,,,,,,,,,,,,,,,,,,,,,,,,,,,,,,,,,,,,,,,,533.4615805000067,533.4801311659976,533.6703139159945,533.6703139159945,533.6703139159945,535.3785667910124,535.3785667910124,535.3643873750116,,,,,,,,,,,,,,,,,,,,,,,,,,,,054376,001,2024-12-08_16h56.09.850,Test,2024.2.4,None,2024-12-08 16h56.44.433170 +0100,
17,150,90,23,None,24,24,0,,,,,,,,,,,,,,,,0,24,24,16,,,,,535.3785667910124,,,,,,,,,,,,,,,,,,,,,,,,,,,,,,,,,,,,,,,,,,,,,,,,,,,,,,,,,,535.3731008750037,535.3785667910124,535.5702225409914,535.5702225409914,535.5702225409914,537.2784402910038,537.2784402910038,537.2642566250288,,,,,,,,,,,,,,,,,,,,,,,,,,,,054376,001,2024-12-08_16h56.09.850,Test,2024.2.4,None,2024-12-08 16h56.44.433170 +0100,
4,150,0,59,None,25,25,0,,,,,,,,,,,,,,,,0,25,25,3,,,,,537.2784402910038,,,,,,,,,,,,,,,,,,,,,,,,,,,,,,,,,,,,,,,,,,,,,,,,,,,,,,,,,,537.27290000004,537.2784402910038,537.4702569160145,537.4702569160145,537.4702569160145,539.1662084580166,539.1662084580166,539.1537122910377,,,,,,,,,,,,,,,,,,,,,,,,,,,,054376,001,2024-12-08_16h56.09.850,Test,2024.2.4,None,2024-12-08 16h56.44.433170 +0100,
14,150,60,10,None,26,26,0,,,,,,,,,,,,,,,,0,26,26,13,,,,,539.1662084580166,,,,,,,,,,,,,,,,,,,,,,,,,,,,,,,,,,,,,,,,,,,,,,,,,,,,,,,,,,539.1618872079998,539.180000916007,539.3703450410394,539.3703450410394,539.3703450410394,541.0659752080101,541.0659752080101,541.0534811660182,,,,,,,,,,,,,,,,,,,,,,,,,,,,054376,001,2024-12-08_16h56.09.850,Test,2024.2.4,None,2024-12-08 16h56.44.433170 +0100,
10,150,30,35,None,27,27,0,,,,,,,,,,,,,,,,0,27,27,9,,,,,541.0659752080101,,,,,,,,,,,,,,,,,,,,,,,,,,,,,,,,,,,,,,,,,,,,,,,,,,,,,,,,,,541.0615364999976,541.0800385830225,541.2703444579965,541.2703444579965,541.2703444579965,542.9656583330361,542.9656583330361,542.9534810830373,,,,,,,,,,,,,,,,,,,,,,,,,,,,054376,001,2024-12-08_16h56.09.850,Test,2024.2.4,None,2024-12-08 16h56.44.433170 +0100,
18,150,90,51,None,28,28,0,,,,,,,,,,,,,,,,0,28,28,17,,,,,542.9656583330361,,,,,,,,,,,,,,,,,,,,,,,,,,,,,,,,,,,,,,,,,,,,,,,,,,,,,,,,,,542.9613096250105,542.9800472910283,543.1702594160452,543.1702594160452,543.1702594160452,544.8783636660082,544.8783636660082,544.8643444580375,,,,,,,,,,,,,,,,,,,,,,,,,,,,054376,001,2024-12-08_16h56.09.850,Test,2024.2.4,None,2024-12-08 16h56.44.433170 +0100,
8,150,30,64,None,29,29,0,,,,,,,,,,,,,,,,0,29,29,7,,,,,544.8783636660082,,,,,,,,,,,,,,,,,,,,,,,,,,,,,,,,,,,,,,,,,,,,,,,,,,,,,,,,,,544.8729572910233,544.8783636660082,545.070177333022,545.070177333022,545.070177333022,546.7661651250091,546.7661651250091,546.7535692080273,,,,,,,,,,,,,,,,,,,,,,,,,,,,054376,001,2024-12-08_16h56.09.850,Test,2024.2.4,None,2024-12-08 16h56.44.433170 +0100,
3,150,0,21,None,30,30,0,,,,,,,,,,,,,,,,0,30,30,2,,,,,546.7661651250091,,,,,,,,,,,,,,,,,,,,,,,,,,,,,,,,,,,,,,,,,,,,,,,,,,,,,,,,,,546.7616843330325,546.780009750044,546.9702455830411,546.9702455830411,546.9702455830411,548.6782739580376,548.6782739580376,548.6643160000094,,,,,,,,,,,,,,,,,,,,,,,,,,,,054376,001,2024-12-08_16h56.09.850,Test,2024.2.4,None,2024-12-08 16h56.44.433170 +0100,
33,150,180,40,None,31,31,0,,,,,,,,,,,,,,,,0,31,31,32,,,,,548.6782739580376,,,,,,,,,,,,,,,,,,,,,,,,,,,,,,,,,,,,,,,,,,,,,,,,,,,,,,,,,,548.672760291025,548.6782739580376,548.8701259160298,548.8701259160298,548.8701259160298,550.5654223330203,550.5654223330203,550.5533216249896,,,,,,,,,,,,,,,,,,,,,,,,,,,,054376,001,2024-12-08_16h56.09.850,Test,2024.2.4,None,2024-12-08 16h56.44.433170 +0100,
26,150,150,44,None,32,32,0,,,,,,,,,,,,,,,,0,32,32,25,,,,,550.5654223330203,,,,,,,,,,,,,,,,,,,,,,,,,,,,,,,,,,,,,,,,,,,,,,,,,,,,,,,,,,550.5607740000123,550.5799992500106,550.7699624579982,550.7699624579982,550.7699624579982,552.4784086660366,552.4784086660366,552.4641868750332,,,,,,,,,,,,,,,,,,,,,,,,,,,,054376,001,2024-12-08_16h56.09.850,Test,2024.2.4,None,2024-12-08 16h56.44.433170 +0100,
25,150,120,26,None,33,33,0,,,,,,,,,,,,,,,,0,33,33,24,,,,,552.4784086660366,,,,,,,,,,,,,,,,,,,,,,,,,,,,,,,,,,,,,,,,,,,,,,,,,,,,,,,,,,552.4730916660046,552.4784086660366,552.6703862079885,552.6703862079885,552.6703862079885,554.3782597910031,554.3782597910031,554.364239083021,,,,,,,,,,,,,,,,,,,,,,,,,,,,054376,001,2024-12-08_16h56.09.850,Test,2024.2.4,None,2024-12-08 16h56.44.433170 +0100,
24,150,120,8,None,34,34,0,,,,,,,,,,,,,,,,0,34,34,23,,,,,554.3782597910031,,,,,,,,,,,,,,,,,,,,,,,,,,,,,,,,,,,,,,,,,,,,,,,,,,,,,,,,,,554.3728894580272,554.3782597910031,554.5705953330034,554.5705953330034,554.5705953330034,556.2721166250412,556.2721166250412,556.2640754160238,,,,,,,,,,,,,,,,,,,,,,,,,,,,054376,001,2024-12-08_16h56.09.850,Test,2024.2.4,None,2024-12-08 16h56.44.433170 +0100,
,,,,,,,,,,,,,,,,,,,,,,,,,,,,,,,,,,,,,,,,,,,,,,,,,,,,,,,,,,,,,,,,,,,,,,,,,,,,,,,,,,,,,,,,,,,,,,,,,556.2643214160344,556.2721166250412,556.2721166250412,568.0055186250247,space,11.727290167007595,None,,,,,,,,,,,,,,,,,,,,,054376,001,2024-12-08_16h56.09.850,Test,2024.2.4,None,2024-12-08 16h56.44.433170 +0100,
34,150,180,63,None,0,0,0,False,,,,right,1.0425824169651605,None,,,,,,,,,,,,,0,0,0,0,568.1331630410277,,,,,,,,,,,,,,,,,,,,,,,,,,,,,,,,,,,,,,,,,,,,,,,,,,,,,,,,,,,,,,,,,,,,,,,,,568.1280212909915,568.1331630410277,569.1298684159992,570.0041005410021,570.0041005410021,570.0041005410021,571.0491923750378,right,1.0425824169651605,None,,,,,,,,,,,054376,001,2024-12-08_16h56.09.850,Test,2024.2.4,None,2024-12-08 16h56.44.433170 +0100,
70,150,180,1,None,1,1,0,True,,,,right,0.8022862080251798,None,,,,,,,,,,,,,0,1,1,1,571.0648414160241,,,,,,,,,,,,,,,,,,,,,,,,,,,,,,,,,,,,,,,,,,,,,,,,,,,,,,,,,,,,,,,,,,,,,,,,,571.058180291031,571.0648414160241,572.0632800830062,573.0466478749877,573.0466478749877,573.0466478749877,573.854904790991,right,0.8022862080251798,None,,,,,,,,,,,054376,001,2024-12-08_16h56.09.850,Test,2024.2.4,None,2024-12-08 16h56.44.433170 +0100,
68,150,180,68,None,2,2,0,True,,,,left,2.782072292000521,None,,,,,,,,,,,,,0,2,2,2,573.8705717500416,,,,,,,,,,,,,,,,,,,,,,,,,,,,,,,,,,,,,,,,,,,,,,,,,,,,,,,,,,,,,,,,,,,,,,,,,573.8636854159995,573.8705717500416,574.8683191250311,575.8539077080204,575.8539077080204,575.8539077080204,578.6384420830291,left,2.782072292000521,None,,,,,,,,,,,054376,001,2024-12-08_16h56.09.850,Test,2024.2.4,None,2024-12-08 16h56.44.433170 +0100,
6,150,30,14,None,3,3,0,False,,,,left,1.5428710840060376,None,,,,,,,,,,,,,0,3,3,3,578.6536130830063,,,,,,,,,,,,,,,,,,,,,,,,,,,,,,,,,,,,,,,,,,,,,,,,,,,,,,,,,,,,,,,,,,,,,,,,,578.6475423329975,578.6536130830063,579.651985958044,580.6371795409941,580.6371795409941,580.6371795409941,582.1822596249986,left,1.5428710840060376,None,,,,,,,,,,,054376,001,2024-12-08_16h56.09.850,Test,2024.2.4,None,2024-12-08 16h56.44.433170 +0100,
10,150,30,35,None,4,4,0,False,,,,left,1.4590063749928959,None,,,,,,,,,,,,,0,4,4,4,582.1973487079958,,,,,,,,,,,,,,,,,,,,,,,,,,,,,,,,,,,,,,,,,,,,,,,,,,,,,,,,,,,,,,,,,,,,,,,,,582.1906344580348,582.1973487079958,583.1860825410113,584.1802676660009,584.1802676660009,584.1802676660009,585.6487760830205,left,1.4590063749928959,None,,,,,,,,,,,054376,001,2024-12-08_16h56.09.850,Test,2024.2.4,None,2024-12-08 16h56.44.433170 +0100,
25,150,120,26,None,5,5,0,False,,,,right,0.7214367089909501,None,,,,,,,,,,,,,0,5,5,5,585.6639370000339,,,,,,,,,,,,,,,,,,,,,,,,,,,,,,,,,,,,,,,,,,,,,,,,,,,,,,,,,,,,,,,,,,,,,,,,,585.6571562500321,585.6639370000339,586.6511481660418,587.646884249989,587.646884249989,587.646884249989,588.3714974580216,right,0.7214367089909501,None,,,,,,,,,,,054376,001,2024-12-08_16h56.09.850,Test,2024.2.4,None,2024-12-08 16h56.44.433170 +0100,
41,150,30,18,None,6,6,0,True,,,,right,0.7429210420232266,None,,,,,,,,,,,,,0,6,6,6,588.3858976660413,,,,,,,,,,,,,,,,,,,,,,,,,,,,,,,,,,,,,,,,,,,,,,,,,,,,,,,,,,,,,,,,,,,,,,,,,588.3796783330035,588.3858976660413,589.3800227910397,590.3706273750286,590.3706273750286,590.3706273750286,591.1164043330355,right,0.7429210420232266,None,,,,,,,,,,,054376,001,2024-12-08_16h56.09.850,Test,2024.2.4,None,2024-12-08 16h56.44.433170 +0100,
27,150,150,55,None,7,7,0,False,,,,right,0.8921214590081945,None,,,,,,,,,,,,,0,7,7,7,591.1313740829937,,,,,,,,,,,,,,,,,,,,,,,,,,,,,,,,,,,,,,,,,,,,,,,,,,,,,,,,,,,,,,,,,,,,,,,,,591.1252350829891,591.1313740829937,592.1300692910445,593.1130095830304,593.1130095830304,593.1130095830304,594.0154231660417,right,0.8921214590081945,None,,,,,,,,,,,054376,001,2024-12-08_16h56.09.850,Test,2024.2.4,None,2024-12-08 16h56.44.433170 +0100,
23,150,120,48,None,8,8,0,False,,,,right,0.8252206249744631,None,,,,,,,,,,,,,0,8,8,8,594.0310975830071,,,,,,,,,,,,,,,,,,,,,,,,,,,,,,,,,,,,,,,,,,,,,,,,,,,,,,,,,,,,,,,,,,,,,,,,,594.0242600830388,594.0310975830071,595.0299504580325,596.0134186660289,596.0134186660289,596.0134186660289,596.8487961660139,right,0.8252206249744631,None,,,,,,,,,,,054376,001,2024-12-08_16h56.09.850,Test,2024.2.4,None,2024-12-08 16h56.44.433170 +0100,
57,150,120,17,None,9,9,0,True,,,,right,0.6810923750163056,None,,,,,,,,,,,,,0,9,9,9,596.8646190830041,,,,,,,,,,,,,,,,,,,,,,,,,,,,,,,,,,,,,,,,,,,,,,,,,,,,,,,,,,,,,,,,,,,,,,,,,596.8577300410252,596.8646190830041,597.863313290989,598.8466904580127,598.8466904580127,598.8466904580127,599.5320049580187,right,0.6810923750163056,None,,,,,,,,,,,054376,001,2024-12-08_16h56.09.850,Test,2024.2.4,None,2024-12-08 16h56.44.433170 +0100,
32,150,180,66,None,10,10,0,False,,,,right,2.828632209042553,None,,,,,,,,,,,,,0,10,10,10,599.5466168330167,,,,,,,,,,,,,,,,,,,,,,,,,,,,,,,,,,,,,,,,,,,,,,,,,,,,,,,,,,,,,,,,,,,,,,,,,599.5404386660084,599.5466168330167,600.5353358749999,601.530050500005,601.530050500005,601.530050500005,604.3654895829968,right,2.828632209042553,None,,,,,,,,,,,054376,001,2024-12-08_16h56.09.850,Test,2024.2.4,None,2024-12-08 16h56.44.433170 +0100,
5,150,0,50,None,11,11,0,False,,,,left,1.4519570409902371,None,,,,,,,,,,,,,0,11,11,11,604.3801049159956,,,,,,,,,,,,,,,,,,,,,,,,,,,,,,,,,,,,,,,,,,,,,,,,,,,,,,,,,,,,,,,,,,,,,,,,,604.3735844159964,604.3801049159956,605.3686875409912,606.3633320410154,606.3633320410154,606.3633320410154,607.8218447500258,left,1.4519570409902371,None,,,,,,,,,,,054376,001,2024-12-08_16h56.09.850,Test,2024.2.4,None,2024-12-08 16h56.44.433170 +0100,
66,150,180,53,None,12,12,0,True,,,,left,1.9998451659921557,None,,,,,,,,,,,,,0,12,12,12,607.8362089160364,,,,,,,,,,,,,,,,,,,,,,,,,,,,,,,,,,,,,,,,,,,,,,,,,,,,,,,,,,,,,,,,,,,,,,,,,607.8300623749965,607.8362089160364,608.8299798330409,609.8211052080151,609.8211052080151,609.8211052080151,611.832198958029,left,1.9998451659921557,None,,,,,,,,,,,054376,001,2024-12-08_16h56.09.850,Test,2024.2.4,None,2024-12-08 16h56.44.433170 +0100,
59,150,120,34,None,13,13,0,True,,,,right,0.7606257919687778,None,,,,,,,,,,,,,0,13,13,13,611.848015666008,,,,,,,,,,,,,,,,,,,,,,,,,,,,,,,,,,,,,,,,,,,,,,,,,,,,,,,,,,,,,,,,,,,,,,,,,611.8411715000402,611.848015666008,612.8466789580416,613.8302641659975,613.8302641659975,613.8302641659975,614.5987975409953,right,0.7606257919687778,None,,,,,,,,,,,054376,001,2024-12-08_16h56.09.850,Test,2024.2.4,None,2024-12-08 16h56.44.433170 +0100,
43,150,30,29,None,14,14,0,True,,,,left,1.2849092499818653,None,,,,,,,,,,,,,0,14,14,14,614.6141996250371,,,,,,,,,,,,,,,,,,,,,,,,,,,,,,,,,,,,,,,,,,,,,,,,,,,,,,,,,,,,,,,,,,,,,,,,,614.6078376250225,614.6141996250371,615.6012341250316,616.5964475829969,616.5964475829969,616.5964475829969,617.8883278330322,left,1.2849092499818653,None,,,,,,,,,,,054376,001,2024-12-08_16h56.09.850,Test,2024.2.4,None,2024-12-08 16h56.44.433170 +0100,
33,150,180,40,None,15,15,0,False,,,,right,3.0272840409888886,None,,,,,,,,,,,,,0,15,15,15,617.9039797910373,,,,,,,,,,,,,,,,,,,,,,,,,,,,,,,,,,,,,,,,,,,,,,,,,,,,,,,,,,,,,,,,,,,,,,,,,617.8974780410063,617.9039797910373,618.9019219159964,619.8874932500185,619.8874932500185,619.8874932500185,622.9214547080337,right,3.0272840409888886,None,622.8883201660356,622.8883201660356,622.8883201660356,,,,,,,,054376,001,2024-12-08_16h56.09.850,Test,2024.2.4,None,2024-12-08 16h56.44.433170 +0100,
2,150,0,49,None,16,16,0,False,,,,right,1.0220033749938011,None,,,,,,,,,,,,,0,16,16,16,622.9368692910066,,,,,,,,,,,,,,,,,,,,,,,,,,,,,,,,,,,,,,,,,,,,,,,,,,,,,,,,,,,,,,,,,,,,,,,,,622.9305830000085,622.9368692910066,623.9345507080434,624.9206094160327,624.9206094160327,624.9206094160327,625.9488730829908,right,1.0220033749938011,None,,,,,,,,,,,054376,001,2024-12-08_16h56.09.850,Test,2024.2.4,None,2024-12-08 16h56.44.433170 +0100,
22,150,120,25,None,17,17,0,False,,,,right,0.7722435420146212,None,,,,,,,,,,,,,0,17,17,17,625.9644319160143,,,,,,,,,,,,,,,,,,,,,,,,,,,,,,,,,,,,,,,,,,,,,,,,,,,,,,,,,,,,,,,,,,,,,,,,,625.957739250036,625.9644319160143,626.9633193750051,627.9469394999905,627.9469394999905,627.9469394999905,628.7223285830114,right,0.7722435420146212,None,,,,,,,,,,,054376,001,2024-12-08_16h56.09.850,Test,2024.2.4,None,2024-12-08 16h56.44.433170 +0100,
62,150,150,24,None,18,18,0,True,,,,right,1.9770095419953577,None,,,,,,,,,,,,,0,18,18,18,628.7371593330172,,,,,,,,,,,,,,,,,,,,,,,,,,,,,,,,,,,,,,,,,,,,,,,,,,,,,,,,,,,,,,,,,,,,,,,,,628.731048125017,628.7371593330172,629.7352807080024,630.719805041037,630.719805041037,630.719805041037,632.6991714580217,right,1.9770095419953577,None,,,,,,,,,,,054376,001,2024-12-08_16h56.09.850,Test,2024.2.4,None,2024-12-08 16h56.44.433170 +0100,
58,150,120,47,None,19,19,0,True,,,,right,0.7576946669723839,None,,,,,,,,,,,,,0,19,19,19,632.7146032500314,,,,,,,,,,,,,,,,,,,,,,,,,,,,,,,,,,,,,,,,,,,,,,,,,,,,,,,,,,,,,,,,,,,,,,,,,632.7082089580363,632.7146032500314,633.7133484579972,634.6967467500363,634.6967467500363,634.6967467500363,635.4655364160426,right,0.7576946669723839,None,,,,,,,,,,,054376,001,2024-12-08_16h56.09.850,Test,2024.2.4,None,2024-12-08 16h56.44.433170 +0100,
7,150,30,43,None,20,20,0,False,,,,right,0.8125268750009127,None,,,,,,,,,,,,,0,20,20,20,635.480379916029,,,,,,,,,,,,,,,,,,,,,,,,,,,,,,,,,,,,,,,,,,,,,,,,,,,,,,,,,,,,,,,,,,,,,,,,,635.4742348330328,635.480379916029,636.4688010000391,637.4633172909962,637.4633172909962,637.4633172909962,638.2820322079933,right,0.8125268750009127,None,,,,,,,,,,,054376,001,2024-12-08_16h56.09.850,Test,2024.2.4,None,2024-12-08 16h56.44.433170 +0100,
1,150,0,37,None,21,21,0,False,,,,left,2.1353833329631016,None,,,,,,,,,,,,,0,21,21,21,638.2976994159981,,,,,,,,,,,,,,,,,,,,,,,,,,,,,,,,,,,,,,,,,,,,,,,,,,,,,,,,,,,,,,,,,,,,,,,,,638.2909491659957,638.2976994159981,639.2966618330101,640.280005166016,640.280005166016,640.280005166016,642.4219481250038,left,2.1353833329631016,None,,,,,,,,,,,054376,001,2024-12-08_16h56.09.850,Test,2024.2.4,None,2024-12-08 16h56.44.433170 +0100,
30,150,150,2,None,22,22,0,False,,,,right,0.73841354198521,None,,,,,,,,,,,,,0,22,22,22,642.4360034579877,,,,,,,,,,,,,,,,,,,,,,,,,,,,,,,,,,,,,,,,,,,,,,,,,,,,,,,,,,,,,,,,,,,,,,,,,642.4300990410266,642.4360034579877,643.4301564579946,644.4208265829948,644.4208265829948,644.4208265829948,645.1659082500264,right,0.73841354198521,None,,,,,,,,,,,054376,001,2024-12-08_16h56.09.850,Test,2024.2.4,None,2024-12-08 16h56.44.433170 +0100,
40,150,0,9,None,23,23,0,True,,,,left,2.263094416994136,None,,,,,,,,,,,,,0,23,23,23,645.1806193750235,,,,,,,,,,,,,,,,,,,,,,,,,,,,,,,,,,,,,,,,,,,,,,,,,,,,,,,,,,,,,,,,,,,,,,,,,645.1746780000394,645.1806193750235,646.1686320000445,647.1633735410287,647.1633735410287,647.1633735410287,649.4325821250095,left,2.263094416994136,None,,,,,,,,,,,054376,001,2024-12-08_16h56.09.850,Test,2024.2.4,None,2024-12-08 16h56.44.433170 +0100,
12,150,60,13,None,24,24,0,False,,,,right,0.7223976249806583,None,,,,,,,,,,,,,0,24,24,24,649.4473019579891,,,,,,,,,,,,,,,,,,,,,,,,,,,,,,,,,,,,,,,,,,,,,,,,,,,,,,,,,,,,,,,,,,,,,,,,,649.4407681250013,649.4473019579891,650.4352927909931,651.4301904999884,651.4301904999884,651.4301904999884,652.155104125035,right,0.7223976249806583,None,,,,,,,,,,,054376,001,2024-12-08_16h56.09.850,Test,2024.2.4,None,2024-12-08 16h56.44.433170 +0100,
42,150,30,7,None,25,25,0,True,,,,left,1.397036082984414,None,,,,,,,,,,,,,0,25,25,25,652.1701861660113,,,,,,,,,,,,,,,,,,,,,,,,,,,,,,,,,,,,,,,,,,,,,,,,,,,,,,,,,,,,,,,,,,,,,,,,,652.1641527910251,652.1701861660113,653.1685069160303,654.1537623750046,654.1537623750046,654.1537623750046,655.5551166660152,left,1.397036082984414,None,,,,,,,,,,,054376,001,2024-12-08_16h56.09.850,Test,2024.2.4,None,2024-12-08 16h56.44.433170 +0100,
8,150,30,64,None,26,26,0,False,,,,left,2.14894337503938,None,,,,,,,,,,,,,0,26,26,26,655.5684887079988,,,,,,,,,,,,,,,,,,,,,,,,,,,,,,,,,,,,,,,,,,,,,,,,,,,,,,,,,,,,,,,,,,,,,,,,,655.5628545830259,655.5684887079988,656.5633075410151,657.5539762910339,657.5539762910339,657.5539762910339,659.7052648329991,left,2.14894337503938,None,,,,,,,,,,,054376,001,2024-12-08_16h56.09.850,Test,2024.2.4,None,2024-12-08 16h56.44.433170 +0100,
17,150,90,23,None,27,27,0,False,,,,right,0.8985784170217812,None,,,,,,,,,,,,,0,27,27,27,659.7193722910015,,,,,,,,,,,,,,,,,,,,,,,,,,,,,,,,,,,,,,,,,,,,,,,,,,,,,,,,,,,,,,,,,,,,,,,,,659.7134073750349,659.7193722910015,660.7133065829985,661.7037565830396,661.7037565830396,661.7037565830396,662.6047417910304,right,0.8985784170217812,None,,,,,,,,,,,054376,001,2024-12-08_16h56.09.850,Test,2024.2.4,None,2024-12-08 16h56.44.433170 +0100,
63,150,150,6,None,28,28,0,True,,,,right,0.7519745829631574,None,,,,,,,,,,,,,0,28,28,28,662.6190917080385,,,,,,,,,,,,,,,,,,,,,,,,,,,,,,,,,,,,,,,,,,,,,,,,,,,,,,,,,,,,,,,,,,,,,,,,,662.6134642080287,662.6190917080385,663.6132289160159,664.6037990000332,664.6037990000332,664.6037990000332,665.3654283329961,right,0.7519745829631574,None,,,,,,,,,,,054376,001,2024-12-08_16h56.09.850,Test,2024.2.4,None,2024-12-08 16h56.44.433170 +0100,
54,150,90,38,None,29,29,0,True,,,,left,2.6189315000083297,None,,,,,,,,,,,,,0,29,29,29,665.3807067910093,,,,,,,,,,,,,,,,,,,,,,,,,,,,,,,,,,,,,,,,,,,,,,,,,,,,,,,,,,,,,,,,,,,,,,,,,665.3741660829983,665.3807067910093,666.3685068330378,667.3634939159965,667.3634939159965,667.3634939159965,669.9882118329988,left,2.6189315000083297,None,,,,,,,,,,,054376,001,2024-12-08_16h56.09.850,Test,2024.2.4,None,2024-12-08 16h56.44.433170 +0100,
47,150,60,36,None,30,30,0,True,,,,left,1.3706322909565642,None,,,,,,,,,,,,,0,30,30,30,670.0024312910391,,,,,,,,,,,,,,,,,,,,,,,,,,,,,,,,,,,,,,,,,,,,,,,,,,,,,,,,,,,,,,,,,,,,,,,,,669.9966534580453,670.0024312910391,670.9966942080064,671.9873075410142,671.9873075410142,671.9873075410142,673.3653822910273,left,1.3706322909565642,None,,,,,,,,,,,054376,001,2024-12-08_16h56.09.850,Test,2024.2.4,None,2024-12-08 16h56.44.433170 +0100,
51,150,90,22,None,31,31,0,True,,,,left,1.6383198339608498,None,,,,,,,,,,,,,0,31,31,31,673.3804409580189,,,,,,,,,,,,,,,,,,,,,,,,,,,,,,,,,,,,,,,,,,,,,,,,,,,,,,,,,,,,,,,,,,,,,,,,,673.3739761250326,673.3804409580189,674.3679084579926,675.363402958028,675.363402958028,675.363402958028,677.005270374997,left,1.6383198339608498,None,,,,,,,,,,,054376,001,2024-12-08_16h56.09.850,Test,2024.2.4,None,2024-12-08 16h56.44.433170 +0100,
18,150,90,51,None,32,32,0,False,,,,right,0.3200053329928778,None,,,,,,,,,,,,,0,32,32,32,677.0208732500323,,,,,,,,,,,,,,,,,,,,,,,,,,,,,,,,,,,,,,,,,,,,,,,,,,,,,,,,,,,,,,,,,,,,,,,,,677.0144058330334,677.0208732500323,678.0179296249989,679.0043736250373,679.0043736250373,679.0043736250373,679.332378000021,right,0.3200053329928778,None,,,,,,,,,,,054376,001,2024-12-08_16h56.09.850,Test,2024.2.4,None,2024-12-08 16h56.44.433170 +0100,
46,150,60,12,None,33,33,0,True,,,,left,1.7083182499627583,None,,,,,,,,,,,,,0,33,33,33,679.3476892500184,,,,,,,,,,,,,,,,,,,,,,,,,,,,,,,,,,,,,,,,,,,,,,,,,,,,,,,,,,,,,,,,,,,,,,,,,679.3408391660196,679.3476892500184,680.346738125023,681.3290161660407,681.3290161660407,681.3290161660407,683.0489323750371,left,1.7083182499627583,None,,,,,,,,,,,054376,001,2024-12-08_16h56.09.850,Test,2024.2.4,None,2024-12-08 16h56.44.433170 +0100,
50,150,60,69,None,34,34,0,True,,,,right,1.3745859999908134,None,,,,,,,,,,,,,0,34,34,34,683.063859625021,,,,,,,,,,,,,,,,,,,,,,,,,,,,,,,,,,,,,,,,,,,,,,,,,,,,,,,,,,,,,,,,,,,,,,,,,683.0575557080447,683.063859625021,684.0519225830212,685.0468235409935,685.0468235409935,685.0468235409935,686.4322845000424,right,1.3745859999908134,None,,,,,,,,,,,054376,001,2024-12-08_16h56.09.850,Test,2024.2.4,None,2024-12-08 16h56.44.433170 +0100,
4,150,0,59,None,35,35,0,False,,,,right,0.8913987500127405,None,,,,,,,,,,,,,0,35,35,35,686.4476601660135,,,,,,,,,,,,,,,,,,,,,,,,,,,,,,,,,,,,,,,,,,,,,,,,,,,,,,,,,,,,,,,,,,,,,,,,,686.4413548330194,686.4476601660135,687.4467647499987,688.4301006250316,688.4301006250316,688.4301006250316,689.3319679159904,right,0.8913987500127405,None,,,,,,,,,,,054376,001,2024-12-08_16h56.09.850,Test,2024.2.4,None,2024-12-08 16h56.44.433170 +0100,
55,150,90,3,None,36,36,0,True,,,,right,1.5509055830189027,None,,,,,,,,,,,,,0,36,36,36,689.3471166249947,,,,,,,,,,,,,,,,,,,,,,,,,,,,,,,,,,,,,,,,,,,,,,,,,,,,,,,,,,,,,,,,,,,,,,,,,689.3409663750208,689.3471166249947,690.3352208750439,691.3300625830307,691.3300625830307,691.3300625830307,692.8878499999992,right,1.5509055830189027,None,,,,,,,,,,,054376,001,2024-12-08_16h56.09.850,Test,2024.2.4,None,2024-12-08 16h56.44.433170 +0100,
69,150,180,39,None,37,37,0,True,,,,right,1.6702152500511147,None,,,,,,,,,,,,,0,37,37,37,692.9026352500077,,,,,,,,,,,,,,,,,,,,,,,,,,,,,,,,,,,,,,,,,,,,,,,,,,,,,,,,,,,,,,,,,,,,,,,,,692.8966691250098,692.9026352500077,693.8966220000293,694.8871001660009,694.8871001660009,694.8871001660009,696.5655451249913,right,1.6702152500511147,None,,,,,,,,,,,054376,001,2024-12-08_16h56.09.850,Test,2024.2.4,None,2024-12-08 16h56.44.433170 +0100,
13,150,60,16,None,38,38,0,False,,,,right,1.5279050419921987,None,,,,,,,,,,,,,0,38,38,38,696.5799253330333,,,,,,,,,,,,,,,,,,,,,,,,,,,,,,,,,,,,,,,,,,,,,,,,,,,,,,,,,,,,,,,,,,,,,,,,,696.5741994160344,696.5799253330333,697.5687175830244,698.5634006659966,698.5634006659966,698.5634006659966,700.0987089580158,right,1.5279050419921987,None,,,,,,,,,,,054376,001,2024-12-08_16h56.09.850,Test,2024.2.4,None,2024-12-08 16h56.44.433170 +0100,
65,150,150,11,None,39,39,0,True,,,,right,0.9509259999613278,None,,,,,,,,,,,,,0,39,39,39,700.1170932910172,,,,,,,,,,,,,,,,,,,,,,,,,,,,,,,,,,,,,,,,,,,,,,,,,,,,,,,,,,,,,,,,,,,,,,,,,700.1113095830078,700.1170932910172,701.1134367909981,702.0962947080261,702.0962947080261,702.0962947080261,703.0581443750416,right,0.9509259999613278,None,,,,,,,,,,,054376,001,2024-12-08_16h56.09.850,Test,2024.2.4,None,2024-12-08 16h56.44.433170 +0100,
38,150,0,52,None,40,40,0,True,,,,right,7.214326667017303,None,,,,,,,,,,,,,0,40,40,40,703.0710286250105,,,,,,,,,,,,,,,,,,,,,,,,,,,,,,,,,,,,,,,,,,,,,,,,,,,,,,,,,,,,,,,,,,,,,,,,,703.0662805830361,703.0710286250105,704.0685834159958,705.05446975003,705.05446975003,705.05446975003,712.2715247500455,right,7.214326667017303,None,708.0537259160192,708.0537259160192,708.0537259160192,,,,,,,,054376,001,2024-12-08_16h56.09.850,Test,2024.2.4,None,2024-12-08 16h56.44.433170 +0100,
19,150,90,46,None,41,41,0,False,,,,right,1.3523732500034384,None,,,,,,,,,,,,,0,41,41,41,712.2865035830182,,,,,,,,,,,,,,,,,,,,,,,,,,,,,,,,,,,,,,,,,,,,,,,,,,,,,,,,,,,,,,,,,,,,,,,,,712.2802671249956,712.2865035830182,713.2799552500364,714.2706889580004,714.2706889580004,714.2706889580004,715.6320326660061,right,1.3523732500034384,None,,,,,,,,,,,054376,001,2024-12-08_16h56.09.850,Test,2024.2.4,None,2024-12-08 16h56.44.433170 +0100,
28,150,150,28,None,42,42,0,False,,,,right,0.7882159159635194,None,,,,,,,,,,,,,0,42,42,42,715.6478994580102,,,,,,,,,,,,,,,,,,,,,,,,,,,,,,,,,,,,,,,,,,,,,,,,,,,,,,,,,,,,,,,,,,,,,,,,,715.6410281250137,715.6478994580102,716.6466479999945,717.630036541028,717.630036541028,717.630036541028,718.4218702079961,right,0.7882159159635194,None,,,,,,,,,,,054376,001,2024-12-08_16h56.09.850,Test,2024.2.4,None,2024-12-08 16h56.44.433170 +0100,
39,150,0,56,None,43,43,0,True,,,,right,1.4851174580398947,None,,,,,,,,,,,,,0,43,43,43,718.4368967080372,,,,,,,,,,,,,,,,,,,,,,,,,,,,,,,,,,,,,,,,,,,,,,,,,,,,,,,,,,,,,,,,,,,,,,,,,718.4309131249902,718.4368967080372,719.4354955829913,720.4206035000389,720.4206035000389,720.4206035000389,721.916233875032,right,1.4851174580398947,None,,,,,,,,,,,054376,001,2024-12-08_16h56.09.850,Test,2024.2.4,None,2024-12-08 16h56.44.433170 +0100,
11,150,60,70,None,44,44,0,False,,,,right,1.9720977089600638,None,,,,,,,,,,,,,0,44,44,44,721.9319627500372,,,,,,,,,,,,,,,,,,,,,,,,,,,,,,,,,,,,,,,,,,,,,,,,,,,,,,,,,,,,,,,,,,,,,,,,,721.9251432500314,721.9319627500372,722.9301074580289,723.9134963329998,723.9134963329998,723.9134963329998,725.888182374998,right,1.9720977089600638,None,,,,,,,,,,,054376,001,2024-12-08_16h56.09.850,Test,2024.2.4,None,2024-12-08 16h56.44.433170 +0100,
24,150,120,8,None,45,45,0,False,,,,right,2.299817166989669,None,,,,,,,,,,,,,0,45,45,45,725.9024960410316,,,,,,,,,,,,,,,,,,,,,,,,,,,,,,,,,,,,,,,,,,,,,,,,,,,,,,,,,,,,,,,,,,,,,,,,,725.8963915000204,725.9024960410316,726.8966680410085,727.8874003750389,727.8874003750389,727.8874003750389,730.1973768330063,right,2.299817166989669,None,,,,,,,,,,,054376,001,2024-12-08_16h56.09.850,Test,2024.2.4,None,2024-12-08 16h56.44.433170 +0100,
35,150,180,33,None,46,46,0,False,,,,right,0.916469874966424,None,,,,,,,,,,,,,0,46,46,46,730.2096782500157,,,,,,,,,,,,,,,,,,,,,,,,,,,,,,,,,,,,,,,,,,,,,,,,,,,,,,,,,,,,,,,,,,,,,,,,,730.204862707993,730.2096782500157,731.2023134580231,732.1881370000192,732.1881370000192,732.1881370000192,733.1153412910062,right,0.916469874966424,None,,,,,,,,,,,054376,001,2024-12-08_16h56.09.850,Test,2024.2.4,None,2024-12-08 16h56.44.433170 +0100,
53,150,90,54,None,47,47,0,True,,,,right,0.03398958401521668,None,,,,,,,,,,,,,0,47,47,47,733.1306304160389,,,,,,,,,,,,,,,,,,,,,,,,,,,,,,,,,,,,,,,,,,,,,,,,,,,,,,,,,,,,,,,,,,,,,,,,,733.1243451249902,733.1306304160389,734.1182900830172,735.113352290995,735.113352290995,735.113352290995,735.1577155830455,right,0.03398958401521668,None,,,,,,,,,,,054376,001,2024-12-08_16h56.09.850,Test,2024.2.4,None,2024-12-08 16h56.44.433170 +0100,
45,150,30,32,None,48,48,0,True,,,,left,2.0449502500123344,None,,,,,,,,,,,,,0,48,48,48,735.1697241250076,,,,,,,,,,,,,,,,,,,,,,,,,,,,,,,,,,,,,,,,,,,,,,,,,,,,,,,,,,,,,,,,,,,,,,,,,735.1651837910176,735.1697241250076,736.1633747500018,737.1539272080408,737.1539272080408,737.1539272080408,739.2052220830228,left,2.0449502500123344,None,,,,,,,,,,,054376,001,2024-12-08_16h56.09.850,Test,2024.2.4,None,2024-12-08 16h56.44.433170 +0100,
48,150,60,58,None,49,49,0,True,,,,left,1.3761852499446832,None,,,,,,,,,,,,,0,49,49,49,739.2206428750069,,,,,,,,,,,,,,,,,,,,,,,,,,,,,,,,,,,,,,,,,,,,,,,,,,,,,,,,,,,,,,,,,,,,,,,,,739.2141750830342,739.2206428750069,740.2186960410327,741.2044157910277,741.2044157910277,741.2044157910277,742.5836875830428,left,1.3761852499446832,None,,,,,,,,,,,054376,001,2024-12-08_16h56.09.850,Test,2024.2.4,None,2024-12-08 16h56.44.433170 +0100,
56,150,120,30,None,50,50,0,True,,,,right,0.7749798329896294,None,,,,,,,,,,,,,0,50,50,50,742.5996964580263,,,,,,,,,,,,,,,,,,,,,,,,,,,,,,,,,,,,,,,,,,,,,,,,,,,,,,,,,,,,,,,,,,,,,,,,,742.5927548329928,742.5996964580263,743.5967198750004,744.5800677500083,744.5800677500083,744.5800677500083,745.3654222500045,right,0.7749798329896294,None,,,,,,,,,,,054376,001,2024-12-08_16h56.09.850,Test,2024.2.4,None,2024-12-08 16h56.44.433170 +0100,
44,150,30,45,None,51,51,0,True,,,,left,2.0837544999667443,None,,,,,,,,,,,,,0,51,51,51,745.3808608330437,,,,,,,,,,,,,,,,,,,,,,,,,,,,,,,,,,,,,,,,,,,,,,,,,,,,,,,,,,,,,,,,,,,,,,,,,745.373873500037,745.3808608330437,746.3799993330031,747.3633079580031,747.3633079580031,747.3633079580031,749.4494634160073,left,2.0837544999667443,None,,,,,,,,,,,054376,001,2024-12-08_16h56.09.850,Test,2024.2.4,None,2024-12-08 16h56.44.433170 +0100,
67,150,180,5,None,52,52,0,True,,,,right,0.8091937499702908,None,,,,,,,,,,,,,0,52,52,52,749.4647269159905,,,,,,,,,,,,,,,,,,,,,,,,,,,,,,,,,,,,,,,,,,,,,,,,,,,,,,,,,,,,,,,,,,,,,,,,,749.4584508750122,749.4647269159905,750.4632310830057,751.4467706250143,751.4467706250143,751.4467706250143,752.2657141250093,right,0.8091937499702908,None,,,,,,,,,,,054376,001,2024-12-08_16h56.09.850,Test,2024.2.4,None,2024-12-08 16h56.44.433170 +0100,
21,150,120,60,None,53,53,0,False,,,,left,2.276400458009448,None,,,,,,,,,,,,,0,53,53,53,752.2816313750227,,,,,,,,,,,,,,,,,,,,,,,,,,,,,,,,,,,,,,,,,,,,,,,,,,,,,,,,,,,,,,,,,,,,,,,,,752.275073375029,752.2816313750227,753.2799291250412,754.2634663330391,754.2634663330391,754.2634663330391,756.5488405410433,left,2.276400458009448,None,,,,,,,,,,,054376,001,2024-12-08_16h56.09.850,Test,2024.2.4,None,2024-12-08 16h56.44.433170 +0100,
3,150,0,21,None,54,54,0,False,,,,right,1.0448993340251036,None,,,,,,,,,,,,,0,54,54,54,756.564466166019,,,,,,,,,,,,,,,,,,,,,,,,,,,,,,,,,,,,,,,,,,,,,,,,,,,,,,,,,,,,,,,,,,,,,,,,,756.557777790993,756.564466166019,757.5633552910294,758.5467896659975,758.5467896659975,758.5467896659975,759.5986852910137,right,1.0448993340251036,None,,,,,,,,,,,054376,001,2024-12-08_16h56.09.850,Test,2024.2.4,None,2024-12-08 16h56.44.433170 +0100,
49,150,60,15,None,55,55,0,True,,,,left,2.9198214579955675,None,,,,,,,,,,,,,0,55,55,55,759.6137887910008,,,,,,,,,,,,,,,,,,,,,,,,,,,,,,,,,,,,,,,,,,,,,,,,,,,,,,,,,,,,,,,,,,,,,,,,,759.6069413750083,759.6137887910008,760.6019728750107,761.5967197910068,761.5967197910068,761.5967197910068,764.5219238330028,left,2.9198214579955675,None,,,,,,,,,,,054376,001,2024-12-08_16h56.09.850,Test,2024.2.4,None,2024-12-08 16h56.44.433170 +0100,
60,150,120,31,None,56,56,0,True,,,,right,0.786194209009409,None,,,,,,,,,,,,,0,56,56,56,764.5364430000191,,,,,,,,,,,,,,,,,,,,,,,,,,,,,,,,,,,,,,,,,,,,,,,,,,,,,,,,,,,,,,,,,,,,,,,,,764.5303694999893,764.5364430000191,765.5299407910206,766.5204514579964,766.5204514579964,766.5204514579964,767.3154035410262,right,0.786194209009409,None,,,,,,,,,,,054376,001,2024-12-08_16h56.09.850,Test,2024.2.4,None,2024-12-08 16h56.44.433170 +0100,
9,150,30,57,None,57,57,0,False,,,,left,2.3598361660260707,None,,,,,,,,,,,,,0,57,57,57,767.3301845410024,,,,,,,,,,,,,,,,,,,,,,,,,,,,,,,,,,,,,,,,,,,,,,,,,,,,,,,,,,,,,,,,,,,,,,,,,767.3241762910038,767.3301845410024,768.3186886660405,769.3136378750205,769.3136378750205,769.3136378750205,771.682208000042,left,2.3598361660260707,None,,,,,,,,,,,054376,001,2024-12-08_16h56.09.850,Test,2024.2.4,None,2024-12-08 16h56.44.433170 +0100,
52,150,90,67,None,58,58,0,True,,,,right,0.8238526670029387,None,,,,,,,,,,,,,0,58,58,58,771.6972296250169,,,,,,,,,,,,,,,,,,,,,,,,,,,,,,,,,,,,,,,,,,,,,,,,,,,,,,,,,,,,,,,,,,,,,,,,,771.6907087910222,771.6972296250169,772.6853252500296,773.6801044160384,773.6801044160384,773.6801044160384,774.5139961250243,right,0.8238526670029387,None,,,,,,,,,,,054376,001,2024-12-08_16h56.09.850,Test,2024.2.4,None,2024-12-08 16h56.44.433170 +0100,
16,150,90,20,None,59,59,0,False,,,,right,0.7341778749832883,None,,,,,,,,,,,,,0,59,59,59,774.5266057080007,,,,,,,,,,,,,,,,,,,,,,,,,,,,,,,,,,,,,,,,,,,,,,,,,,,,,,,,,,,,,,,,,,,,,,,,,774.5218560410431,774.5266057080007,775.5194891249994,776.5037654160406,776.5037654160406,776.5037654160406,777.2489006250398,right,0.7341778749832883,None,,,,,,,,,,,054376,001,2024-12-08_16h56.09.850,Test,2024.2.4,None,2024-12-08 16h56.44.433170 +0100,
64,150,150,41,None,60,60,0,True,,,,right,1.7337892500218004,None,,,,,,,,,,,,,0,60,60,60,777.2640989579959,,,,,,,,,,,,,,,,,,,,,,,,,,,,,,,,,,,,,,,,,,,,,,,,,,,,,,,,,,,,,,,,,,,,,,,,,777.2579554159893,777.2640989579959,778.2518633329892,779.2467933750013,779.2467933750013,779.2467933750013,780.9836132079945,right,1.7337892500218004,None,,,,,,,,,,,054376,001,2024-12-08_16h56.09.850,Test,2024.2.4,None,2024-12-08 16h56.44.433170 +0100,
15,150,60,65,None,61,61,0,False,,,,left,1.2745004160096869,None,,,,,,,,,,,,,0,61,61,61,780.9984587500221,,,,,,,,,,,,,,,,,,,,,,,,,,,,,,,,,,,,,,,,,,,,,,,,,,,,,,,,,,,,,,,,,,,,,,,,,780.9915769160143,780.9984587500221,781.9966739580268,782.9800976660335,782.9800976660335,782.9800976660335,784.2659609999973,left,1.2745004160096869,None,,,,,,,,,,,054376,001,2024-12-08_16h56.09.850,Test,2024.2.4,None,2024-12-08 16h56.44.433170 +0100,
36,150,0,62,None,62,62,0,True,,,,left,2.0027169170207344,None,,,,,,,,,,,,,0,62,62,62,784.2848285000073,,,,,,,,,,,,,,,,,,,,,,,,,,,,,,,,,,,,,,,,,,,,,,,,,,,,,,,,,,,,,,,,,,,,,,,,,784.2787712080171,784.2848285000073,785.2800839580013,786.261927250016,786.261927250016,786.261927250016,788.2712709580082,left,2.0027169170207344,None,,,,,,,,,,,054376,001,2024-12-08_16h56.09.850,Test,2024.2.4,None,2024-12-08 16h56.44.433170 +0100,
14,150,60,10,None,63,63,0,False,,,,right,1.938748457992915,None,,,,,,,,,,,,,0,63,63,63,788.2859640000388,,,,,,,,,,,,,,,,,,,,,,,,,,,,,,,,,,,,,,,,,,,,,,,,,,,,,,,,,,,,,,,,,,,,,,,,,788.2802963330178,788.2859640000388,789.2799049160094,790.2699044580222,790.2699044580222,790.2699044580222,792.2154252910404,right,1.938748457992915,None,,,,,,,,,,,054376,001,2024-12-08_16h56.09.850,Test,2024.2.4,None,2024-12-08 16h56.44.433170 +0100,
37,150,0,4,None,64,64,0,True,,,,left,1.2893267080071382,None,,,,,,,,,,,,,0,64,64,64,792.2306842500111,,,,,,,,,,,,,,,,,,,,,,,,,,,,,,,,,,,,,,,,,,,,,,,,,,,,,,,,,,,,,,,,,,,,,,,,,792.2245244160295,792.2306842500111,793.2187565410277,794.2136291250354,794.2136291250354,794.2136291250354,795.505321625038,left,1.2893267080071382,None,,,,,,,,,,,054376,001,2024-12-08_16h56.09.850,Test,2024.2.4,None,2024-12-08 16h56.44.433170 +0100,
31,150,180,19,None,65,65,0,False,,,,right,1.2632846249616705,None,,,,,,,,,,,,,0,65,65,65,795.5206292080111,,,,,,,,,,,,,,,,,,,,,,,,,,,,,,,,,,,,,,,,,,,,,,,,,,,,,,,,,,,,,,,,,,,,,,,,,795.5144016660051,795.5206292080111,796.5182042079978,797.5041411659913,797.5041411659913,797.5041411659913,798.7718007499934,right,1.2632846249616705,None,,,,,,,,,,,054376,001,2024-12-08_16h56.09.850,Test,2024.2.4,None,2024-12-08 16h56.44.433170 +0100,
61,150,150,61,None,66,66,0,True,,,,right,1.0213375000166707,None,,,,,,,,,,,,,0,66,66,66,798.7860612500226,,,,,,,,,,,,,,,,,,,,,,,,,,,,,,,,,,,,,,,,,,,,,,,,,,,,,,,,,,,,,,,,,,,,,,,,,798.7800807500025,798.7860612500226,799.7801000410109,800.7707177909906,800.7707177909906,800.7707177909906,801.7995623330353,right,1.0213375000166707,None,,,,,,,,,,,054376,001,2024-12-08_16h56.09.850,Test,2024.2.4,None,2024-12-08 16h56.44.433170 +0100,
26,150,150,44,None,67,67,0,False,,,,right,1.5501853750320151,None,,,,,,,,,,,,,0,67,67,67,801.8148291250109,,,,,,,,,,,,,,,,,,,,,,,,,,,,,,,,,,,,,,,,,,,,,,,,,,,,,,,,,,,,,,,,,,,,,,,,,801.8086002080236,801.8148291250109,802.8133068330353,803.7968918750412,803.7968918750412,803.7968918750412,805.3495915830135,right,1.5501853750320151,None,,,,,,,,,,,054376,001,2024-12-08_16h56.09.850,Test,2024.2.4,None,2024-12-08 16h56.44.433170 +0100,
29,150,150,42,None,68,68,0,False,,,,left,4.13896333402954,None,,,,,,,,,,,,,0,68,68,68,805.364949166018,,,,,,,,,,,,,,,,,,,,,,,,,,,,,,,,,,,,,,,,,,,,,,,,,,,,,,,,,,,,,,,,,,,,,,,,,805.3586202079896,805.364949166018,806.3633732910384,807.3467562500155,807.3467562500155,807.3467562500155,811.4886221250053,left,4.13896333402954,None,810.3358575410093,810.3467047500308,810.3358575410093,,,,,,,,054376,001,2024-12-08_16h56.09.850,Test,2024.2.4,None,2024-12-08 16h56.44.433170 +0100,
20,150,90,27,None,69,69,0,False,,,,left,2.455258166999556,None,,,,,,,,,,,,,0,69,69,69,811.5032520830282,,,,,,,,,,,,,,,,,,,,,,,,,,,,,,,,,,,,,,,,,,,,,,,,,,,,,,,,,,,,,,,,,,,,,,,,,811.4973607910215,811.5032520830282,812.5014757910394,813.4871675000177,813.4871675000177,813.4871675000177,815.9488485000329,left,2.455258166999556,None,,,,,,,,,,,054376,001,2024-12-08_16h56.09.850,Test,2024.2.4,None,2024-12-08 16h56.44.433170 +0100,
,,,,,,,,,,,,,,,,,,,,,,,,,,,,,,,,,,,,,,,,,,,,,,,,,,,,,,,,,,,,,,,,,,,,,,,,,,,,,,,,,,,,,,,,,,,,,,,,,,,,,,,,,,,,,,,,,,,,,815.9491610410041,815.9598205410293,815.9598205410293,819.4652710829978,space,3.4939557500183582,None,054376,001,2024-12-08_16h56.09.850,Test,2024.2.4,None,2024-12-08 16h56.44.433170 +0100,
