Trial_Number,Exposure_Duration,Displacement_Angle,Stimulus,Response,thisN,thisTrialN,thisRepN,Is_Distractor,key_resp_3.keys,key_resp_3.rt,key_resp_3.duration,key_resp_7.keys,key_resp_7.rt,key_resp_7.duration,trials.thisRepN,trials.thisTrialN,trials.thisN,trials.thisIndex,trials_2.thisRepN,trials_2.thisTrialN,trials_2.thisN,trials_2.thisIndex,trials_3.thisRepN,trials_3.thisTrialN,trials_3.thisN,trials_3.thisIndex,trials_4.thisRepN,trials_4.thisTrialN,trials_4.thisN,trials_4.thisIndex,thisRow.t,notes,Intro_to_experiment.started,important1_2.started,key_resp_8.started,Intro_to_experiment.stopped,key_resp_8.keys,key_resp_8.rt,key_resp_8.duration,important.started,important1.started,key_resp_4.started,important.stopped,key_resp_4.keys,key_resp_4.rt,key_resp_4.duration,training_instruction.started,key_resp_9.started,important1_3.started,training_instruction.stopped,key_resp_9.keys,key_resp_9.rt,key_resp_9.duration,training_trial.started,cross.started,image.started,aperture.started,cross.stopped,image.stopped,aperture.stopped,training_trial.stopped,New_instruction.started,text.started,key_resp_2.started,New_instruction.stopped,key_resp_2.keys,key_resp_2.rt,key_resp_2.duration,test_trial.started,cross2.started,cross2.stopped,image_2.started,key_resp_3.started,aperture_2.started,test_trial.stopped,trials_2.key_resp_3.keys,trials_2.key_resp_3.rt,trials_2.key_resp_3.duration,image_2.stopped,aperture_2.stopped,text_3.started,start_blok_2.started,key_resp_5.started,text_4.started,start_blok_2.stopped,key_resp_5.keys,key_resp_5.rt,key_resp_5.duration,training_2.started,cross_2.started,image_3.started,aperture_3.started,cross_2.stopped,image_3.stopped,aperture_3.stopped,training_2.stopped,nyeste_instruks.started,text_5.started,key_resp_6.started,nyeste_instruks.stopped,key_resp_6.keys,key_resp_6.rt,key_resp_6.duration,test_2.started,cross2_2.started,cross2_2.stopped,image_4.started,key_resp_7.started,aperture_4.started,test_2.stopped,trials_4.key_resp_7.keys,trials_4.key_resp_7.rt,trials_4.key_resp_7.duration,Instruction.started,Instruktion.started,key_resp.started,Instruction.stopped,key_resp.keys,key_resp.rt,key_resp.duration,participant,session,date,expName,psychopyVersion,frameRate,expStart,
,,,,,,,,,,,,,,,,,,,,,,,,,,,,,,,,,0.0059932499716524035,0.011564041982637718,0.011564041982637718,64.0594718339853,space,64.01159162502154,None,,,,,,,,,,,,,,,,,,,,,,,,,,,,,,,,,,,,,,,,,,,,,,,,,,,,,,,,,,,,,,,,,,,,,,,,,,,,,,,,,,091708,001,2024-11-28_15h38.20.509,Test,2024.2.4,None,2024-11-28 15h38.41.229134 +0100,
,,,,,,,,,,,,,,,,,,,,,,,,,,,,,,,,,,,,,,,,64.05960579199018,64.08416641698568,64.08416641698568,92.71167516699643,space,28.606330833019456,None,,,,,,,,,,,,,,,,,,,,,,,,,,,,,,,,,,,,,,,,,,,,,,,,,,,,,,,,,,,,,,,,,,,,,,,,,,,091708,001,2024-11-28_15h38.20.509,Test,2024.2.4,None,2024-11-28 15h38.41.229134 +0100,
,,,,,,,,,,,,,,,,,,,,,,,,,,,,,,,,,,,,,,,,,,,,,,,92.71177849997184,92.71824683397426,92.71824683397426,101.9737568749988,space,9.24858858299558,None,,,,,,,,,,,,,,,,,,,,,,,,,,,,,,,,,,,,,,,,,,,,,,,,,,,,,,,,,,,,,,,,,,,,091708,001,2024-11-28_15h38.20.509,Test,2024.2.4,None,2024-11-28 15h38.41.229134 +0100,
8,150,30,53,None,0,0,0,,,,,,,,0,0,0,7,,,,,,,,,,,,,102.0167722919723,,,,,,,,,,,,,,,,,,,,,,,102.00931674998719,102.0167722919723,102.17243733399664,102.17243733399664,102.21620054199593,103.88217004199396,103.88217004199396,103.8669577089895,,,,,,,,,,,,,,,,,,,,,,,,,,,,,,,,,,,,,,,,,,,,,,,,,,,,,,,,,,,,091708,001,2024-11-28_15h38.20.509,Test,2024.2.4,None,2024-11-28 15h38.41.229134 +0100,
23,150,120,49,None,1,1,0,,,,,,,,0,1,1,22,,,,,,,,,,,,,103.88217004199396,,,,,,,,,,,,,,,,,,,,,,,103.87735812499886,103.88217004199396,104.07266349997371,104.07266349997371,104.07266349997371,105.77089824998984,105.77089824998984,105.75629666697932,,,,,,,,,,,,,,,,,,,,,,,,,,,,,,,,,,,,,,,,,,,,,,,,,,,,,,,,,,,,091708,001,2024-11-28_15h38.20.509,Test,2024.2.4,None,2024-11-28 15h38.41.229134 +0100,
18,150,90,6,None,2,2,0,,,,,,,,0,2,2,17,,,,,,,,,,,,,105.77089824998984,,,,,,,,,,,,,,,,,,,,,,,105.76594387498335,105.78267362498445,105.97485262498958,105.97485262498958,105.97485262498958,107.68216149997897,107.68216149997897,107.66712791699683,,,,,,,,,,,,,,,,,,,,,,,,,,,,,,,,,,,,,,,,,,,,,,,,,,,,,,,,,,,,091708,001,2024-11-28_15h38.20.509,Test,2024.2.4,None,2024-11-28 15h38.41.229134 +0100,
7,150,30,44,None,3,3,0,,,,,,,,0,3,3,6,,,,,,,,,,,,,107.68216149997897,,,,,,,,,,,,,,,,,,,,,,,107.67675283399876,107.68216149997897,107.87336687499192,107.87336687499192,107.87336687499192,109.57273545899079,109.57273545899079,109.55730070898426,,,,,,,,,,,,,,,,,,,,,,,,,,,,,,,,,,,,,,,,,,,,,,,,,,,,,,,,,,,,091708,001,2024-11-28_15h38.20.509,Test,2024.2.4,None,2024-11-28 15h38.41.229134 +0100,
6,150,30,61,None,4,4,0,,,,,,,,0,4,4,5,,,,,,,,,,,,,109.57273545899079,,,,,,,,,,,,,,,,,,,,,,,109.56736399998772,109.57273545899079,109.77330716699362,109.77330716699362,109.7660218339879,111.48152641698834,111.48152641698834,111.46709199997713,,,,,,,,,,,,,,,,,,,,,,,,,,,,,,,,,,,,,,,,,,,,,,,,,,,,,,,,,,,,091708,001,2024-11-28_15h38.20.509,Test,2024.2.4,None,2024-11-28 15h38.41.229134 +0100,
10,150,30,36,None,5,5,0,,,,,,,,0,5,5,9,,,,,,,,,,,,,111.48152641698834,,,,,,,,,,,,,,,,,,,,,,,111.47607820897247,111.48152641698834,111.67295237499638,111.67295237499638,111.67295237499638,113.38244216699968,113.38244216699968,113.36720049998257,,,,,,,,,,,,,,,,,,,,,,,,,,,,,,,,,,,,,,,,,,,,,,,,,,,,,,,,,,,,091708,001,2024-11-28_15h38.20.509,Test,2024.2.4,None,2024-11-28 15h38.41.229134 +0100,
16,150,90,14,None,6,6,0,,,,,,,,0,6,6,15,,,,,,,,,,,,,113.38244216699968,,,,,,,,,,,,,,,,,,,,,,,113.37676674997783,113.38244216699968,113.57323616699432,113.57323616699432,113.57323616699432,115.27070483399439,115.27070483399439,115.2566509169992,,,,,,,,,,,,,,,,,,,,,,,,,,,,,,,,,,,,,,,,,,,,,,,,,,,,,,,,,,,,091708,001,2024-11-28_15h38.20.509,Test,2024.2.4,None,2024-11-28 15h38.41.229134 +0100,
27,150,150,33,None,7,7,0,,,,,,,,0,7,7,26,,,,,,,,,,,,,115.27070483399439,,,,,,,,,,,,,,,,,,,,,,,115.26549591697403,115.28265504198498,115.47314929199638,115.47314929199638,115.47314929199638,117.18170795898186,117.18170795898186,117.16671866699471,,,,,,,,,,,,,,,,,,,,,,,,,,,,,,,,,,,,,,,,,,,,,,,,,,,,,,,,,,,,091708,001,2024-11-28_15h38.20.509,Test,2024.2.4,None,2024-11-28 15h38.41.229134 +0100,
33,150,180,37,None,8,8,0,,,,,,,,0,8,8,32,,,,,,,,,,,,,117.18170795898186,,,,,,,,,,,,,,,,,,,,,,,117.1763246669725,117.18170795898186,117.37311229199986,117.37311229199986,117.37311229199986,119.08136149999336,119.08136149999336,119.0669380419713,,,,,,,,,,,,,,,,,,,,,,,,,,,,,,,,,,,,,,,,,,,,,,,,,,,,,,,,,,,,091708,001,2024-11-28_15h38.20.509,Test,2024.2.4,None,2024-11-28 15h38.41.229134 +0100,
3,150,0,64,None,9,9,0,,,,,,,,0,9,9,2,,,,,,,,,,,,,119.08136149999336,,,,,,,,,,,,,,,,,,,,,,,119.0758080839878,119.08136149999336,119.27079862498795,119.27079862498795,119.27079862498795,120.96837287498056,120.96837287498056,120.95612404198619,,,,,,,,,,,,,,,,,,,,,,,,,,,,,,,,,,,,,,,,,,,,,,,,,,,,,,,,,,,,091708,001,2024-11-28_15h38.20.509,Test,2024.2.4,None,2024-11-28 15h38.41.229134 +0100,
11,150,60,32,None,10,10,0,,,,,,,,0,10,10,10,,,,,,,,,,,,,120.96837287498056,,,,,,,,,,,,,,,,,,,,,,,120.96398604198475,120.98271412498434,121.17336849999265,121.17336849999265,121.17336849999265,122.86922170899925,122.86922170899925,122.85666870899149,,,,,,,,,,,,,,,,,,,,,,,,,,,,,,,,,,,,,,,,,,,,,,,,,,,,,,,,,,,,091708,001,2024-11-28_15h38.20.509,Test,2024.2.4,None,2024-11-28 15h38.41.229134 +0100,
22,150,120,28,None,11,11,0,,,,,,,,0,11,11,21,,,,,,,,,,,,,122.86922170899925,,,,,,,,,,,,,,,,,,,,,,,122.86552624998149,122.8825534999778,123.07269737499882,123.07269737499882,123.07269737499882,124.76923679199535,124.76923679199535,124.75658854198991,,,,,,,,,,,,,,,,,,,,,,,,,,,,,,,,,,,,,,,,,,,,,,,,,,,,,,,,,,,,091708,001,2024-11-28_15h38.20.509,Test,2024.2.4,None,2024-11-28 15h38.41.229134 +0100,
25,150,120,52,None,12,12,0,,,,,,,,0,12,12,24,,,,,,,,,,,,,124.76923679199535,,,,,,,,,,,,,,,,,,,,,,,124.76496404199861,124.78260916698491,124.97242662499775,124.97242662499775,124.97242662499775,126.66973616697942,126.66973616697942,126.65627066697925,,,,,,,,,,,,,,,,,,,,,,,,,,,,,,,,,,,,,,,,,,,,,,,,,,,,,,,,,,,,091708,001,2024-11-28_15h38.20.509,Test,2024.2.4,None,2024-11-28 15h38.41.229134 +0100,
17,150,90,54,None,13,13,0,,,,,,,,0,13,13,16,,,,,,,,,,,,,126.66973616697942,,,,,,,,,,,,,,,,,,,,,,,126.66476954199607,126.6824814589927,126.87384574997122,126.87384574997122,126.87384574997122,128.58973241699277,128.58973241699277,128.56712070899084,,,,,,,,,,,,,,,,,,,,,,,,,,,,,,,,,,,,,,,,,,,,,,,,,,,,,,,,,,,,091708,001,2024-11-28_15h38.20.509,Test,2024.2.4,None,2024-11-28 15h38.41.229134 +0100,
2,150,0,34,None,14,14,0,,,,,,,,0,14,14,1,,,,,,,,,,,,,128.58973241699277,,,,,,,,,,,,,,,,,,,,,,,128.58496354197268,128.58973241699277,128.77693745898432,128.77693745898432,128.78257516698795,130.48256708399276,130.48256708399276,130.4670752499951,,,,,,,,,,,,,,,,,,,,,,,,,,,,,,,,,,,,,,,,,,,,,,,,,,,,,,,,,,,,091708,001,2024-11-28_15h38.20.509,Test,2024.2.4,None,2024-11-28 15h38.41.229134 +0100,
20,150,90,39,None,15,15,0,,,,,,,,0,15,15,19,,,,,,,,,,,,,130.48256708399276,,,,,,,,,,,,,,,,,,,,,,,130.4772340839845,130.48256708399276,130.6724575839762,130.6724575839762,130.6724575839762,132.3690709589864,132.3690709589864,132.35613879197626,,,,,,,,,,,,,,,,,,,,,,,,,,,,,,,,,,,,,,,,,,,,,,,,,,,,,,,,,,,,091708,001,2024-11-28_15h38.20.509,Test,2024.2.4,None,2024-11-28 15h38.41.229134 +0100,
4,150,0,8,None,16,16,0,,,,,,,,0,16,16,3,,,,,,,,,,,,,132.3690709589864,,,,,,,,,,,,,,,,,,,,,,,132.36486516697914,132.38257604197133,132.5730977919884,132.5730977919884,132.5730977919884,134.2683974589745,134.2683974589745,134.25632691697683,,,,,,,,,,,,,,,,,,,,,,,,,,,,,,,,,,,,,,,,,,,,,,,,,,,,,,,,,,,,091708,001,2024-11-28_15h38.20.509,Test,2024.2.4,None,2024-11-28 15h38.41.229134 +0100,
32,150,180,67,None,17,17,0,,,,,,,,0,17,17,31,,,,,,,,,,,,,134.2683974589745,,,,,,,,,,,,,,,,,,,,,,,134.26396779197967,134.2826760839962,134.4727742499963,134.4727742499963,134.4727742499963,136.16993645898765,136.16993645898765,136.1567300419847,,,,,,,,,,,,,,,,,,,,,,,,,,,,,,,,,,,,,,,,,,,,,,,,,,,,,,,,,,,,091708,001,2024-11-28_15h38.20.509,Test,2024.2.4,None,2024-11-28 15h38.41.229134 +0100,
1,150,0,20,None,18,18,0,,,,,,,,0,18,18,0,,,,,,,,,,,,,136.16993645898765,,,,,,,,,,,,,,,,,,,,,,,136.16508699997212,136.182659958984,136.37296787498053,136.37296787498053,136.37296787498053,138.06897529197158,138.06897529197158,138.05616891698446,,,,,,,,,,,,,,,,,,,,,,,,,,,,,,,,,,,,,,,,,,,,,,,,,,,,,,,,,,,,091708,001,2024-11-28_15h38.20.509,Test,2024.2.4,None,2024-11-28 15h38.41.229134 +0100,
34,150,180,12,None,19,19,0,,,,,,,,0,19,19,33,,,,,,,,,,,,,138.06897529197158,,,,,,,,,,,,,,,,,,,,,,,138.06449504199554,138.08258108398877,138.27258320897818,138.27258320897818,138.27258320897818,139.96842974997708,139.96842974997708,139.95596508399467,,,,,,,,,,,,,,,,,,,,,,,,,,,,,,,,,,,,,,,,,,,,,,,,,,,,,,,,,,,,091708,001,2024-11-28_15h38.20.509,Test,2024.2.4,None,2024-11-28 15h38.41.229134 +0100,
9,150,30,62,None,20,20,0,,,,,,,,0,20,20,8,,,,,,,,,,,,,139.96842974997708,,,,,,,,,,,,,,,,,,,,,,,139.9640695839771,139.98243741699844,140.1728723749984,140.1728723749984,140.1728723749984,141.87004670899478,141.87004670899478,141.85676441699616,,,,,,,,,,,,,,,,,,,,,,,,,,,,,,,,,,,,,,,,,,,,,,,,,,,,,,,,,,,,091708,001,2024-11-28_15h38.20.509,Test,2024.2.4,None,2024-11-28 15h38.41.229134 +0100,
35,150,180,3,None,21,21,0,,,,,,,,0,21,21,34,,,,,,,,,,,,,141.87004670899478,,,,,,,,,,,,,,,,,,,,,,,141.8654817919887,141.8825314589776,142.07201295898994,142.07201295898994,142.07201295898994,143.76884012497612,143.76884012497612,143.75624620899907,,,,,,,,,,,,,,,,,,,,,,,,,,,,,,,,,,,,,,,,,,,,,,,,,,,,,,,,,,,,091708,001,2024-11-28_15h38.20.509,Test,2024.2.4,None,2024-11-28 15h38.41.229134 +0100,
5,150,0,50,None,22,22,0,,,,,,,,0,22,22,4,,,,,,,,,,,,,143.76884012497612,,,,,,,,,,,,,,,,,,,,,,,143.76449837497785,143.7826318749867,143.97282837497187,143.97282837497187,143.97282837497187,145.66825324998354,145.66825324998354,145.65628416699474,,,,,,,,,,,,,,,,,,,,,,,,,,,,,,,,,,,,,,,,,,,,,,,,,,,,,,,,,,,,091708,001,2024-11-28_15h38.20.509,Test,2024.2.4,None,2024-11-28 15h38.41.229134 +0100,
12,150,60,40,None,23,23,0,,,,,,,,0,23,23,11,,,,,,,,,,,,,145.66825324998354,,,,,,,,,,,,,,,,,,,,,,,145.66373974998714,145.68264320897288,145.87296566698933,145.87296566698933,145.87296566698933,147.5796797919902,147.5796797919902,147.56680104197585,,,,,,,,,,,,,,,,,,,,,,,,,,,,,,,,,,,,,,,,,,,,,,,,,,,,,,,,,,,,091708,001,2024-11-28_15h38.20.509,Test,2024.2.4,None,2024-11-28 15h38.41.229134 +0100,
15,150,60,19,None,24,24,0,,,,,,,,0,24,24,14,,,,,,,,,,,,,147.5796797919902,,,,,,,,,,,,,,,,,,,,,,,147.57428341699415,147.5796797919902,147.77294999998412,147.77294999998412,147.77294999998412,149.46867929198197,149.46867929198197,149.45617237497936,,,,,,,,,,,,,,,,,,,,,,,,,,,,,,,,,,,,,,,,,,,,,,,,,,,,,,,,,,,,091708,001,2024-11-28_15h38.20.509,Test,2024.2.4,None,2024-11-28 15h38.41.229134 +0100,
29,150,150,10,None,25,25,0,,,,,,,,0,25,25,28,,,,,,,,,,,,,149.46867929198197,,,,,,,,,,,,,,,,,,,,,,,149.46426837498439,149.48269674999756,149.6735236249806,149.6735236249806,149.6735236249806,151.36899070898653,151.36899070898653,151.35656829198706,,,,,,,,,,,,,,,,,,,,,,,,,,,,,,,,,,,,,,,,,,,,,,,,,,,,,,,,,,,,091708,001,2024-11-28_15h38.20.509,Test,2024.2.4,None,2024-11-28 15h38.41.229134 +0100,
19,150,90,69,None,26,26,0,,,,,,,,0,26,26,18,,,,,,,,,,,,,151.36899070898653,,,,,,,,,,,,,,,,,,,,,,,151.36465808399953,151.38273733397364,151.5727217089734,151.5727217089734,151.5727217089734,153.26948662498035,153.26948662498035,153.25608749999083,,,,,,,,,,,,,,,,,,,,,,,,,,,,,,,,,,,,,,,,,,,,,,,,,,,,,,,,,,,,091708,001,2024-11-28_15h38.20.509,Test,2024.2.4,None,2024-11-28 15h38.41.229134 +0100,
14,150,60,26,None,27,27,0,,,,,,,,0,27,27,13,,,,,,,,,,,,,153.26948662498035,,,,,,,,,,,,,,,,,,,,,,,153.26450470899,153.28280845898553,153.472440499987,153.472440499987,153.472440499987,155.16846345897648,155.16846345897648,155.15673574997345,,,,,,,,,,,,,,,,,,,,,,,,,,,,,,,,,,,,,,,,,,,,,,,,,,,,,,,,,,,,091708,001,2024-11-28_15h38.20.509,Test,2024.2.4,None,2024-11-28 15h38.41.229134 +0100,
31,150,180,65,None,28,28,0,,,,,,,,0,28,28,30,,,,,,,,,,,,,155.16846345897648,,,,,,,,,,,,,,,,,,,,,,,155.16405949997716,155.18270241699065,155.37270833397633,155.37270833397633,155.37270833397633,157.0686328749871,157.0686328749871,157.0561361250002,,,,,,,,,,,,,,,,,,,,,,,,,,,,,,,,,,,,,,,,,,,,,,,,,,,,,,,,,,,,091708,001,2024-11-28_15h38.20.509,Test,2024.2.4,None,2024-11-28 15h38.41.229134 +0100,
24,150,120,45,None,29,29,0,,,,,,,,0,29,29,23,,,,,,,,,,,,,157.0686328749871,,,,,,,,,,,,,,,,,,,,,,,157.06410091699217,157.08271874999627,157.2731927089917,157.2731927089917,157.2731927089917,158.97060258398415,158.97060258398415,158.95697087497683,,,,,,,,,,,,,,,,,,,,,,,,,,,,,,,,,,,,,,,,,,,,,,,,,,,,,,,,,,,,091708,001,2024-11-28_15h38.20.509,Test,2024.2.4,None,2024-11-28 15h38.41.229134 +0100,
28,150,150,24,None,30,30,0,,,,,,,,0,30,30,27,,,,,,,,,,,,,158.97060258398415,,,,,,,,,,,,,,,,,,,,,,,158.96514716697857,158.97060258398415,159.17282099998556,159.17282099998556,159.16588004198275,160.8685067089973,160.8685067089973,160.85606858399115,,,,,,,,,,,,,,,,,,,,,,,,,,,,,,,,,,,,,,,,,,,,,,,,,,,,,,,,,,,,091708,001,2024-11-28_15h38.20.509,Test,2024.2.4,None,2024-11-28 15h38.41.229134 +0100,
26,150,150,15,None,31,31,0,,,,,,,,0,31,31,25,,,,,,,,,,,,,160.8685067089973,,,,,,,,,,,,,,,,,,,,,,,160.86410066697863,160.88272495899582,161.07291458398686,161.07291458398686,161.07291458398686,162.76874708398827,162.76874708398827,162.7561669589777,,,,,,,,,,,,,,,,,,,,,,,,,,,,,,,,,,,,,,,,,,,,,,,,,,,,,,,,,,,,091708,001,2024-11-28_15h38.20.509,Test,2024.2.4,None,2024-11-28 15h38.41.229134 +0100,
30,150,150,27,None,32,32,0,,,,,,,,0,32,32,29,,,,,,,,,,,,,162.76874708398827,,,,,,,,,,,,,,,,,,,,,,,162.76455162497587,162.78257633399335,162.9729853339959,162.9729853339959,162.9729853339959,164.68048958398867,164.68048958398867,164.6666453749931,,,,,,,,,,,,,,,,,,,,,,,,,,,,,,,,,,,,,,,,,,,,,,,,,,,,,,,,,,,,091708,001,2024-11-28_15h38.20.509,Test,2024.2.4,None,2024-11-28 15h38.41.229134 +0100,
21,150,120,46,None,33,33,0,,,,,,,,0,33,33,20,,,,,,,,,,,,,164.68048958398867,,,,,,,,,,,,,,,,,,,,,,,164.6750874169811,164.68048958398867,164.8733499169757,164.8733499169757,164.8733499169757,166.5803963749786,166.5803963749786,166.5669704589818,,,,,,,,,,,,,,,,,,,,,,,,,,,,,,,,,,,,,,,,,,,,,,,,,,,,,,,,,,,,091708,001,2024-11-28_15h38.20.509,Test,2024.2.4,None,2024-11-28 15h38.41.229134 +0100,
13,150,60,25,None,34,34,0,,,,,,,,0,34,34,12,,,,,,,,,,,,,166.5803963749786,,,,,,,,,,,,,,,,,,,,,,,166.57497220899677,166.5803963749786,166.77324941699044,166.77324941699044,166.77324941699044,168.46617979198345,168.46617979198345,168.45631520898314,,,,,,,,,,,,,,,,,,,,,,,,,,,,,,,,,,,,,,,,,,,,,,,,,,,,,,,,,,,,091708,001,2024-11-28_15h38.20.509,Test,2024.2.4,None,2024-11-28 15h38.41.229134 +0100,
,,,,,,,,,,,,,,,,,,,,,,,,,,,,,,,,,,,,,,,,,,,,,,,,,,,,,,,,,,,,,,168.45648041699314,168.47493137497804,168.47493137497804,180.95078395897872,space,12.471539666003082,None,,,,,,,,,,,,,,,,,,,,,,,,,,,,,,,,,,,,,,,,,,,,,,,,,,,,,091708,001,2024-11-28_15h38.20.509,Test,2024.2.4,None,2024-11-28 15h38.41.229134 +0100,
50,150,60,48,None,0,0,0,True,right,0.6541619999916293,None,,,,,,,,0,0,0,0,,,,,,,,,180.9805724589969,,,,,,,,,,,,,,,,,,,,,,,,,,,,,,,,,,,,,,180.97126187497634,180.9805724589969,181.97126570899854,182.9497662089998,182.9497662089998,182.9497662089998,183.607850417,right,0.6541619999916293,None,,,,,,,,,,,,,,,,,,,,,,,,,,,,,,,,,,,,,,,,,,,091708,001,2024-11-28_15h38.20.509,Test,2024.2.4,None,2024-11-28 15h38.41.229134 +0100,
69,150,180,21,None,1,1,0,True,left,0.9395789580012206,None,,,,,,,,0,1,1,1,,,,,,,,,183.64295045897597,,,,,,,,,,,,,,,,,,,,,,,,,,,,,,,,,,,,,,183.61599587497767,183.64295045897597,184.63799041698803,185.60656383397873,185.60656383397873,185.60656383397873,186.55145720898872,left,0.9395789580012206,None,,,,,,,,,,,,,,,,,,,,,,,,,,,,,,,,,,,,,,,,,,,091708,001,2024-11-28_15h38.20.509,Test,2024.2.4,None,2024-11-28 15h38.41.229134 +0100,
39,150,0,30,None,2,2,0,True,left,0.8538957919809036,None,,,,,,,,0,2,2,2,,,,,,,,,186.56747141698725,,,,,,,,,,,,,,,,,,,,,,,,,,,,,,,,,,,,,,186.5605098749802,186.56747141698725,187.56630479198066,188.54946395897423,188.54946395897423,188.54946395897423,189.40925037499983,left,0.8538957919809036,None,,,,,,,,,,,,,,,,,,,,,,,,,,,,,,,,,,,,,,,,,,,091708,001,2024-11-28_15h38.20.509,Test,2024.2.4,None,2024-11-28 15h38.41.229134 +0100,
13,150,60,25,None,3,3,0,False,right,0.6947964580031112,None,,,,,,,,0,3,3,3,,,,,,,,,189.4221664169745,,,,,,,,,,,,,,,,,,,,,,,,,,,,,,,,,,,,,,189.41564416699111,189.4221664169745,190.4160395419749,191.4056784589775,191.4056784589775,191.4056784589775,192.1075824999716,right,0.6947964580031112,None,,,,,,,,,,,,,,,,,,,,,,,,,,,,,,,,,,,,,,,,,,,091708,001,2024-11-28_15h38.20.509,Test,2024.2.4,None,2024-11-28 15h38.41.229134 +0100,
60,150,120,18,None,4,4,0,True,right,0.8343076670134906,None,,,,,,,,0,4,4,4,,,,,,,,,192.12202983399038,,,,,,,,,,,,,,,,,,,,,,,,,,,,,,,,,,,,,,192.1157574999961,192.12202983399038,193.11601829199935,194.10626133397454,194.10626133397454,194.10626133397454,194.9513534589787,right,0.8343076670134906,None,,,,,,,,,,,,,,,,,,,,,,,,,,,,,,,,,,,,,,,,,,,091708,001,2024-11-28_15h38.20.509,Test,2024.2.4,None,2024-11-28 15h38.41.229134 +0100,
17,150,90,54,None,5,5,0,False,left,0.9707543340045959,None,,,,,,,,0,5,5,5,,,,,,,,,194.9665859589877,,,,,,,,,,,,,,,,,,,,,,,,,,,,,,,,,,,,,,194.95957716699922,194.9665859589877,195.95405474997824,196.94950791698648,196.94950791698648,196.94950791698648,197.92456441698596,left,0.9707543340045959,None,,,,,,,,,,,,,,,,,,,,,,,,,,,,,,,,,,,,,,,,,,,091708,001,2024-11-28_15h38.20.509,Test,2024.2.4,None,2024-11-28 15h38.41.229134 +0100,
32,150,180,67,None,6,6,0,False,right,1.0806637500063516,None,,,,,,,,0,6,6,6,,,,,,,,,197.9400417500001,,,,,,,,,,,,,,,,,,,,,,,,,,,,,,,,,,,,,,197.9334686669754,197.9400417500001,198.93702166699222,199.92324291699333,199.92324291699333,199.92324291699333,201.00773204199504,right,1.0806637500063516,None,,,,,,,,,,,,,,,,,,,,,,,,,,,,,,,,,,,,,,,,,,,091708,001,2024-11-28_15h38.20.509,Test,2024.2.4,None,2024-11-28 15h38.41.229134 +0100,
9,150,30,62,None,7,7,0,False,right,1.348082583019277,None,,,,,,,,0,7,7,7,,,,,,,,,201.02402041698224,,,,,,,,,,,,,,,,,,,,,,,,,,,,,,,,,,,,,,201.01745437498903,201.02402041698224,202.02159545899485,203.00646412497736,203.00646412497736,203.00646412497736,204.35735666699475,right,1.348082583019277,None,,,,,,,,,,,,,,,,,,,,,,,,,,,,,,,,,,,,,,,,,,,091708,001,2024-11-28_15h38.20.509,Test,2024.2.4,None,2024-11-28 15h38.41.229134 +0100,
37,150,0,11,None,8,8,0,True,left,0.8436123749997932,None,,,,,,,,0,8,8,8,,,,,,,,,204.3725089589716,,,,,,,,,,,,,,,,,,,,,,,,,,,,,,,,,,,,,,204.36593320898828,204.3725089589716,205.3662300419819,206.3571872089815,206.3571872089815,206.3571872089815,207.2080728749861,left,0.8436123749997932,None,,,,,,,,,,,,,,,,,,,,,,,,,,,,,,,,,,,,,,,,,,,091708,001,2024-11-28_15h38.20.509,Test,2024.2.4,None,2024-11-28 15h38.41.229134 +0100,
19,150,90,69,None,9,9,0,False,right,1.1431632910098415,None,,,,,,,,0,9,9,9,,,,,,,,,207.2235607499897,,,,,,,,,,,,,,,,,,,,,,,,,,,,,,,,,,,,,,207.21719974998268,207.2235607499897,208.22069449999253,209.2076420839876,209.2076420839876,209.2076420839876,210.35801958397496,right,1.1431632910098415,None,,,,,,,,,,,,,,,,,,,,,,,,,,,,,,,,,,,,,,,,,,,091708,001,2024-11-28_15h38.20.509,Test,2024.2.4,None,2024-11-28 15h38.41.229134 +0100,
30,150,150,27,None,10,10,0,False,left,0.8938730839872733,None,,,,,,,,0,10,10,10,,,,,,,,,210.3727661249868,,,,,,,,,,,,,,,,,,,,,,,,,,,,,,,,,,,,,,210.36645249999128,210.3727661249868,211.3659625419823,212.35693395897397,212.35693395897397,212.35693395897397,213.25763599999482,left,0.8938730839872733,None,,,,,,,,,,,,,,,,,,,,,,,,,,,,,,,,,,,,,,,,,,,091708,001,2024-11-28_15h38.20.509,Test,2024.2.4,None,2024-11-28 15h38.41.229134 +0100,
36,150,0,70,None,11,11,0,True,left,0.7306075830128975,None,,,,,,,,0,11,11,11,,,,,,,,,213.27202049997868,,,,,,,,,,,,,,,,,,,,,,,,,,,,,,,,,,,,,,213.26556954198168,213.27202049997868,214.26596095899004,215.25639391699224,215.25639391699224,215.25639391699224,215.99075391699444,left,0.7306075830128975,None,,,,,,,,,,,,,,,,,,,,,,,,,,,,,,,,,,,,,,,,,,,091708,001,2024-11-28_15h38.20.509,Test,2024.2.4,None,2024-11-28 15h38.41.229134 +0100,
68,150,180,42,None,12,12,0,True,left,0.648202999989735,None,,,,,,,,0,12,12,12,,,,,,,,,216.00539729199954,,,,,,,,,,,,,,,,,,,,,,,,,,,,,,,,,,,,,,215.99965162499575,216.00539729199954,216.9993044999719,217.98980491698603,217.98980491698603,217.98980491698603,218.64160729199648,left,0.648202999989735,None,,,,,,,,,,,,,,,,,,,,,,,,,,,,,,,,,,,,,,,,,,,091708,001,2024-11-28_15h38.20.509,Test,2024.2.4,None,2024-11-28 15h38.41.229134 +0100,
40,150,0,55,None,13,13,0,True,left,0.9023162919911556,None,,,,,,,,0,13,13,13,,,,,,,,,218.65645066698198,,,,,,,,,,,,,,,,,,,,,,,,,,,,,,,,,,,,,,218.6504317089857,218.65645066698198,219.6547870419745,220.63994837499922,220.63994837499922,220.63994837499922,221.55142920897924,left,0.9023162919911556,None,,,,,,,,,,,,,,,,,,,,,,,,,,,,,,,,,,,,,,,,,,,091708,001,2024-11-28_15h38.20.509,Test,2024.2.4,None,2024-11-28 15h38.41.229134 +0100,
66,150,180,31,None,14,14,0,True,left,0.9568691659951583,None,,,,,,,,0,14,14,14,,,,,,,,,221.566878291982,,,,,,,,,,,,,,,,,,,,,,,,,,,,,,,,,,,,,,221.56022674997803,221.566878291982,222.55440491699846,223.54959045897704,223.54959045897704,223.54959045897704,224.51839391698013,left,0.9568691659951583,None,,,,,,,,,,,,,,,,,,,,,,,,,,,,,,,,,,,,,,,,,,,091708,001,2024-11-28_15h38.20.509,Test,2024.2.4,None,2024-11-28 15h38.41.229134 +0100,
14,150,60,26,None,15,15,0,False,left,0.7916515000106301,None,,,,,,,,0,15,15,15,,,,,,,,,224.53328187498846,,,,,,,,,,,,,,,,,,,,,,,,,,,,,,,,,,,,,,224.52715587499551,224.53328187498846,225.52133545899414,226.5162464589812,226.5162464589812,226.5162464589812,227.318072708993,left,0.7916515000106301,None,,,,,,,,,,,,,,,,,,,,,,,,,,,,,,,,,,,,,,,,,,,091708,001,2024-11-28_15h38.20.509,Test,2024.2.4,None,2024-11-28 15h38.41.229134 +0100,
44,150,30,23,None,16,16,0,True,left,1.2459705419896636,None,,,,,,,,0,16,16,16,,,,,,,,,227.33289958399837,,,,,,,,,,,,,,,,,,,,,,,,,,,,,,,,,,,,,,227.32662766697467,227.33289958399837,228.32136895897565,229.31615262498963,229.31615262498963,229.31615262498963,230.5682454999769,left,1.2459705419896636,None,,,,,,,,,,,,,,,,,,,,,,,,,,,,,,,,,,,,,,,,,,,091708,001,2024-11-28_15h38.20.509,Test,2024.2.4,None,2024-11-28 15h38.41.229134 +0100,
67,150,180,2,None,17,17,0,True,left,1.684585708018858,None,,,,,,,,0,17,17,17,,,,,,,,,230.58400837497902,,,,,,,,,,,,,,,,,,,,,,,,,,,,,,,,,,,,,,230.5774659589806,230.58400837497902,231.58292295897263,232.56560058399918,232.56560058399918,232.56560058399918,234.26095754199196,left,1.684585708018858,None,,,,,,,,,,,,,,,,,,,,,,,,,,,,,,,,,,,,,,,,,,,091708,001,2024-11-28_15h38.20.509,Test,2024.2.4,None,2024-11-28 15h38.41.229134 +0100,
11,150,60,32,None,18,18,0,False,left,1.7469114169944078,None,,,,,,,,0,18,18,18,,,,,,,,,234.27291812497424,,,,,,,,,,,,,,,,,,,,,,,,,,,,,,,,,,,,,,234.26829895898118,234.27291812497424,235.2712896669982,236.25641916698078,236.25641916698078,236.25641916698078,238.0074739169795,left,1.7469114169944078,None,,,,,,,,,,,,,,,,,,,,,,,,,,,,,,,,,,,,,,,,,,,091708,001,2024-11-28_15h38.20.509,Test,2024.2.4,None,2024-11-28 15h38.41.229134 +0100,
38,150,0,17,None,19,19,0,True,left,1.3987909579882398,None,,,,,,,,0,19,19,19,,,,,,,,,238.02217483398272,,,,,,,,,,,,,,,,,,,,,,,,,,,,,,,,,,,,,,238.01588699998683,238.02217483398272,239.01608841697453,240.00629774999106,240.00629774999106,240.00629774999106,241.40743924997514,left,1.3987909579882398,None,,,,,,,,,,,,,,,,,,,,,,,,,,,,,,,,,,,,,,,,,,,091708,001,2024-11-28_15h38.20.509,Test,2024.2.4,None,2024-11-28 15h38.41.229134 +0100,
63,150,150,4,None,20,20,0,True,left,2.2604587499808986,None,,,,,,,,0,20,20,20,,,,,,,,,241.42276404198492,,,,,,,,,,,,,,,,,,,,,,,,,,,,,,,,,,,,,,241.41647479197127,241.42276404198492,242.42038945897366,243.4064391249849,243.4064391249849,243.4064391249849,245.6780572499847,left,2.2604587499808986,None,,,,,,,,,,,,,,,,,,,,,,,,,,,,,,,,,,,,,,,,,,,091708,001,2024-11-28_15h38.20.509,Test,2024.2.4,None,2024-11-28 15h38.41.229134 +0100,
70,150,180,68,None,21,21,0,True,right,0.8937266249849927,None,,,,,,,,0,21,21,21,,,,,,,,,245.68928662498365,,,,,,,,,,,,,,,,,,,,,,,,,,,,,,,,,,,,,,245.68449970899383,245.68928662498365,246.6831139169808,247.67382895899937,247.67382895899937,247.67382895899937,248.5739739589917,right,0.8937266249849927,None,,,,,,,,,,,,,,,,,,,,,,,,,,,,,,,,,,,,,,,,,,,091708,001,2024-11-28_15h38.20.509,Test,2024.2.4,None,2024-11-28 15h38.41.229134 +0100,
48,150,60,5,None,22,22,0,True,left,0.9332732080074493,None,,,,,,,,0,22,22,22,,,,,,,,,248.5890468749858,,,,,,,,,,,,,,,,,,,,,,,,,,,,,,,,,,,,,,248.58168329199543,248.5890468749858,249.58307441699435,250.57260112499353,250.57260112499353,250.57260112499353,251.50821412497316,left,0.9332732080074493,None,,,,,,,,,,,,,,,,,,,,,,,,,,,,,,,,,,,,,,,,,,,091708,001,2024-11-28_15h38.20.509,Test,2024.2.4,None,2024-11-28 15h38.41.229134 +0100,
29,150,150,10,None,23,23,0,False,left,1.0663872080040164,None,,,,,,,,0,23,23,23,,,,,,,,,251.5234839169716,,,,,,,,,,,,,,,,,,,,,,,,,,,,,,,,,,,,,,251.51723366699298,251.5234839169716,252.52120787499007,253.50645583399455,253.50645583399455,253.50645583399455,254.57510262497817,left,1.0663872080040164,None,,,,,,,,,,,,,,,,,,,,,,,,,,,,,,,,,,,,,,,,,,,091708,001,2024-11-28_15h38.20.509,Test,2024.2.4,None,2024-11-28 15h38.41.229134 +0100,
16,150,90,14,None,24,24,0,False,right,1.0443064160062931,None,,,,,,,,0,24,24,24,,,,,,,,,254.59021670898073,,,,,,,,,,,,,,,,,,,,,,,,,,,,,,,,,,,,,,254.58399795898004,254.59021670898073,255.58805458399002,256.5729856249818,256.5729856249818,256.5729856249818,257.62404483399587,right,1.0443064160062931,None,,,,,,,,,,,,,,,,,,,,,,,,,,,,,,,,,,,,,,,,,,,091708,001,2024-11-28_15h38.20.509,Test,2024.2.4,None,2024-11-28 15h38.41.229134 +0100,
28,150,150,24,None,25,25,0,False,right,0.9106955000024755,None,,,,,,,,0,25,25,25,,,,,,,,,257.63919841698953,,,,,,,,,,,,,,,,,,,,,,,,,,,,,,,,,,,,,,257.6329471669742,257.63919841698953,258.63707720898674,259.62298387498595,259.62298387498595,259.62298387498595,260.5443472499901,right,0.9106955000024755,None,,,,,,,,,,,,,,,,,,,,,,,,,,,,,,,,,,,,,,,,,,,091708,001,2024-11-28_15h38.20.509,Test,2024.2.4,None,2024-11-28 15h38.41.229134 +0100,
42,150,30,59,None,26,26,0,True,left,1.5366441250080243,None,,,,,,,,0,26,26,26,,,,,,,,,260.55604266698356,,,,,,,,,,,,,,,,,,,,,,,,,,,,,,,,,,,,,,260.5514477499819,260.55604266698356,261.55482516699703,262.53982654199353,262.53982654199353,262.53982654199353,264.08477424999,left,1.5366441250080243,None,,,,,,,,,,,,,,,,,,,,,,,,,,,,,,,,,,,,,,,,,,,091708,001,2024-11-28_15h38.20.509,Test,2024.2.4,None,2024-11-28 15h38.41.229134 +0100,
2,150,0,34,None,27,27,0,False,right,0.7396046250069048,None,,,,,,,,0,27,27,27,,,,,,,,,264.10686833399814,,,,,,,,,,,,,,,,,,,,,,,,,,,,,,,,,,,,,,264.1008964589855,264.10686833399814,265.10450291697634,266.08129495897447,266.08129495897447,266.08129495897447,266.8245574589819,right,0.7396046250069048,None,,,,,,,,,,,,,,,,,,,,,,,,,,,,,,,,,,,,,,,,,,,091708,001,2024-11-28_15h38.20.509,Test,2024.2.4,None,2024-11-28 15h38.41.229134 +0100,
25,150,120,52,None,28,28,0,False,left,0.693160958995577,None,,,,,,,,0,28,28,28,,,,,,,,,266.84058558399556,,,,,,,,,,,,,,,,,,,,,,,,,,,,,,,,,,,,,,266.8344119999965,266.84058558399556,267.83806220898987,268.8233713339723,268.8233713339723,268.8233713339723,269.5194511669979,left,0.693160958995577,None,,,,,,,,,,,,,,,,,,,,,,,,,,,,,,,,,,,,,,,,,,,091708,001,2024-11-28_15h38.20.509,Test,2024.2.4,None,2024-11-28 15h38.41.229134 +0100,
8,150,30,53,None,29,29,0,False,left,0.7398038749815896,None,,,,,,,,0,29,29,29,,,,,,,,,269.5346422919829,,,,,,,,,,,,,,,,,,,,,,,,,,,,,,,,,,,,,,269.52853687497554,269.5346422919829,270.5326947089925,271.5160915419983,271.5160915419983,271.5160915419983,272.2579704169766,left,0.7398038749815896,None,,,,,,,,,,,,,,,,,,,,,,,,,,,,,,,,,,,,,,,,,,,091708,001,2024-11-28_15h38.20.509,Test,2024.2.4,None,2024-11-28 15h38.41.229134 +0100,
10,150,30,36,None,30,30,0,False,right,0.8664347080048174,None,,,,,,,,0,30,30,30,,,,,,,,,272.27333308398374,,,,,,,,,,,,,,,,,,,,,,,,,,,,,,,,,,,,,,272.2672620419762,272.27333308398374,273.27100491698366,274.2568095419847,274.2568095419847,274.2568095419847,275.1348869589856,right,0.8664347080048174,None,,,,,,,,,,,,,,,,,,,,,,,,,,,,,,,,,,,,,,,,,,,091708,001,2024-11-28_15h38.20.509,Test,2024.2.4,None,2024-11-28 15h38.41.229134 +0100,
33,150,180,37,None,31,31,0,False,left,1.6573628750047646,None,,,,,,,,0,31,31,31,,,,,,,,,275.15052708398434,,,,,,,,,,,,,,,,,,,,,,,,,,,,,,,,,,,,,,275.1437935839931,275.15052708398434,276.14938874999643,277.13280174997635,277.13280174997635,277.13280174997635,278.80030129197985,left,1.6573628750047646,None,,,,,,,,,,,,,,,,,,,,,,,,,,,,,,,,,,,,,,,,,,,091708,001,2024-11-28_15h38.20.509,Test,2024.2.4,None,2024-11-28 15h38.41.229134 +0100,
27,150,150,33,None,32,32,0,False,right,0.9303723339980934,None,,,,,,,,0,32,32,32,,,,,,,,,278.81275429198286,,,,,,,,,,,,,,,,,,,,,,,,,,,,,,,,,,,,,,278.8081884169951,278.81275429198286,279.8039254169853,280.79944154198165,280.79944154198165,280.79944154198165,281.73549587497837,right,0.9303723339980934,None,,,,,,,,,,,,,,,,,,,,,,,,,,,,,,,,,,,,,,,,,,,091708,001,2024-11-28_15h38.20.509,Test,2024.2.4,None,2024-11-28 15h38.41.229134 +0100,
51,150,90,16,None,33,33,0,True,left,0.6957331669982523,None,,,,,,,,0,33,33,33,,,,,,,,,281.7509666669939,,,,,,,,,,,,,,,,,,,,,,,,,,,,,,,,,,,,,,281.74440654198406,281.7509666669939,282.7492754999839,283.7328653339937,283.7328653339937,283.7328653339937,284.4350007920002,left,0.6957331669982523,None,,,,,,,,,,,,,,,,,,,,,,,,,,,,,,,,,,,,,,,,,,,091708,001,2024-11-28_15h38.20.509,Test,2024.2.4,None,2024-11-28 15h38.41.229134 +0100,
45,150,30,63,None,34,34,0,True,left,0.9568669169966597,None,,,,,,,,0,34,34,34,,,,,,,,,284.4500443749712,,,,,,,,,,,,,,,,,,,,,,,,,,,,,,,,,,,,,,284.44310620898614,284.4500443749712,285.43810370899155,286.43299554198165,286.43299554198165,286.43299554198165,287.4004870839999,left,0.9568669169966597,None,,,,,,,,,,,,,,,,,,,,,,,,,,,,,,,,,,,,,,,,,,,091708,001,2024-11-28_15h38.20.509,Test,2024.2.4,None,2024-11-28 15h38.41.229134 +0100,
57,150,120,58,None,35,35,0,True,left,0.8504957499972079,None,,,,,,,,0,35,35,35,,,,,,,,,287.41282941697864,,,,,,,,,,,,,,,,,,,,,,,,,,,,,,,,,,,,,,287.4082642089925,287.41282941697864,288.4047174169973,289.3993997499929,289.3993997499929,289.3993997499929,290.25280933399335,left,0.8504957499972079,None,,,,,,,,,,,,,,,,,,,,,,,,,,,,,,,,,,,,,,,,,,,091708,001,2024-11-28_15h38.20.509,Test,2024.2.4,None,2024-11-28 15h38.41.229134 +0100,
1,150,0,20,None,36,36,0,False,right,0.757207999995444,None,,,,,,,,0,36,36,36,,,,,,,,,290.2673270839732,,,,,,,,,,,,,,,,,,,,,,,,,,,,,,,,,,,,,,290.260952541983,290.2673270839732,291.26594120898517,292.24952487499104,292.24952487499104,292.24952487499104,293.01878866698826,right,0.757207999995444,None,,,,,,,,,,,,,,,,,,,,,,,,,,,,,,,,,,,,,,,,,,,091708,001,2024-11-28_15h38.20.509,Test,2024.2.4,None,2024-11-28 15h38.41.229134 +0100,
49,150,60,7,None,37,37,0,True,left,1.533326542004943,None,,,,,,,,0,37,37,37,,,,,,,,,293.0345605839975,,,,,,,,,,,,,,,,,,,,,,,,,,,,,,,,,,,,,,293.0278199589811,293.0345605839975,294.0327509169874,295.0161531669728,295.0161531669728,295.0161531669728,296.55178791697836,left,1.533326542004943,None,,,,,,,,,,,,,,,,,,,,,,,,,,,,,,,,,,,,,,,,,,,091708,001,2024-11-28_15h38.20.509,Test,2024.2.4,None,2024-11-28 15h38.41.229134 +0100,
24,150,120,45,None,38,38,0,False,left,1.4841967909887899,None,,,,,,,,0,38,38,38,,,,,,,,,296.56739599999855,,,,,,,,,,,,,,,,,,,,,,,,,,,,,,,,,,,,,,296.56075254199095,296.56739599999855,297.5660308749939,298.5494042089849,298.5494042089849,298.5494042089849,300.0450454169768,left,1.4841967909887899,None,,,,,,,,,,,,,,,,,,,,,,,,,,,,,,,,,,,,,,,,,,,091708,001,2024-11-28_15h38.20.509,Test,2024.2.4,None,2024-11-28 15h38.41.229134 +0100,
47,150,60,9,None,39,39,0,True,right,1.6426067499851342,None,,,,,,,,0,39,39,39,,,,,,,,,300.0565518749936,,,,,,,,,,,,,,,,,,,,,,,,,,,,,,,,,,,,,,300.0520174589765,300.0565518749936,301.0544522089767,302.04041383398,302.04041383398,302.04041383398,303.6855693749967,right,1.6426067499851342,None,,,,,,,,,,,,,,,,,,,,,,,,,,,,,,,,,,,,,,,,,,,091708,001,2024-11-28_15h38.20.509,Test,2024.2.4,None,2024-11-28 15h38.41.229134 +0100,
6,150,30,61,None,40,40,0,False,right,0.7939499159983825,None,,,,,,,,0,40,40,40,,,,,,,,,303.70101383398287,,,,,,,,,,,,,,,,,,,,,,,,,,,,,,,,,,,,,,303.6945356669894,303.70101383398287,304.69924837499275,305.68284991697874,305.68284991697874,305.68284991697874,306.4847444999905,right,0.7939499159983825,None,,,,,,,,,,,,,,,,,,,,,,,,,,,,,,,,,,,,,,,,,,,091708,001,2024-11-28_15h38.20.509,Test,2024.2.4,None,2024-11-28 15h38.41.229134 +0100,
18,150,90,6,None,41,41,0,False,left,1.0399422079790384,None,,,,,,,,0,41,41,41,,,,,,,,,306.4999146249902,,,,,,,,,,,,,,,,,,,,,,,,,,,,,,,,,,,,,,306.4933550839778,306.4999146249902,307.4871999169991,308.48294433398405,308.48294433398405,308.48294433398405,309.5252774999826,left,1.0399422079790384,None,,,,,,,,,,,,,,,,,,,,,,,,,,,,,,,,,,,,,,,,,,,091708,001,2024-11-28_15h38.20.509,Test,2024.2.4,None,2024-11-28 15h38.41.229134 +0100,
26,150,150,15,None,42,42,0,False,right,1.842211208975641,None,,,,,,,,0,42,42,42,,,,,,,,,309.53862170898356,,,,,,,,,,,,,,,,,,,,,,,,,,,,,,,,,,,,,,309.53296387498267,309.53862170898356,310.53287649998674,311.5242527499795,311.5242527499795,311.5242527499795,313.3696622089774,right,1.842211208975641,None,,,,,,,,,,,,,,,,,,,,,,,,,,,,,,,,,,,,,,,,,,,091708,001,2024-11-28_15h38.20.509,Test,2024.2.4,None,2024-11-28 15h38.41.229134 +0100,
53,150,90,43,None,43,43,0,True,left,0.9513667910068762,None,,,,,,,,0,43,43,43,,,,,,,,,313.38507720897906,,,,,,,,,,,,,,,,,,,,,,,,,,,,,,,,,,,,,,313.37848362498335,313.38507720897906,314.3828610419878,315.3662046669924,315.3662046669924,315.3662046669924,316.3248432089749,left,0.9513667910068762,None,,,,,,,,,,,,,,,,,,,,,,,,,,,,,,,,,,,,,,,,,,,091708,001,2024-11-28_15h38.20.509,Test,2024.2.4,None,2024-11-28 15h38.41.229134 +0100,
54,150,90,22,None,44,44,0,True,left,1.325500542006921,None,,,,,,,,0,44,44,44,,,,,,,,,316.3391306249832,,,,,,,,,,,,,,,,,,,,,,,,,,,,,,,,,,,,,,316.33319274999667,316.3391306249832,317.33713741699466,318.3240692499967,318.3240692499967,318.3240692499967,319.6520307499741,left,1.325500542006921,None,,,,,,,,,,,,,,,,,,,,,,,,,,,,,,,,,,,,,,,,,,,091708,001,2024-11-28_15h38.20.509,Test,2024.2.4,None,2024-11-28 15h38.41.229134 +0100,
7,150,30,44,None,45,45,0,False,right,0.7102868329966441,None,,,,,,,,0,45,45,45,,,,,,,,,319.6667110839917,,,,,,,,,,,,,,,,,,,,,,,,,,,,,,,,,,,,,,319.66036704197177,319.6667110839917,320.65424445897224,321.64950829197187,321.64950829197187,321.64950829197187,322.3681456249906,right,0.7102868329966441,None,,,,,,,,,,,,,,,,,,,,,,,,,,,,,,,,,,,,,,,,,,,091708,001,2024-11-28_15h38.20.509,Test,2024.2.4,None,2024-11-28 15h38.41.229134 +0100,
62,150,150,35,None,46,46,0,True,left,0.7603230420209002,None,,,,,,,,0,46,46,46,,,,,,,,,322.38353237498086,,,,,,,,,,,,,,,,,,,,,,,,,,,,,,,,,,,,,,322.3769435839786,322.38353237498086,323.3708139999944,324.3659830839897,324.3659830839897,324.3659830839897,325.13468541699694,left,0.7603230420209002,None,,,,,,,,,,,,,,,,,,,,,,,,,,,,,,,,,,,,,,,,,,,091708,001,2024-11-28_15h38.20.509,Test,2024.2.4,None,2024-11-28 15h38.41.229134 +0100,
56,150,120,13,None,47,47,0,True,left,1.1181286250066478,None,,,,,,,,0,47,47,47,,,,,,,,,325.14926033397205,,,,,,,,,,,,,,,,,,,,,,,,,,,,,,,,,,,,,,325.1427224169893,325.14926033397205,326.1373572089942,327.13263870897936,327.13263870897936,327.13263870897936,328.25762783398386,left,1.1181286250066478,None,,,,,,,,,,,,,,,,,,,,,,,,,,,,,,,,,,,,,,,,,,,091708,001,2024-11-28_15h38.20.509,Test,2024.2.4,None,2024-11-28 15h38.41.229134 +0100,
15,150,60,19,None,48,48,0,False,right,1.0704329170112032,None,,,,,,,,0,48,48,48,,,,,,,,,328.27241991698975,,,,,,,,,,,,,,,,,,,,,,,,,,,,,,,,,,,,,,328.2661398339842,328.27241991698975,329.26608174998546,330.25699929197435,330.25699929197435,330.25699929197435,331.3349867090001,right,1.0704329170112032,None,,,,,,,,,,,,,,,,,,,,,,,,,,,,,,,,,,,,,,,,,,,091708,001,2024-11-28_15h38.20.509,Test,2024.2.4,None,2024-11-28 15h38.41.229134 +0100,
46,150,60,38,None,49,49,0,True,right,1.403865416010376,None,,,,,,,,0,49,49,49,,,,,,,,,331.3499259169912,,,,,,,,,,,,,,,,,,,,,,,,,,,,,,,,,,,,,,331.34380591698573,331.3499259169912,332.33718358399346,333.3328951249714,333.3328951249714,333.3328951249714,334.74094545899425,right,1.403865416010376,None,,,,,,,,,,,,,,,,,,,,,,,,,,,,,,,,,,,,,,,,,,,091708,001,2024-11-28_15h38.20.509,Test,2024.2.4,None,2024-11-28 15h38.41.229134 +0100,
59,150,120,51,None,50,50,0,True,right,1.0443133329972625,None,,,,,,,,0,50,50,50,,,,,,,,,334.7542055839731,,,,,,,,,,,,,,,,,,,,,,,,,,,,,,,,,,,,,,334.74850024998887,334.7542055839731,335.7493914999941,336.739655124984,336.739655124984,336.739655124984,337.7913370419992,right,1.0443133329972625,None,,,,,,,,,,,,,,,,,,,,,,,,,,,,,,,,,,,,,,,,,,,091708,001,2024-11-28_15h38.20.509,Test,2024.2.4,None,2024-11-28 15h38.41.229134 +0100,
58,150,120,47,None,51,51,0,True,right,1.777207292005187,None,,,,,,,,0,51,51,51,,,,,,,,,337.80696116699255,,,,,,,,,,,,,,,,,,,,,,,,,,,,,,,,,,,,,,337.80054149997886,337.80696116699255,338.8042279169895,339.78959349999786,339.78959349999786,339.78959349999786,341.57694491697475,right,1.777207292005187,None,,,,,,,,,,,,,,,,,,,,,,,,,,,,,,,,,,,,,,,,,,,091708,001,2024-11-28_15h38.20.509,Test,2024.2.4,None,2024-11-28 15h38.41.229134 +0100,
12,150,60,40,None,52,52,0,False,left,1.4334324579976965,None,,,,,,,,0,52,52,52,,,,,,,,,341.58833016699646,,,,,,,,,,,,,,,,,,,,,,,,,,,,,,,,,,,,,,341.5838295419817,341.58833016699646,342.5827094169799,343.5741154589923,343.5741154589923,343.5741154589923,345.01812549997703,left,1.4334324579976965,None,,,,,,,,,,,,,,,,,,,,,,,,,,,,,,,,,,,,,,,,,,,091708,001,2024-11-28_15h38.20.509,Test,2024.2.4,None,2024-11-28 15h38.41.229134 +0100,
34,150,180,12,None,53,53,0,False,left,1.3779484590049833,None,,,,,,,,0,53,53,53,,,,,,,,,345.0335719169816,,,,,,,,,,,,,,,,,,,,,,,,,,,,,,,,,,,,,,345.02668508398347,345.0335719169816,346.02129020899883,347.0160327089834,347.0160327089834,347.0160327089834,348.4016063749732,left,1.3779484590049833,None,,,,,,,,,,,,,,,,,,,,,,,,,,,,,,,,,,,,,,,,,,,091708,001,2024-11-28_15h38.20.509,Test,2024.2.4,None,2024-11-28 15h38.41.229134 +0100,
41,150,30,56,None,54,54,0,True,left,1.6617894999799319,None,,,,,,,,0,54,54,54,,,,,,,,,348.41589020899846,,,,,,,,,,,,,,,,,,,,,,,,,,,,,,,,,,,,,,348.4098815420002,348.41589020899846,349.4038354169752,350.3995537919982,350.3995537919982,350.3995537919982,352.0681721669971,left,1.6617894999799319,None,,,,,,,,,,,,,,,,,,,,,,,,,,,,,,,,,,,,,,,,,,,091708,001,2024-11-28_15h38.20.509,Test,2024.2.4,None,2024-11-28 15h38.41.229134 +0100,
23,150,120,49,None,55,55,0,False,right,5.021460791991558,None,,,,,,,,0,55,55,55,,,,,,,,,352.08316991699394,,,,,,,,,,,,,,,,,,,,,,,,,,,,,,,,,,,,,,352.07699908397626,352.08316991699394,353.07083904198953,354.0661232919956,354.0661232919956,354.0661232919956,359.0906012499763,right,5.021460791991558,None,357.05472529199324,357.05472529199324,357.06490204198053,,,,,,,,,,,,,,,,,,,,,,,,,,,,,,,,,,,,,,,,091708,001,2024-11-28_15h38.20.509,Test,2024.2.4,None,2024-11-28 15h38.41.229134 +0100,
3,150,0,64,None,56,56,0,False,right,1.0038047090056352,None,,,,,,,,0,56,56,56,,,,,,,,,359.1040007089905,,,,,,,,,,,,,,,,,,,,,,,,,,,,,,,,,,,,,,359.09831274999306,359.1040007089905,360.0994449169957,361.08989779197145,361.08989779197145,361.08989779197145,362.1016701249755,right,1.0038047090056352,None,,,,,,,,,,,,,,,,,,,,,,,,,,,,,,,,,,,,,,,,,,,091708,001,2024-11-28_15h38.20.509,Test,2024.2.4,None,2024-11-28 15h38.41.229134 +0100,
43,150,30,29,None,57,57,0,True,right,0.9855533750087488,None,,,,,,,,0,57,57,57,,,,,,,,,362.1177025839861,,,,,,,,,,,,,,,,,,,,,,,,,,,,,,,,,,,,,,362.1107611669868,362.1177025839861,363.1161784999713,364.09952004198567,364.09952004198567,364.09952004198567,365.0908582919801,right,0.9855533750087488,None,,,,,,,,,,,,,,,,,,,,,,,,,,,,,,,,,,,,,,,,,,,091708,001,2024-11-28_15h38.20.509,Test,2024.2.4,None,2024-11-28 15h38.41.229134 +0100,
22,150,120,28,None,58,58,0,False,left,1.7480122910055798,None,,,,,,,,0,58,58,58,,,,,,,,,365.1055038339982,,,,,,,,,,,,,,,,,,,,,,,,,,,,,,,,,,,,,,365.09936787499464,365.1055038339982,366.0994119999814,367.0899409999838,367.0899409999838,367.0899409999838,368.8414009169792,left,1.7480122910055798,None,,,,,,,,,,,,,,,,,,,,,,,,,,,,,,,,,,,,,,,,,,,091708,001,2024-11-28_15h38.20.509,Test,2024.2.4,None,2024-11-28 15h38.41.229134 +0100,
52,150,90,57,None,59,59,0,True,left,1.3628496660094243,None,,,,,,,,0,59,59,59,,,,,,,,,368.8563199589844,,,,,,,,,,,,,,,,,,,,,,,,,,,,,,,,,,,,,,368.8502930839895,368.8563199589844,369.854600791994,370.84005112497834,370.84005112497834,370.84005112497834,372.20794066699455,left,1.3628496660094243,None,,,,,,,,,,,,,,,,,,,,,,,,,,,,,,,,,,,,,,,,,,,091708,001,2024-11-28_15h38.20.509,Test,2024.2.4,None,2024-11-28 15h38.41.229134 +0100,
55,150,90,66,None,60,60,0,True,right,0.7101119169965386,None,,,,,,,,0,60,60,60,,,,,,,,,372.2222777089919,,,,,,,,,,,,,,,,,,,,,,,,,,,,,,,,,,,,,,372.21635537498514,372.2222777089919,373.21598508398165,374.207214583992,374.207214583992,374.207214583992,374.924074333976,right,0.7101119169965386,None,,,,,,,,,,,,,,,,,,,,,,,,,,,,,,,,,,,,,,,,,,,091708,001,2024-11-28_15h38.20.509,Test,2024.2.4,None,2024-11-28 15h38.41.229134 +0100,
21,150,120,46,None,61,61,0,False,right,1.1439920829725452,None,,,,,,,,0,61,61,61,,,,,,,,,374.93858187497244,,,,,,,,,,,,,,,,,,,,,,,,,,,,,,,,,,,,,,374.9321445839887,374.93858187497244,375.9327308339998,376.92374629198457,376.92374629198457,376.92374629198457,378.07489962497493,right,1.1439920829725452,None,,,,,,,,,,,,,,,,,,,,,,,,,,,,,,,,,,,,,,,,,,,091708,001,2024-11-28_15h38.20.509,Test,2024.2.4,None,2024-11-28 15h38.41.229134 +0100,
65,150,150,41,None,62,62,0,True,left,0.8811980829923414,None,,,,,,,,0,62,62,62,,,,,,,,,378.09028766697156,,,,,,,,,,,,,,,,,,,,,,,,,,,,,,,,,,,,,,378.08404154199525,378.09028766697156,379.088154416997,380.07228720898274,380.07228720898274,380.07228720898274,380.9583833339857,left,0.8811980829923414,None,,,,,,,,,,,,,,,,,,,,,,,,,,,,,,,,,,,,,,,,,,,091708,001,2024-11-28_15h38.20.509,Test,2024.2.4,None,2024-11-28 15h38.41.229134 +0100,
5,150,0,50,None,63,63,0,False,right,1.9973733749939129,None,,,,,,,,0,63,63,63,,,,,,,,,380.9729011669988,,,,,,,,,,,,,,,,,,,,,,,,,,,,,,,,,,,,,,380.9669516669819,380.9729011669988,381.97133616698557,382.95665387497866,382.95665387497866,382.95665387497866,384.9579840839724,right,1.9973733749939129,None,,,,,,,,,,,,,,,,,,,,,,,,,,,,,,,,,,,,,,,,,,,091708,001,2024-11-28_15h38.20.509,Test,2024.2.4,None,2024-11-28 15h38.41.229134 +0100,
61,150,150,1,None,64,64,0,True,left,1.4930470410035923,None,,,,,,,,0,64,64,64,,,,,,,,,384.9729913339834,,,,,,,,,,,,,,,,,,,,,,,,,,,,,,,,,,,,,,384.96672637498705,384.9729913339834,385.9661298339779,386.9575783749751,386.9575783749751,386.9575783749751,388.4572094589821,left,1.4930470410035923,None,,,,,,,,,,,,,,,,,,,,,,,,,,,,,,,,,,,,,,,,,,,091708,001,2024-11-28_15h38.20.509,Test,2024.2.4,None,2024-11-28 15h38.41.229134 +0100,
35,150,180,3,None,65,65,0,False,right,0.8264628750039265,None,,,,,,,,0,65,65,65,,,,,,,,,388.4709463749896,,,,,,,,,,,,,,,,,,,,,,,,,,,,,,,,,,,,,,388.46416887498344,388.4709463749896,389.4659761249786,390.4565373749938,390.4565373749938,390.4565373749938,391.2856877919985,right,0.8264628750039265,None,,,,,,,,,,,,,,,,,,,,,,,,,,,,,,,,,,,,,,,,,,,091708,001,2024-11-28_15h38.20.509,Test,2024.2.4,None,2024-11-28 15h38.41.229134 +0100,
4,150,0,8,None,66,66,0,False,right,1.2014868329861201,None,,,,,,,,0,66,66,66,,,,,,,,,391.3007608339831,,,,,,,,,,,,,,,,,,,,,,,,,,,,,,,,,,,,,,391.2946899169765,391.3007608339831,392.29932958399877,393.2828858339926,393.2828858339926,393.2828858339926,394.49158270898624,right,1.2014868329861201,None,,,,,,,,,,,,,,,,,,,,,,,,,,,,,,,,,,,,,,,,,,,091708,001,2024-11-28_15h38.20.509,Test,2024.2.4,None,2024-11-28 15h38.41.229134 +0100,
20,150,90,39,None,67,67,0,False,right,0.8635514159977902,None,,,,,,,,0,67,67,67,,,,,,,,,394.5068201669783,,,,,,,,,,,,,,,,,,,,,,,,,,,,,,,,,,,,,,394.5005866669817,394.5068201669783,395.5045176249987,396.4907587089983,396.4907587089983,396.4907587089983,397.3577232499956,right,0.8635514159977902,None,,,,,,,,,,,,,,,,,,,,,,,,,,,,,,,,,,,,,,,,,,,091708,001,2024-11-28_15h38.20.509,Test,2024.2.4,None,2024-11-28 15h38.41.229134 +0100,
64,150,150,60,None,68,68,0,True,right,1.2707902920083143,None,,,,,,,,0,68,68,68,,,,,,,,,397.37383324999246,,,,,,,,,,,,,,,,,,,,,,,,,,,,,,,,,,,,,,397.367155083979,397.37383324999246,398.3711648339813,399.357106749987,399.357106749987,399.357106749987,400.6347216249851,right,1.2707902920083143,None,,,,,,,,,,,,,,,,,,,,,,,,,,,,,,,,,,,,,,,,,,,091708,001,2024-11-28_15h38.20.509,Test,2024.2.4,None,2024-11-28 15h38.41.229134 +0100,
31,150,180,65,None,69,69,0,False,left,1.8002529579971451,None,,,,,,,,0,69,69,69,,,,,,,,,400.6501412499929,,,,,,,,,,,,,,,,,,,,,,,,,,,,,,,,,,,,,,400.6438172919734,400.6501412499929,401.6379786669859,402.6328548749734,402.6328548749734,402.6328548749734,404.4358509169833,left,1.8002529579971451,None,,,,,,,,,,,,,,,,,,,,,,,,,,,,,,,,,,,,,,,,,,,091708,001,2024-11-28_15h38.20.509,Test,2024.2.4,None,2024-11-28 15h38.41.229134 +0100,
,,,,,,,,,,,,,,,,,,,,,,,,,,,,,,,,,,,,,,,,,,,,,,,,,,,,,,,,,,,,,,,,,,,,,,,,,,,,,,,,,,404.4362486669852,404.4463178339938,404.4463178339938,408.83430904199486,space,4.381746166996891,None,,,,,,,,,,,,,,,,,,,,,,,,,,,,,,,,,091708,001,2024-11-28_15h38.20.509,Test,2024.2.4,None,2024-11-28 15h38.41.229134 +0100,
34,150,180,12,None,0,0,0,,,,,,,,,,,,,,,,0,0,0,33,,,,,408.8564849169925,,,,,,,,,,,,,,,,,,,,,,,,,,,,,,,,,,,,,,,,,,,,,,,,,,,,,,,,,,408.84808270898066,408.8564849169925,409.0328134589945,409.0328134589945,409.04946479198406,410.7312815419864,410.7312815419864,410.7173896669992,,,,,,,,,,,,,,,,,,,,,,,,,091708,001,2024-11-28_15h38.20.509,Test,2024.2.4,None,2024-11-28 15h38.41.229134 +0100,
16,150,90,14,None,1,1,0,,,,,,,,,,,,,,,,0,1,1,15,,,,,410.7312815419864,,,,,,,,,,,,,,,,,,,,,,,,,,,,,,,,,,,,,,,,,,,,,,,,,,,,,,,,,,410.72615729199606,410.7361109999765,410.9327733749815,410.9327733749815,410.9327733749815,412.63084641698515,412.63084641698515,412.61702924998826,,,,,,,,,,,,,,,,,,,,,,,,,091708,001,2024-11-28_15h38.20.509,Test,2024.2.4,None,2024-11-28 15h38.41.229134 +0100,
12,150,60,40,None,2,2,0,,,,,,,,,,,,,,,,0,2,2,11,,,,,412.63084641698515,,,,,,,,,,,,,,,,,,,,,,,,,,,,,,,,,,,,,,,,,,,,,,,,,,,,,,,,,,412.62569683397305,412.6346715419786,412.8328270839993,412.8328270839993,412.8328270839993,414.53092041698983,414.53092041698983,414.5169239999959,,,,,,,,,,,,,,,,,,,,,,,,,091708,001,2024-11-28_15h38.20.509,Test,2024.2.4,None,2024-11-28 15h38.41.229134 +0100,
22,150,120,28,None,3,3,0,,,,,,,,,,,,,,,,0,3,3,21,,,,,414.53092041698983,,,,,,,,,,,,,,,,,,,,,,,,,,,,,,,,,,,,,,,,,,,,,,,,,,,,,,,,,,414.5259040839737,414.5357031249732,414.7327309589891,414.7327309589891,414.7327309589891,416.43004208398634,416.43004208398634,416.41682029198273,,,,,,,,,,,,,,,,,,,,,,,,,091708,001,2024-11-28_15h38.20.509,Test,2024.2.4,None,2024-11-28 15h38.41.229134 +0100,
23,150,120,49,None,4,4,0,,,,,,,,,,,,,,,,0,4,4,22,,,,,416.43004208398634,,,,,,,,,,,,,,,,,,,,,,,,,,,,,,,,,,,,,,,,,,,,,,,,,,,,,,,,,,416.42517483397387,416.4350832499913,416.6327074999863,416.6327074999863,416.6327074999863,418.32992170899524,418.32992170899524,418.31690908398014,,,,,,,,,,,,,,,,,,,,,,,,,091708,001,2024-11-28_15h38.20.509,Test,2024.2.4,None,2024-11-28 15h38.41.229134 +0100,
2,150,0,34,None,5,5,0,,,,,,,,,,,,,,,,0,5,5,1,,,,,418.32992170899524,,,,,,,,,,,,,,,,,,,,,,,,,,,,,,,,,,,,,,,,,,,,,,,,,,,,,,,,,,418.3250953749812,418.3349761249847,418.5328321669949,418.5328321669949,418.5328321669949,420.23095179197844,420.23095179197844,420.21695662499405,,,,,,,,,,,,,,,,,,,,,,,,,091708,001,2024-11-28_15h38.20.509,Test,2024.2.4,None,2024-11-28 15h38.41.229134 +0100,
30,150,150,27,None,6,6,0,,,,,,,,,,,,,,,,0,6,6,29,,,,,420.23095179197844,,,,,,,,,,,,,,,,,,,,,,,,,,,,,,,,,,,,,,,,,,,,,,,,,,,,,,,,,,420.2260137089761,420.2357113339822,420.432933708973,420.432933708973,420.432933708973,422.1300772089744,422.1300772089744,422.1170027089829,,,,,,,,,,,,,,,,,,,,,,,,,091708,001,2024-11-28_15h38.20.509,Test,2024.2.4,None,2024-11-28 15h38.41.229134 +0100,
19,150,90,69,None,7,7,0,,,,,,,,,,,,,,,,0,7,7,18,,,,,422.1300772089744,,,,,,,,,,,,,,,,,,,,,,,,,,,,,,,,,,,,,,,,,,,,,,,,,,,,,,,,,,422.1251494999742,422.1341609999945,422.3329091249907,422.3329091249907,422.3329091249907,424.03061258399975,424.03061258399975,424.01700291698216,,,,,,,,,,,,,,,,,,,,,,,,,091708,001,2024-11-28_15h38.20.509,Test,2024.2.4,None,2024-11-28 15h38.41.229134 +0100,
8,150,30,53,None,8,8,0,,,,,,,,,,,,,,,,0,8,8,7,,,,,424.03061258399975,,,,,,,,,,,,,,,,,,,,,,,,,,,,,,,,,,,,,,,,,,,,,,,,,,,,,,,,,,424.02567820900003,424.03476283399505,424.2327265419881,424.2327265419881,424.2327265419881,425.9303528749733,425.9303528749733,425.916756333987,,,,,,,,,,,,,,,,,,,,,,,,,091708,001,2024-11-28_15h38.20.509,Test,2024.2.4,None,2024-11-28 15h38.41.229134 +0100,
6,150,30,61,None,9,9,0,,,,,,,,,,,,,,,,0,9,9,5,,,,,425.9303528749733,,,,,,,,,,,,,,,,,,,,,,,,,,,,,,,,,,,,,,,,,,,,,,,,,,,,,,,,,,425.9252997499716,425.93424291699193,426.13279445897206,426.13279445897206,426.13279445897206,427.830165249994,427.830165249994,427.81709437497193,,,,,,,,,,,,,,,,,,,,,,,,,091708,001,2024-11-28_15h38.20.509,Test,2024.2.4,None,2024-11-28 15h38.41.229134 +0100,
31,150,180,65,None,10,10,0,,,,,,,,,,,,,,,,0,10,10,30,,,,,427.830165249994,,,,,,,,,,,,,,,,,,,,,,,,,,,,,,,,,,,,,,,,,,,,,,,,,,,,,,,,,,427.82536970899673,427.83501787498244,428.032854124991,428.032854124991,428.032854124991,429.7295354589878,429.7295354589878,429.716820333997,,,,,,,,,,,,,,,,,,,,,,,,,091708,001,2024-11-28_15h38.20.509,Test,2024.2.4,None,2024-11-28 15h38.41.229134 +0100,
18,150,90,6,None,11,11,0,,,,,,,,,,,,,,,,0,11,11,17,,,,,429.7295354589878,,,,,,,,,,,,,,,,,,,,,,,,,,,,,,,,,,,,,,,,,,,,,,,,,,,,,,,,,,429.724671791977,429.7338238339871,429.9327342089964,429.9327342089964,429.9327342089964,431.6305056249839,431.6305056249839,431.61710558398045,,,,,,,,,,,,,,,,,,,,,,,,,091708,001,2024-11-28_15h38.20.509,Test,2024.2.4,None,2024-11-28 15h38.41.229134 +0100,
1,150,0,20,None,12,12,0,,,,,,,,,,,,,,,,0,12,12,0,,,,,431.6305056249839,,,,,,,,,,,,,,,,,,,,,,,,,,,,,,,,,,,,,,,,,,,,,,,,,,,,,,,,,,431.62561045898474,431.635569541977,431.83286691698595,431.83286691698595,431.83286691698595,433.53067370899953,433.53067370899953,433.5173649999779,,,,,,,,,,,,,,,,,,,,,,,,,091708,001,2024-11-28_15h38.20.509,Test,2024.2.4,None,2024-11-28 15h38.41.229134 +0100,
25,150,120,52,None,13,13,0,,,,,,,,,,,,,,,,0,13,13,24,,,,,433.53067370899953,,,,,,,,,,,,,,,,,,,,,,,,,,,,,,,,,,,,,,,,,,,,,,,,,,,,,,,,,,433.5257409589831,433.5355361249822,433.7329925419763,433.7329925419763,433.7329925419763,435.4297557089885,435.4297557089885,435.4169813749904,,,,,,,,,,,,,,,,,,,,,,,,,091708,001,2024-11-28_15h38.20.509,Test,2024.2.4,None,2024-11-28 15h38.41.229134 +0100,
10,150,30,36,None,14,14,0,,,,,,,,,,,,,,,,0,14,14,9,,,,,435.4297557089885,,,,,,,,,,,,,,,,,,,,,,,,,,,,,,,,,,,,,,,,,,,,,,,,,,,,,,,,,,435.4248694999842,435.434848874982,435.6330441249884,435.6330441249884,435.6330441249884,437.33058874998824,437.33058874998824,437.3171264999837,,,,,,,,,,,,,,,,,,,,,,,,,091708,001,2024-11-28_15h38.20.509,Test,2024.2.4,None,2024-11-28 15h38.41.229134 +0100,
4,150,0,8,None,15,15,0,,,,,,,,,,,,,,,,0,15,15,3,,,,,437.33058874998824,,,,,,,,,,,,,,,,,,,,,,,,,,,,,,,,,,,,,,,,,,,,,,,,,,,,,,,,,,437.32548845899873,437.33532091698726,437.53284537498257,437.53284537498257,437.53284537498257,439.23110704199644,439.23110704199644,439.21695754199754,,,,,,,,,,,,,,,,,,,,,,,,,091708,001,2024-11-28_15h38.20.509,Test,2024.2.4,None,2024-11-28 15h38.41.229134 +0100,
33,150,180,37,None,16,16,0,,,,,,,,,,,,,,,,0,16,16,32,,,,,439.23110704199644,,,,,,,,,,,,,,,,,,,,,,,,,,,,,,,,,,,,,,,,,,,,,,,,,,,,,,,,,,439.2260096249811,439.2362555839936,439.43295466699055,439.43295466699055,439.43295466699055,441.1292990419897,441.1292990419897,441.11682095899596,,,,,,,,,,,,,,,,,,,,,,,,,091708,001,2024-11-28_15h38.20.509,Test,2024.2.4,None,2024-11-28 15h38.41.229134 +0100,
3,150,0,64,None,17,17,0,,,,,,,,,,,,,,,,0,17,17,2,,,,,441.1292990419897,,,,,,,,,,,,,,,,,,,,,,,,,,,,,,,,,,,,,,,,,,,,,,,,,,,,,,,,,,441.1245867499965,441.1335419169918,441.33280354199815,441.33280354199815,441.32054474999313,443.0311834169843,443.0311834169843,443.0171723339881,,,,,,,,,,,,,,,,,,,,,,,,,091708,001,2024-11-28_15h38.20.509,Test,2024.2.4,None,2024-11-28 15h38.41.229134 +0100,
11,150,60,32,None,18,18,0,,,,,,,,,,,,,,,,0,18,18,10,,,,,443.0311834169843,,,,,,,,,,,,,,,,,,,,,,,,,,,,,,,,,,,,,,,,,,,,,,,,,,,,,,,,,,443.0260298339999,443.03637404198525,443.23282070897403,443.23282070897403,443.23282070897403,444.9299622089893,444.9299622089893,444.9169774589827,,,,,,,,,,,,,,,,,,,,,,,,,091708,001,2024-11-28_15h38.20.509,Test,2024.2.4,None,2024-11-28 15h38.41.229134 +0100,
17,150,90,54,None,19,19,0,,,,,,,,,,,,,,,,0,19,19,16,,,,,444.9299622089893,,,,,,,,,,,,,,,,,,,,,,,,,,,,,,,,,,,,,,,,,,,,,,,,,,,,,,,,,,444.925097083993,444.9350503339956,445.13275624997914,445.13275624997914,445.13275624997914,446.8316614999785,446.8316614999785,446.81767695897724,,,,,,,,,,,,,,,,,,,,,,,,,091708,001,2024-11-28_15h38.20.509,Test,2024.2.4,None,2024-11-28 15h38.41.229134 +0100,
14,150,60,26,None,20,20,0,,,,,,,,,,,,,,,,0,20,20,13,,,,,446.8316614999785,,,,,,,,,,,,,,,,,,,,,,,,,,,,,,,,,,,,,,,,,,,,,,,,,,,,,,,,,,446.82674662498175,446.8362903749803,447.0327523339947,447.0327523339947,447.0327523339947,448.73089791697566,448.73089791697566,448.716905749985,,,,,,,,,,,,,,,,,,,,,,,,,091708,001,2024-11-28_15h38.20.509,Test,2024.2.4,None,2024-11-28 15h38.41.229134 +0100,
24,150,120,45,None,21,21,0,,,,,,,,,,,,,,,,0,21,21,23,,,,,448.73089791697566,,,,,,,,,,,,,,,,,,,,,,,,,,,,,,,,,,,,,,,,,,,,,,,,,,,,,,,,,,448.72602954198373,448.7347935839789,448.93271212498075,448.93271212498075,448.93271212498075,450.6303682089783,450.6303682089783,450.6168472089921,,,,,,,,,,,,,,,,,,,,,,,,,091708,001,2024-11-28_15h38.20.509,Test,2024.2.4,None,2024-11-28 15h38.41.229134 +0100,
35,150,180,3,None,22,22,0,,,,,,,,,,,,,,,,0,22,22,34,,,,,450.6303682089783,,,,,,,,,,,,,,,,,,,,,,,,,,,,,,,,,,,,,,,,,,,,,,,,,,,,,,,,,,450.6252125839819,450.6343447089894,450.8328299589921,450.8328299589921,450.8328299589921,452.5350604999985,452.5350604999985,452.5172521669883,,,,,,,,,,,,,,,,,,,,,,,,,091708,001,2024-11-28_15h38.20.509,Test,2024.2.4,None,2024-11-28 15h38.41.229134 +0100,
9,150,30,62,None,23,23,0,,,,,,,,,,,,,,,,0,23,23,8,,,,,452.5350604999985,,,,,,,,,,,,,,,,,,,,,,,,,,,,,,,,,,,,,,,,,,,,,,,,,,,,,,,,,,452.5305873749894,452.5493217499752,452.73130299997865,452.73130299997865,452.74945545897936,454.4314187919954,454.4314187919954,454.4168329589884,,,,,,,,,,,,,,,,,,,,,,,,,091708,001,2024-11-28_15h38.20.509,Test,2024.2.4,None,2024-11-28 15h38.41.229134 +0100,
29,150,150,10,None,24,24,0,,,,,,,,,,,,,,,,0,24,24,28,,,,,454.4314187919954,,,,,,,,,,,,,,,,,,,,,,,,,,,,,,,,,,,,,,,,,,,,,,,,,,,,,,,,,,454.4265077499731,454.43586112497724,454.6330177919881,454.6330177919881,454.6330177919881,456.3295361669734,456.3295361669734,456.31717758398736,,,,,,,,,,,,,,,,,,,,,,,,,091708,001,2024-11-28_15h38.20.509,Test,2024.2.4,None,2024-11-28 15h38.41.229134 +0100,
26,150,150,15,None,25,25,0,,,,,,,,,,,,,,,,0,25,25,25,,,,,456.3295361669734,,,,,,,,,,,,,,,,,,,,,,,,,,,,,,,,,,,,,,,,,,,,,,,,,,,,,,,,,,456.3246798339824,456.333797624975,456.53283416698105,456.53283416698105,456.53283416698105,458.230214124982,458.230214124982,458.21697208398837,,,,,,,,,,,,,,,,,,,,,,,,,091708,001,2024-11-28_15h38.20.509,Test,2024.2.4,None,2024-11-28 15h38.41.229134 +0100,
21,150,120,46,None,26,26,0,,,,,,,,,,,,,,,,0,26,26,20,,,,,458.230214124982,,,,,,,,,,,,,,,,,,,,,,,,,,,,,,,,,,,,,,,,,,,,,,,,,,,,,,,,,,458.22517245897325,458.235144708975,458.4327092919848,458.4327092919848,458.4327092919848,460.1305142499914,460.1305142499914,460.11699695899733,,,,,,,,,,,,,,,,,,,,,,,,,091708,001,2024-11-28_15h38.20.509,Test,2024.2.4,None,2024-11-28 15h38.41.229134 +0100,
15,150,60,19,None,27,27,0,,,,,,,,,,,,,,,,0,27,27,14,,,,,460.1305142499914,,,,,,,,,,,,,,,,,,,,,,,,,,,,,,,,,,,,,,,,,,,,,,,,,,,,,,,,,,460.1255817919737,460.13572416699026,460.33275737499935,460.33275737499935,460.33275737499935,462.0306695419713,462.0306695419713,462.01709983398905,,,,,,,,,,,,,,,,,,,,,,,,,091708,001,2024-11-28_15h38.20.509,Test,2024.2.4,None,2024-11-28 15h38.41.229134 +0100,
27,150,150,33,None,28,28,0,,,,,,,,,,,,,,,,0,28,28,26,,,,,462.0306695419713,,,,,,,,,,,,,,,,,,,,,,,,,,,,,,,,,,,,,,,,,,,,,,,,,,,,,,,,,,462.02565766699263,462.03547416697256,462.2324225419725,462.2324225419725,462.2324225419725,463.93026104199816,463.93026104199816,463.91725441699964,,,,,,,,,,,,,,,,,,,,,,,,,091708,001,2024-11-28_15h38.20.509,Test,2024.2.4,None,2024-11-28 15h38.41.229134 +0100,
13,150,60,25,None,29,29,0,,,,,,,,,,,,,,,,0,29,29,12,,,,,463.93026104199816,,,,,,,,,,,,,,,,,,,,,,,,,,,,,,,,,,,,,,,,,,,,,,,,,,,,,,,,,,463.92533708398696,463.9350449589838,464.13269654198666,464.13269654198666,464.13269654198666,465.83171312499326,465.83171312499326,465.8170747499971,,,,,,,,,,,,,,,,,,,,,,,,,091708,001,2024-11-28_15h38.20.509,Test,2024.2.4,None,2024-11-28 15h38.41.229134 +0100,
28,150,150,24,None,30,30,0,,,,,,,,,,,,,,,,0,30,30,27,,,,,465.83171312499326,,,,,,,,,,,,,,,,,,,,,,,,,,,,,,,,,,,,,,,,,,,,,,,,,,,,,,,,,,465.8267834589933,465.8357007499726,466.03281512498506,466.03281512498506,466.03281512498506,467.72997933399165,467.72997933399165,467.71713512498536,,,,,,,,,,,,,,,,,,,,,,,,,091708,001,2024-11-28_15h38.20.509,Test,2024.2.4,None,2024-11-28 15h38.41.229134 +0100,
5,150,0,50,None,31,31,0,,,,,,,,,,,,,,,,0,31,31,4,,,,,467.72997933399165,,,,,,,,,,,,,,,,,,,,,,,,,,,,,,,,,,,,,,,,,,,,,,,,,,,,,,,,,,467.72502862499095,467.73493087498355,467.9329714169726,467.9329714169726,467.9329714169726,469.62953945898334,469.62953945898334,469.6169110419869,,,,,,,,,,,,,,,,,,,,,,,,,091708,001,2024-11-28_15h38.20.509,Test,2024.2.4,None,2024-11-28 15h38.41.229134 +0100,
32,150,180,67,None,32,32,0,,,,,,,,,,,,,,,,0,32,32,31,,,,,469.62953945898334,,,,,,,,,,,,,,,,,,,,,,,,,,,,,,,,,,,,,,,,,,,,,,,,,,,,,,,,,,469.62476333399536,469.63419254199835,469.83294162497623,469.83294162497623,469.83294162497623,471.53078749999986,471.53078749999986,471.51702154197847,,,,,,,,,,,,,,,,,,,,,,,,,091708,001,2024-11-28_15h38.20.509,Test,2024.2.4,None,2024-11-28 15h38.41.229134 +0100,
7,150,30,44,None,33,33,0,,,,,,,,,,,,,,,,0,33,33,6,,,,,471.53078749999986,,,,,,,,,,,,,,,,,,,,,,,,,,,,,,,,,,,,,,,,,,,,,,,,,,,,,,,,,,471.5257337499934,471.5356189169979,471.7327618339914,471.7327618339914,471.7327618339914,473.4309220839932,473.4309220839932,473.4171962499968,,,,,,,,,,,,,,,,,,,,,,,,,091708,001,2024-11-28_15h38.20.509,Test,2024.2.4,None,2024-11-28 15h38.41.229134 +0100,
20,150,90,39,None,34,34,0,,,,,,,,,,,,,,,,0,34,34,19,,,,,473.4309220839932,,,,,,,,,,,,,,,,,,,,,,,,,,,,,,,,,,,,,,,,,,,,,,,,,,,,,,,,,,473.4259217919898,473.43561979199876,473.63289729197277,473.63289729197277,473.63289729197277,475.3231921249826,475.3231921249826,475.31741316698026,,,,,,,,,,,,,,,,,,,,,,,,,091708,001,2024-11-28_15h38.20.509,Test,2024.2.4,None,2024-11-28 15h38.41.229134 +0100,
,,,,,,,,,,,,,,,,,,,,,,,,,,,,,,,,,,,,,,,,,,,,,,,,,,,,,,,,,,,,,,,,,,,,,,,,,,,,,,,,,,,,,,,,,,,,,,,,,475.31773337497725,475.3316353749833,475.3316353749833,477.3008276669716,space,1.9585384590027388,None,,,,,,,,,,,,,,,,,,091708,001,2024-11-28_15h38.20.509,Test,2024.2.4,None,2024-11-28 15h38.41.229134 +0100,
50,150,60,48,None,0,0,0,True,,,,left,1.1599781250115484,None,,,,,,,,,,,,,0,0,0,0,477.41316324999207,,,,,,,,,,,,,,,,,,,,,,,,,,,,,,,,,,,,,,,,,,,,,,,,,,,,,,,,,,,,,,,,,,,,,,,,,477.407781041984,477.41316324999207,478.404739916994,479.2995477919758,479.2995477919758,479.2995477919758,480.4680808749981,left,1.1599781250115484,None,,,,,,,,091708,001,2024-11-28_15h38.20.509,Test,2024.2.4,None,2024-11-28 15h38.41.229134 +0100,
69,150,180,21,None,1,1,0,True,,,,right,0.7744171250087675,None,,,,,,,,,,,,,0,1,1,1,480.48250204199576,,,,,,,,,,,,,,,,,,,,,,,,,,,,,,,,,,,,,,,,,,,,,,,,,,,,,,,,,,,,,,,,,,,,,,,,,480.47607212499133,480.48250204199576,481.47154458399746,482.4664176669903,482.4664176669903,482.4664176669903,483.2516029999824,right,0.7744171250087675,None,,,,,,,,091708,001,2024-11-28_15h38.20.509,Test,2024.2.4,None,2024-11-28 15h38.41.229134 +0100,
39,150,0,30,None,2,2,0,True,,,,left,1.050154583004769,None,,,,,,,,,,,,,0,2,2,2,483.2661925419816,,,,,,,,,,,,,,,,,,,,,,,,,,,,,,,,,,,,,,,,,,,,,,,,,,,,,,,,,,,,,,,,,,,,,,,,,483.2600376669725,483.2661925419816,484.25401633398724,485.2494294999924,485.2494294999924,485.2494294999924,486.3027225419937,left,1.050154583004769,None,,,,,,,,091708,001,2024-11-28_15h38.20.509,Test,2024.2.4,None,2024-11-28 15h38.41.229134 +0100,
13,150,60,25,None,3,3,0,False,,,,right,0.6848532089788932,None,,,,,,,,,,,,,0,3,3,3,486.31719699999667,,,,,,,,,,,,,,,,,,,,,,,,,,,,,,,,,,,,,,,,,,,,,,,,,,,,,,,,,,,,,,,,,,,,,,,,,486.310309374996,486.31719699999667,487.31617366697174,488.2995066669828,488.2995066669828,488.2995066669828,488.991098916973,right,0.6848532089788932,None,,,,,,,,091708,001,2024-11-28_15h38.20.509,Test,2024.2.4,None,2024-11-28 15h38.41.229134 +0100,
60,150,120,18,None,4,4,0,True,,,,left,1.2562622090044897,None,,,,,,,,,,,,,0,4,4,4,489.0055829169869,,,,,,,,,,,,,,,,,,,,,,,,,,,,,,,,,,,,,,,,,,,,,,,,,,,,,,,,,,,,,,,,,,,,,,,,,488.99931741697947,489.0055829169869,489.9993436249788,490.9900280839938,490.9900280839938,490.9900280839938,492.25206016699667,left,1.2562622090044897,None,,,,,,,,091708,001,2024-11-28_15h38.20.509,Test,2024.2.4,None,2024-11-28 15h38.41.229134 +0100,
17,150,90,54,None,5,5,0,False,,,,right,0.8363477080129087,None,,,,,,,,,,,,,0,5,5,5,492.26669362498797,,,,,,,,,,,,,,,,,,,,,,,,,,,,,,,,,,,,,,,,,,,,,,,,,,,,,,,,,,,,,,,,,,,,,,,,,492.25973141699797,492.26669362498797,493.25461466697743,494.2494749999896,494.2494749999896,494.2494749999896,495.0916191669821,right,0.8363477080129087,None,,,,,,,,091708,001,2024-11-28_15h38.20.509,Test,2024.2.4,None,2024-11-28 15h38.41.229134 +0100,
32,150,180,67,None,6,6,0,False,,,,right,0.7931460830150172,None,,,,,,,,,,,,,0,6,6,6,495.1055794999993,,,,,,,,,,,,,,,,,,,,,,,,,,,,,,,,,,,,,,,,,,,,,,,,,,,,,,,,,,,,,,,,,,,,,,,,,495.09872624999844,495.1055794999993,496.0994746249926,497.08987183397403,497.08987183397403,497.08987183397403,497.88542233398766,right,0.7931460830150172,None,,,,,,,,091708,001,2024-11-28_15h38.20.509,Test,2024.2.4,None,2024-11-28 15h38.41.229134 +0100,
9,150,30,62,None,7,7,0,False,,,,right,1.091943249979522,None,,,,,,,,,,,,,0,7,7,7,497.904143791995,,,,,,,,,,,,,,,,,,,,,,,,,,,,,,,,,,,,,,,,,,,,,,,,,,,,,,,,,,,,,,,,,,,,,,,,,497.89801795899984,497.904143791995,498.8992447919736,499.88127204199554,499.88127204199554,499.88127204199554,500.9856853749952,right,1.091943249979522,None,,,,,,,,091708,001,2024-11-28_15h38.20.509,Test,2024.2.4,None,2024-11-28 15h38.41.229134 +0100,
37,150,0,11,None,8,8,0,True,,,,left,1.3517442920128815,None,,,,,,,,,,,,,0,8,8,8,501.00305770899286,,,,,,,,,,,,,,,,,,,,,,,,,,,,,,,,,,,,,,,,,,,,,,,,,,,,,,,,,,,,,,,,,,,,,,,,,500.99619658399024,501.00305770899286,501.9994182919909,502.98258320899913,502.98258320899913,502.98258320899913,504.34183279197896,left,1.3517442920128815,None,,,,,,,,091708,001,2024-11-28_15h38.20.509,Test,2024.2.4,None,2024-11-28 15h38.41.229134 +0100,
19,150,90,69,None,9,9,0,False,,,,right,1.4979670839966275,None,,,,,,,,,,,,,0,9,9,9,504.35542991699185,,,,,,,,,,,,,,,,,,,,,,,,,,,,,,,,,,,,,,,,,,,,,,,,,,,,,,,,,,,,,,,,,,,,,,,,,504.3497510839952,504.35542991699185,505.34954662498785,506.34048012498533,506.34048012498533,506.34048012498533,507.84130620898213,right,1.4979670839966275,None,,,,,,,,091708,001,2024-11-28_15h38.20.509,Test,2024.2.4,None,2024-11-28 15h38.41.229134 +0100,
30,150,150,27,None,10,10,0,False,,,,right,2.109884459001478,None,,,,,,,,,,,,,0,10,10,10,507.85499866699683,,,,,,,,,,,,,,,,,,,,,,,,,,,,,,,,,,,,,,,,,,,,,,,,,,,,,,,,,,,,,,,,,,,,,,,,,507.8489379589737,507.85499866699683,508.849565291981,509.8400241249765,509.8400241249765,509.8400241249765,511.95308354197186,right,2.109884459001478,None,,,,,,,,091708,001,2024-11-28_15h38.20.509,Test,2024.2.4,None,2024-11-28 15h38.41.229134 +0100,
36,150,0,70,None,11,11,0,True,,,,left,1.2675619999936316,None,,,,,,,,,,,,,0,11,11,11,511.9675439999846,,,,,,,,,,,,,,,,,,,,,,,,,,,,,,,,,,,,,,,,,,,,,,,,,,,,,,,,,,,,,,,,,,,,,,,,,511.96130020899,511.9675439999846,512.9660392499936,513.9494765419804,513.9494765419804,513.9494765419804,515.2274247499881,left,1.2675619999936316,None,,,,,,,,091708,001,2024-11-28_15h38.20.509,Test,2024.2.4,None,2024-11-28 15h38.41.229134 +0100,
68,150,180,42,None,12,12,0,True,,,,left,1.1380966249853373,None,,,,,,,,,,,,,0,12,12,12,515.2391501669772,,,,,,,,,,,,,,,,,,,,,,,,,,,,,,,,,,,,,,,,,,,,,,,,,,,,,,,,,,,,,,,,,,,,,,,,,515.2344614169851,515.2391501669772,516.2327890419983,517.2230902499869,517.2230902499869,517.2230902499869,518.3682298339845,left,1.1380966249853373,None,,,,,,,,091708,001,2024-11-28_15h38.20.509,Test,2024.2.4,None,2024-11-28 15h38.41.229134 +0100,
40,150,0,55,None,13,13,0,True,,,,right,1.5069737920130137,None,,,,,,,,,,,,,0,13,13,13,518.3835240419721,,,,,,,,,,,,,,,,,,,,,,,,,,,,,,,,,,,,,,,,,,,,,,,,,,,,,,,,,,,,,,,,,,,,,,,,,518.3773147089814,518.3835240419721,519.3715950419719,520.366174291994,520.366174291994,520.366174291994,521.8847931669734,right,1.5069737920130137,None,,,,,,,,091708,001,2024-11-28_15h38.20.509,Test,2024.2.4,None,2024-11-28 15h38.41.229134 +0100,
66,150,180,31,None,14,14,0,True,,,,left,1.500569625000935,None,,,,,,,,,,,,,0,14,14,14,521.8990095419867,,,,,,,,,,,,,,,,,,,,,,,,,,,,,,,,,,,,,,,,,,,,,,,,,,,,,,,,,,,,,,,,,,,,,,,,,521.8925391249941,521.8990095419867,522.8879968339752,523.8828637089755,523.8828637089755,523.8828637089755,525.3942975419923,left,1.500569625000935,None,,,,,,,,091708,001,2024-11-28_15h38.20.509,Test,2024.2.4,None,2024-11-28 15h38.41.229134 +0100,
14,150,60,26,None,15,15,0,False,,,,right,0.8554781249840744,None,,,,,,,,,,,,,0,15,15,15,525.4056474999816,,,,,,,,,,,,,,,,,,,,,,,,,,,,,,,,,,,,,,,,,,,,,,,,,,,,,,,,,,,,,,,,,,,,,,,,,525.4008377499995,525.4056474999816,526.4039764589979,527.3902731249982,527.3902731249982,527.3902731249982,528.2515709999716,right,0.8554781249840744,None,,,,,,,,091708,001,2024-11-28_15h38.20.509,Test,2024.2.4,None,2024-11-28 15h38.41.229134 +0100,
44,150,30,23,None,16,16,0,True,,,,right,0.8586877909838222,None,,,,,,,,,,,,,0,16,16,16,528.2647430419747,,,,,,,,,,,,,,,,,,,,,,,,,,,,,,,,,,,,,,,,,,,,,,,,,,,,,,,,,,,,,,,,,,,,,,,,,528.2588582499884,528.2647430419747,529.2534766249883,530.2494267919974,530.2494267919974,530.2494267919974,531.118212166999,right,0.8586877909838222,None,,,,,,,,091708,001,2024-11-28_15h38.20.509,Test,2024.2.4,None,2024-11-28 15h38.41.229134 +0100,
67,150,180,2,None,17,17,0,True,,,,left,1.1624590829887893,None,,,,,,,,,,,,,0,17,17,17,531.1331842919753,,,,,,,,,,,,,,,,,,,,,,,,,,,,,,,,,,,,,,,,,,,,,,,,,,,,,,,,,,,,,,,,,,,,,,,,,531.1269365419867,531.1331842919753,532.1211416249862,533.1161798749818,533.1161798749818,533.1161798749818,534.2850752499944,left,1.1624590829887893,None,,,,,,,,091708,001,2024-11-28_15h38.20.509,Test,2024.2.4,None,2024-11-28 15h38.41.229134 +0100,
11,150,60,32,None,18,18,0,False,,,,right,1.138107625010889,None,,,,,,,,,,,,,0,18,18,18,534.2994562919775,,,,,,,,,,,,,,,,,,,,,,,,,,,,,,,,,,,,,,,,,,,,,,,,,,,,,,,,,,,,,,,,,,,,,,,,,534.2926895839919,534.2994562919775,535.2886405839818,536.2831618749769,536.2831618749769,536.2831618749769,537.4240250419825,right,1.138107625010889,None,,,,,,,,091708,001,2024-11-28_15h38.20.509,Test,2024.2.4,None,2024-11-28 15h38.41.229134 +0100,
38,150,0,17,None,19,19,0,True,,,,left,0.9317824999743607,None,,,,,,,,,,,,,0,19,19,19,537.4380659999733,,,,,,,,,,,,,,,,,,,,,,,,,,,,,,,,,,,,,,,,,,,,,,,,,,,,,,,,,,,,,,,,,,,,,,,,,537.4320555839804,537.4380659999733,538.4327026249957,539.4227143339813,539.4227143339813,539.4227143339813,540.3574850419827,left,0.9317824999743607,None,,,,,,,,091708,001,2024-11-28_15h38.20.509,Test,2024.2.4,None,2024-11-28 15h38.41.229134 +0100,
63,150,150,4,None,20,20,0,True,,,,left,1.8963485419808421,None,,,,,,,,,,,,,0,20,20,20,540.3709824169928,,,,,,,,,,,,,,,,,,,,,,,,,,,,,,,,,,,,,,,,,,,,,,,,,,,,,,,,,,,,,,,,,,,,,,,,,540.3652311669721,540.3709824169928,541.3660929999896,542.3571728339884,542.3571728339884,542.3571728339884,544.2580089169787,left,1.8963485419808421,None,,,,,,,,091708,001,2024-11-28_15h38.20.509,Test,2024.2.4,None,2024-11-28 15h38.41.229134 +0100,
70,150,180,68,None,21,21,0,True,,,,right,1.6482509170018602,None,,,,,,,,,,,,,0,21,21,21,544.2711244169914,,,,,,,,,,,,,,,,,,,,,,,,,,,,,,,,,,,,,,,,,,,,,,,,,,,,,,,,,,,,,,,,,,,,,,,,,544.2654149169975,544.2711244169914,545.2659813339997,546.2559849999961,546.2559849999961,546.2559849999961,547.9082373749989,right,1.6482509170018602,None,,,,,,,,091708,001,2024-11-28_15h38.20.509,Test,2024.2.4,None,2024-11-28 15h38.41.229134 +0100,
48,150,60,5,None,22,22,0,True,,,,left,1.5361297499912325,None,,,,,,,,,,,,,0,22,22,22,547.9227562499873,,,,,,,,,,,,,,,,,,,,,,,,,,,,,,,,,,,,,,,,,,,,,,,,,,,,,,,,,,,,,,,,,,,,,,,,,547.9166825839784,547.9227562499873,548.9212586669892,549.9064633339876,549.9064633339876,549.9064633339876,551.451626583992,left,1.5361297499912325,None,,,,,,,,091708,001,2024-11-28_15h38.20.509,Test,2024.2.4,None,2024-11-28 15h38.41.229134 +0100,
29,150,150,10,None,23,23,0,False,,,,left,1.1216885829926468,None,,,,,,,,,,,,,0,23,23,23,551.466704083985,,,,,,,,,,,,,,,,,,,,,,,,,,,,,,,,,,,,,,,,,,,,,,,,,,,,,,,,,,,,,,,,,,,,,,,,,551.4593961669889,551.466704083985,552.454202999972,553.4497316249763,553.4497316249763,553.4497316249763,554.5736256669916,left,1.1216885829926468,None,,,,,,,,091708,001,2024-11-28_15h38.20.509,Test,2024.2.4,None,2024-11-28 15h38.41.229134 +0100,
16,150,90,14,None,24,24,0,False,,,,right,0.8677038750029169,None,,,,,,,,,,,,,0,24,24,24,554.5880464589864,,,,,,,,,,,,,,,,,,,,,,,,,,,,,,,,,,,,,,,,,,,,,,,,,,,,,,,,,,,,,,,,,,,,,,,,,554.5811036249797,554.5880464589864,555.5827066669881,556.5731316249876,556.5731316249876,556.5731316249876,557.4513753339997,right,0.8677038750029169,None,,,,,,,,091708,001,2024-11-28_15h38.20.509,Test,2024.2.4,None,2024-11-28 15h38.41.229134 +0100,
28,150,150,24,None,25,25,0,False,,,,right,1.0009024169994518,None,,,,,,,,,,,,,0,25,25,25,557.4661656669923,,,,,,,,,,,,,,,,,,,,,,,,,,,,,,,,,,,,,,,,,,,,,,,,,,,,,,,,,,,,,,,,,,,,,,,,,557.4589819169778,557.4661656669923,558.4542186669714,559.4493708749942,559.4493708749942,559.4493708749942,560.4609865419916,right,1.0009024169994518,None,,,,,,,,091708,001,2024-11-28_15h38.20.509,Test,2024.2.4,None,2024-11-28 15h38.41.229134 +0100,
42,150,30,59,None,26,26,0,True,,,,left,0.8764869169972371,None,,,,,,,,,,,,,0,26,26,26,560.4733082499879,,,,,,,,,,,,,,,,,,,,,,,,,,,,,,,,,,,,,,,,,,,,,,,,,,,,,,,,,,,,,,,,,,,,,,,,,560.4684987919754,560.4733082499879,561.471885166975,562.4566419589974,562.4566419589974,562.4566419589974,563.3357832089823,left,0.8764869169972371,None,,,,,,,,091708,001,2024-11-28_15h38.20.509,Test,2024.2.4,None,2024-11-28 15h38.41.229134 +0100,
2,150,0,34,None,27,27,0,False,,,,left,0.7352134590037167,None,,,,,,,,,,,,,0,27,27,27,563.3501136249979,,,,,,,,,,,,,,,,,,,,,,,,,,,,,,,,,,,,,,,,,,,,,,,,,,,,,,,,,,,,,,,,,,,,,,,,,563.3432617090002,563.3501136249979,564.3379683339735,565.3327844999731,565.3327844999731,565.3327844999731,566.0742749589845,left,0.7352134590037167,None,,,,,,,,091708,001,2024-11-28_15h38.20.509,Test,2024.2.4,None,2024-11-28 15h38.41.229134 +0100,
25,150,120,52,None,28,28,0,False,,,,right,0.8444219999946654,None,,,,,,,,,,,,,0,28,28,28,566.0878149589989,,,,,,,,,,,,,,,,,,,,,,,,,,,,,,,,,,,,,,,,,,,,,,,,,,,,,,,,,,,,,,,,,,,,,,,,,566.0813432499999,566.0878149589989,567.0826204169716,568.0731604589964,568.0731604589964,568.0731604589964,568.9242873749754,right,0.8444219999946654,None,,,,,,,,091708,001,2024-11-28_15h38.20.509,Test,2024.2.4,None,2024-11-28 15h38.41.229134 +0100,
8,150,30,53,None,29,29,0,False,,,,right,0.940130249975482,None,,,,,,,,,,,,,0,29,29,29,568.9383920419787,,,,,,,,,,,,,,,,,,,,,,,,,,,,,,,,,,,,,,,,,,,,,,,,,,,,,,,,,,,,,,,,,,,,,,,,,568.9317549589905,568.9383920419787,569.932730749977,570.9234994999715,570.9234994999715,570.9234994999715,571.8681555839721,right,0.940130249975482,None,,,,,,,,091708,001,2024-11-28_15h38.20.509,Test,2024.2.4,None,2024-11-28 15h38.41.229134 +0100,
10,150,30,36,None,30,30,0,False,,,,left,0.7189184169983491,None,,,,,,,,,,,,,0,30,30,30,571.8827759589767,,,,,,,,,,,,,,,,,,,,,,,,,,,,,,,,,,,,,,,,,,,,,,,,,,,,,,,,,,,,,,,,,,,,,,,,,571.8757204999856,571.8827759589767,572.8706680419855,573.8661277919891,573.8661277919891,573.8661277919891,574.5912127919728,left,0.7189184169983491,None,,,,,,,,091708,001,2024-11-28_15h38.20.509,Test,2024.2.4,None,2024-11-28 15h38.41.229134 +0100,
33,150,180,37,None,31,31,0,False,,,,right,1.0757595830073114,None,,,,,,,,,,,,,0,31,31,31,574.6054495419958,,,,,,,,,,,,,,,,,,,,,,,,,,,,,,,,,,,,,,,,,,,,,,,,,,,,,,,,,,,,,,,,,,,,,,,,,574.5984267089807,574.6054495419958,575.599349666998,576.590725874994,576.590725874994,576.590725874994,577.6689065839746,right,1.0757595830073114,None,,,,,,,,091708,001,2024-11-28_15h38.20.509,Test,2024.2.4,None,2024-11-28 15h38.41.229134 +0100,
27,150,150,33,None,32,32,0,False,,,,right,1.0335461249924265,None,,,,,,,,,,,,,0,32,32,32,577.6835772089835,,,,,,,,,,,,,,,,,,,,,,,,,,,,,,,,,,,,,,,,,,,,,,,,,,,,,,,,,,,,,,,,,,,,,,,,,577.6765767919715,577.6835772089835,578.6716279999819,579.6663181669719,579.6663181669719,579.6663181669719,580.7029802089965,right,1.0335461249924265,None,,,,,,,,091708,001,2024-11-28_15h38.20.509,Test,2024.2.4,None,2024-11-28 15h38.41.229134 +0100,
51,150,90,16,None,33,33,0,True,,,,left,0.8477070419758093,None,,,,,,,,,,,,,0,33,33,33,580.7185039589822,,,,,,,,,,,,,,,,,,,,,,,,,,,,,,,,,,,,,,,,,,,,,,,,,,,,,,,,,,,,,,,,,,,,,,,,,580.7114041669993,580.7185039589822,581.7163531669939,582.6994090839871,582.6994090839871,582.6994090839871,583.551435292,left,0.8477070419758093,None,,,,,,,,091708,001,2024-11-28_15h38.20.509,Test,2024.2.4,None,2024-11-28 15h38.41.229134 +0100,
45,150,30,63,None,34,34,0,True,,,,left,1.2455197919916827,None,,,,,,,,,,,,,0,34,34,34,583.5654542089906,,,,,,,,,,,,,,,,,,,,,,,,,,,,,,,,,,,,,,,,,,,,,,,,,,,,,,,,,,,,,,,,,,,,,,,,,583.559135833988,583.5654542089906,584.5555780839932,585.5495685839851,585.5495685839851,585.5495685839851,586.8019879169879,left,1.2455197919916827,None,,,,,,,,091708,001,2024-11-28_15h38.20.509,Test,2024.2.4,None,2024-11-28 15h38.41.229134 +0100,
57,150,120,58,None,35,35,0,True,,,,left,1.338362334005069,None,,,,,,,,,,,,,0,35,35,35,586.8163109999732,,,,,,,,,,,,,,,,,,,,,,,,,,,,,,,,,,,,,,,,,,,,,,,,,,,,,,,,,,,,,,,,,,,,,,,,,586.8103226669773,586.8163109999732,587.8045784999849,588.7994975419715,588.7994975419715,588.7994975419715,590.1409622919746,left,1.338362334005069,None,,,,,,,,091708,001,2024-11-28_15h38.20.509,Test,2024.2.4,None,2024-11-28 15h38.41.229134 +0100,
1,150,0,20,None,36,36,0,False,,,,right,1.3217820000136271,None,,,,,,,,,,,,,0,36,36,36,590.1525424589927,,,,,,,,,,,,,,,,,,,,,,,,,,,,,,,,,,,,,,,,,,,,,,,,,,,,,,,,,,,,,,,,,,,,,,,,,590.147336708993,590.1525424589927,591.1493566249846,592.1400655419857,592.1400655419857,592.1400655419857,593.4680924169952,right,1.3217820000136271,None,,,,,,,,091708,001,2024-11-28_15h38.20.509,Test,2024.2.4,None,2024-11-28 15h38.41.229134 +0100,
49,150,60,7,None,37,37,0,True,,,,left,0.9398572919890285,None,,,,,,,,,,,,,0,37,37,37,593.4829906669911,,,,,,,,,,,,,,,,,,,,,,,,,,,,,,,,,,,,,,,,,,,,,,,,,,,,,,,,,,,,,,,,,,,,,,,,,593.4764077919826,593.4829906669911,594.4712345419975,595.4662001249962,595.4662001249962,595.4662001249962,596.4163980839949,left,0.9398572919890285,None,,,,,,,,091708,001,2024-11-28_15h38.20.509,Test,2024.2.4,None,2024-11-28 15h38.41.229134 +0100,
24,150,120,45,None,38,38,0,False,,,,right,1.0469339170085732,None,,,,,,,,,,,,,0,38,38,38,596.4282385839906,,,,,,,,,,,,,,,,,,,,,,,,,,,,,,,,,,,,,,,,,,,,,,,,,,,,,,,,,,,,,,,,,,,,,,,,,596.4233708339743,596.4282385839906,597.421241916978,598.407385833998,598.407385833998,598.407385833998,599.4579349169799,right,1.0469339170085732,None,,,,,,,,091708,001,2024-11-28_15h38.20.509,Test,2024.2.4,None,2024-11-28 15h38.41.229134 +0100,
47,150,60,9,None,39,39,0,True,,,,right,0.6767677080060821,None,,,,,,,,,,,,,0,39,39,39,599.4729964999715,,,,,,,,,,,,,,,,,,,,,,,,,,,,,,,,,,,,,,,,,,,,,,,,,,,,,,,,,,,,,,,,,,,,,,,,,599.4668962919968,599.4729964999715,600.4711567089835,601.4567015419889,601.4567015419889,601.4567015419889,602.1434106249944,right,0.6767677080060821,None,,,,,,,,091708,001,2024-11-28_15h38.20.509,Test,2024.2.4,None,2024-11-28 15h38.41.229134 +0100,
6,150,30,61,None,40,40,0,False,,,,right,0.9694630419835448,None,,,,,,,,,,,,,0,40,40,40,602.1530054589966,,,,,,,,,,,,,,,,,,,,,,,,,,,,,,,,,,,,,,,,,,,,,,,,,,,,,,,,,,,,,,,,,,,,,,,,,602.1490879999765,602.1530054589966,603.1494505839946,604.1413524589734,604.1413524589734,604.1413524589734,605.1181248339999,right,0.9694630419835448,None,,,,,,,,091708,001,2024-11-28_15h38.20.509,Test,2024.2.4,None,2024-11-28 15h38.41.229134 +0100,
18,150,90,6,None,41,41,0,False,,,,left,1.755409042001702,None,,,,,,,,,,,,,0,41,41,41,605.133221333992,,,,,,,,,,,,,,,,,,,,,,,,,,,,,,,,,,,,,,,,,,,,,,,,,,,,,,,,,,,,,,,,,,,,,,,,,605.1256592919817,605.133221333992,606.1206139169808,607.1161082919862,607.1161082919862,607.1161082919862,608.8739921669767,left,1.755409042001702,None,,,,,,,,091708,001,2024-11-28_15h38.20.509,Test,2024.2.4,None,2024-11-28 15h38.41.229134 +0100,
26,150,150,15,None,42,42,0,False,,,,left,2.137110790994484,None,,,,,,,,,,,,,0,42,42,42,608.888482291979,,,,,,,,,,,,,,,,,,,,,,,,,,,,,,,,,,,,,,,,,,,,,,,,,,,,,,,,,,,,,,,,,,,,,,,,,608.881347958988,608.888482291979,609.882918999996,610.8731428749743,610.8731428749743,610.8731428749743,613.018233958981,left,2.137110790994484,None,,,,,,,,091708,001,2024-11-28_15h38.20.509,Test,2024.2.4,None,2024-11-28 15h38.41.229134 +0100,
53,150,90,43,None,43,43,0,True,,,,right,1.590804792009294,None,,,,,,,,,,,,,0,43,43,43,613.0334353749931,,,,,,,,,,,,,,,,,,,,,,,,,,,,,,,,,,,,,,,,,,,,,,,,,,,,,,,,,,,,,,,,,,,,,,,,,613.0267941669736,613.0334353749931,614.0204411249724,615.016120958986,615.016120958986,615.016120958986,616.6181613749941,right,1.590804792009294,None,,,,,,,,091708,001,2024-11-28_15h38.20.509,Test,2024.2.4,None,2024-11-28 15h38.41.229134 +0100,
54,150,90,22,None,44,44,0,True,,,,right,0.7838981249951757,None,,,,,,,,,,,,,0,44,44,44,616.6335650419933,,,,,,,,,,,,,,,,,,,,,,,,,,,,,,,,,,,,,,,,,,,,,,,,,,,,,,,,,,,,,,,,,,,,,,,,,616.6270203339809,616.6335650419933,617.6214484589873,618.6162552089954,618.6162552089954,618.6162552089954,619.410429999989,right,0.7838981249951757,None,,,,,,,,091708,001,2024-11-28_15h38.20.509,Test,2024.2.4,None,2024-11-28 15h38.41.229134 +0100,
7,150,30,44,None,45,45,0,False,,,,right,0.816793542006053,None,,,,,,,,,,,,,0,45,45,45,619.4219048339874,,,,,,,,,,,,,,,,,,,,,,,,,,,,,,,,,,,,,,,,,,,,,,,,,,,,,,,,,,,,,,,,,,,,,,,,,619.4170894999988,619.4219048339874,620.4163629999966,621.4065759169753,621.4065759169753,621.4065759169753,622.2343466249877,right,0.816793542006053,None,,,,,,,,091708,001,2024-11-28_15h38.20.509,Test,2024.2.4,None,2024-11-28 15h38.41.229134 +0100,
62,150,150,35,None,46,46,0,True,,,,left,1.3391772499890067,None,,,,,,,,,,,,,0,46,46,46,622.2450963749725,,,,,,,,,,,,,,,,,,,,,,,,,,,,,,,,,,,,,,,,,,,,,,,,,,,,,,,,,,,,,,,,,,,,,,,,,622.2405698339862,622.2450963749725,623.2378931249841,624.2330525419966,624.2330525419966,624.2330525419966,625.5746081669931,left,1.3391772499890067,None,,,,,,,,091708,001,2024-11-28_15h38.20.509,Test,2024.2.4,None,2024-11-28 15h38.41.229134 +0100,
56,150,120,13,None,47,47,0,True,,,,left,1.0667425830033608,None,,,,,,,,,,,,,0,47,47,47,625.5901035419956,,,,,,,,,,,,,,,,,,,,,,,,,,,,,,,,,,,,,,,,,,,,,,,,,,,,,,,,,,,,,,,,,,,,,,,,,625.5831238749961,625.5901035419956,626.5880710839992,627.573086208984,627.573086208984,627.573086208984,628.6515108339954,left,1.0667425830033608,None,,,,,,,,091708,001,2024-11-28_15h38.20.509,Test,2024.2.4,None,2024-11-28 15h38.41.229134 +0100,
15,150,60,19,None,48,48,0,False,,,,left,1.1601899999950547,None,,,,,,,,,,,,,0,48,48,48,628.6663039999839,,,,,,,,,,,,,,,,,,,,,,,,,,,,,,,,,,,,,,,,,,,,,,,,,,,,,,,,,,,,,,,,,,,,,,,,,628.6590972089907,628.6663039999839,629.6547039169818,630.6496303339954,630.6496303339954,630.6496303339954,631.8182492089982,left,1.1601899999950547,None,,,,,,,,091708,001,2024-11-28_15h38.20.509,Test,2024.2.4,None,2024-11-28 15h38.41.229134 +0100,
46,150,60,38,None,49,49,0,True,,,,left,1.6841651249851566,None,,,,,,,,,,,,,0,49,49,49,631.8322541669768,,,,,,,,,,,,,,,,,,,,,,,,,,,,,,,,,,,,,,,,,,,,,,,,,,,,,,,,,,,,,,,,,,,,,,,,,631.8264036669862,631.8322541669768,632.8213834589988,633.8160893339955,633.8160893339955,633.8160893339955,635.5109620000003,left,1.6841651249851566,None,,,,,,,,091708,001,2024-11-28_15h38.20.509,Test,2024.2.4,None,2024-11-28 15h38.41.229134 +0100,
59,150,120,51,None,50,50,0,True,,,,right,1.7762515840004198,None,,,,,,,,,,,,,0,50,50,50,635.5227565839887,,,,,,,,,,,,,,,,,,,,,,,,,,,,,,,,,,,,,,,,,,,,,,,,,,,,,,,,,,,,,,,,,,,,,,,,,635.517972333997,635.5227565839887,636.5215241249825,637.5066697919974,637.5066697919974,637.5066697919974,639.2855208339752,right,1.7762515840004198,None,,,,,,,,091708,001,2024-11-28_15h38.20.509,Test,2024.2.4,None,2024-11-28 15h38.41.229134 +0100,
58,150,120,47,None,51,51,0,True,,,,left,2.0219064169796184,None,,,,,,,,,,,,,0,51,51,51,639.3005615839793,,,,,,,,,,,,,,,,,,,,,,,,,,,,,,,,,,,,,,,,,,,,,,,,,,,,,,,,,,,,,,,,,,,,,,,,,639.2944882919837,639.3005615839793,640.2993602919742,641.2827092919906,641.2827092919906,641.2827092919906,643.3073999169865,left,2.0219064169796184,None,,,,,,,,091708,001,2024-11-28_15h38.20.509,Test,2024.2.4,None,2024-11-28 15h38.41.229134 +0100,
12,150,60,40,None,52,52,0,False,,,,right,0.9044527499936521,None,,,,,,,,,,,,,0,52,52,52,643.3217408339842,,,,,,,,,,,,,,,,,,,,,,,,,,,,,,,,,,,,,,,,,,,,,,,,,,,,,,,,,,,,,,,,,,,,,,,,,643.3148519169772,643.3217408339842,644.3161146249913,645.3066489169723,645.3066489169723,645.3066489169723,646.2182684589934,right,0.9044527499936521,None,,,,,,,,091708,001,2024-11-28_15h38.20.509,Test,2024.2.4,None,2024-11-28 15h38.41.229134 +0100,
34,150,180,12,None,53,53,0,False,,,,left,2.0668995000014547,None,,,,,,,,,,,,,0,53,53,53,646.2328527499922,,,,,,,,,,,,,,,,,,,,,,,,,,,,,,,,,,,,,,,,,,,,,,,,,,,,,,,,,,,,,,,,,,,,,,,,,646.2259617499949,646.2328527499922,647.2205241669726,648.2160756669764,648.2160756669764,648.2160756669764,650.2856468339742,left,2.0668995000014547,None,,,,,,,,091708,001,2024-11-28_15h38.20.509,Test,2024.2.4,None,2024-11-28 15h38.41.229134 +0100,
41,150,30,56,None,54,54,0,True,,,,left,1.4409761250135489,None,,,,,,,,,,,,,0,54,54,54,650.3002160420001,,,,,,,,,,,,,,,,,,,,,,,,,,,,,,,,,,,,,,,,,,,,,,,,,,,,,,,,,,,,,,,,,,,,,,,,,650.2942882089992,650.3002160420001,651.2876679999754,652.2828432089882,652.2828432089882,652.2828432089882,653.734941541974,left,1.4409761250135489,None,,,,,,,,091708,001,2024-11-28_15h38.20.509,Test,2024.2.4,None,2024-11-28 15h38.41.229134 +0100,
23,150,120,49,None,55,55,0,False,,,,left,1.407472165999934,None,,,,,,,,,,,,,0,55,55,55,653.7495062089874,,,,,,,,,,,,,,,,,,,,,,,,,,,,,,,,,,,,,,,,,,,,,,,,,,,,,,,,,,,,,,,,,,,,,,,,,653.7427336669934,653.7495062089874,654.737963083986,655.7329414169944,655.7329414169944,655.7329414169944,657.1515549169853,left,1.407472165999934,None,,,,,,,,091708,001,2024-11-28_15h38.20.509,Test,2024.2.4,None,2024-11-28 15h38.41.229134 +0100,
3,150,0,64,None,56,56,0,False,,,,right,1.0240119590016548,None,,,,,,,,,,,,,0,56,56,56,657.1658118339838,,,,,,,,,,,,,,,,,,,,,,,,,,,,,,,,,,,,,,,,,,,,,,,,,,,,,,,,,,,,,,,,,,,,,,,,,657.1590795839729,657.1658118339838,658.1539148749725,659.1495996669983,659.1495996669983,659.1495996669983,660.1846720419999,right,1.0240119590016548,None,,,,,,,,091708,001,2024-11-28_15h38.20.509,Test,2024.2.4,None,2024-11-28 15h38.41.229134 +0100,
43,150,30,29,None,57,57,0,True,,,,right,0.9209322909882758,None,,,,,,,,,,,,,0,57,57,57,660.20004216698,,,,,,,,,,,,,,,,,,,,,,,,,,,,,,,,,,,,,,,,,,,,,,,,,,,,,,,,,,,,,,,,,,,,,,,,,660.1935122499999,660.20004216698,661.187628249987,662.1829835839744,662.1829835839744,662.1829835839744,663.1076873339771,right,0.9209322909882758,None,,,,,,,,091708,001,2024-11-28_15h38.20.509,Test,2024.2.4,None,2024-11-28 15h38.41.229134 +0100,
22,150,120,28,None,58,58,0,False,,,,left,1.0338743749889545,None,,,,,,,,,,,,,0,58,58,58,663.1220044589718,,,,,,,,,,,,,,,,,,,,,,,,,,,,,,,,,,,,,,,,,,,,,,,,,,,,,,,,,,,,,,,,,,,,,,,,,663.1153786249924,663.1220044589718,664.1159314169781,665.1071864589758,665.1071864589758,665.1071864589758,666.1514800419973,left,1.0338743749889545,None,,,,,,,,091708,001,2024-11-28_15h38.20.509,Test,2024.2.4,None,2024-11-28 15h38.41.229134 +0100,
52,150,90,57,None,59,59,0,True,,,,right,1.0237927919952199,None,,,,,,,,,,,,,0,59,59,59,666.1664991249854,,,,,,,,,,,,,,,,,,,,,,,,,,,,,,,,,,,,,,,,,,,,,,,,,,,,,,,,,,,,,,,,,,,,,,,,,666.1601709999959,666.1664991249854,667.1542163339909,668.1496908339905,668.1496908339905,668.1496908339905,669.1849447919813,right,1.0237927919952199,None,,,,,,,,091708,001,2024-11-28_15h38.20.509,Test,2024.2.4,None,2024-11-28 15h38.41.229134 +0100,
55,150,90,66,None,60,60,0,True,,,,left,1.3716761670075357,None,,,,,,,,,,,,,0,60,60,60,669.1995600419759,,,,,,,,,,,,,,,,,,,,,,,,,,,,,,,,,,,,,,,,,,,,,,,,,,,,,,,,,,,,,,,,,,,,,,,,,669.1930189169943,669.1995600419759,670.1881252919848,671.1828292499995,671.1828292499995,671.1828292499995,672.5573718749802,left,1.3716761670075357,None,,,,,,,,091708,001,2024-11-28_15h38.20.509,Test,2024.2.4,None,2024-11-28 15h38.41.229134 +0100,
21,150,120,46,None,61,61,0,False,,,,left,2.4508063750108704,None,,,,,,,,,,,,,0,61,61,61,672.5713020839903,,,,,,,,,,,,,,,,,,,,,,,,,,,,,,,,,,,,,,,,,,,,,,,,,,,,,,,,,,,,,,,,,,,,,,,,,672.5645308749808,672.5713020839903,673.5661291669821,674.5568213749793,674.5568213749793,674.5568213749793,677.0182607499883,left,2.4508063750108704,None,,,,,,,,091708,001,2024-11-28_15h38.20.509,Test,2024.2.4,None,2024-11-28 15h38.41.229134 +0100,
65,150,150,41,None,62,62,0,True,,,,right,0.726436917000683,None,,,,,,,,,,,,,0,62,62,62,677.0337625839747,,,,,,,,,,,,,,,,,,,,,,,,,,,,,,,,,,,,,,,,,,,,,,,,,,,,,,,,,,,,,,,,,,,,,,,,,677.0272397919907,677.0337625839747,678.0327766669798,679.0163922499924,679.0163922499924,679.0163922499924,679.7519007919764,right,0.726436917000683,None,,,,,,,,091708,001,2024-11-28_15h38.20.509,Test,2024.2.4,None,2024-11-28 15h38.41.229134 +0100,
5,150,0,50,None,63,63,0,False,,,,left,0.8195190420083236,None,,,,,,,,,,,,,0,63,63,63,679.766126167,,,,,,,,,,,,,,,,,,,,,,,,,,,,,,,,,,,,,,,,,,,,,,,,,,,,,,,,,,,,,,,,,,,,,,,,,679.7595412089722,679.766126167,680.7542114169919,681.7495450419956,681.7495450419956,681.7495450419956,682.57480183398,left,0.8195190420083236,None,,,,,,,,091708,001,2024-11-28_15h38.20.509,Test,2024.2.4,None,2024-11-28 15h38.41.229134 +0100,
61,150,150,1,None,64,64,0,True,,,,left,0.8205134169838857,None,,,,,,,,,,,,,0,64,64,64,682.5896540419781,,,,,,,,,,,,,,,,,,,,,,,,,,,,,,,,,,,,,,,,,,,,,,,,,,,,,,,,,,,,,,,,,,,,,,,,,682.5835591669893,682.5896540419781,683.5879056249978,684.5733938339981,684.5733938339981,684.5733938339981,685.4017673749768,left,0.8205134169838857,None,,,,,,,,091708,001,2024-11-28_15h38.20.509,Test,2024.2.4,None,2024-11-28 15h38.41.229134 +0100,
35,150,180,3,None,65,65,0,False,,,,left,0.7518344999989495,None,,,,,,,,,,,,,0,65,65,65,685.4167337089893,,,,,,,,,,,,,,,,,,,,,,,,,,,,,,,,,,,,,,,,,,,,,,,,,,,,,,,,,,,,,,,,,,,,,,,,,685.4095639589941,685.4167337089893,686.4046101669956,687.3996131249878,687.3996131249878,687.3996131249878,688.1577885419829,left,0.7518344999989495,None,,,,,,,,091708,001,2024-11-28_15h38.20.509,Test,2024.2.4,None,2024-11-28 15h38.41.229134 +0100,
4,150,0,8,None,66,66,0,False,,,,right,0.7698485410073772,None,,,,,,,,,,,,,0,66,66,66,688.1718124169856,,,,,,,,,,,,,,,,,,,,,,,,,,,,,,,,,,,,,,,,,,,,,,,,,,,,,,,,,,,,,,,,,,,,,,,,,688.1651191669807,688.1718124169856,689.1661307919712,690.1573597089737,690.1573597089737,690.1573597089737,690.9348114589811,right,0.7698485410073772,None,,,,,,,,091708,001,2024-11-28_15h38.20.509,Test,2024.2.4,None,2024-11-28 15h38.41.229134 +0100,
20,150,90,39,None,67,67,0,False,,,,right,2.307483833981678,None,,,,,,,,,,,,,0,67,67,67,690.9491368749877,,,,,,,,,,,,,,,,,,,,,,,,,,,,,,,,,,,,,,,,,,,,,,,,,,,,,,,,,,,,,,,,,,,,,,,,,690.9424316669756,690.9491368749877,691.9380247499794,692.933032958972,692.933032958972,692.933032958972,695.2515917089768,right,2.307483833981678,None,,,,,,,,091708,001,2024-11-28_15h38.20.509,Test,2024.2.4,None,2024-11-28 15h38.41.229134 +0100,
64,150,150,60,None,68,68,0,True,,,,right,0.7621487499854993,None,,,,,,,,,,,,,0,68,68,68,695.2671986669884,,,,,,,,,,,,,,,,,,,,,,,,,,,,,,,,,,,,,,,,,,,,,,,,,,,,,,,,,,,,,,,,,,,,,,,,,695.2606187089987,695.2671986669884,696.2542588340002,697.2495130839816,697.2495130839816,697.2495130839816,698.0179050839797,right,0.7621487499854993,None,,,,,,,,091708,001,2024-11-28_15h38.20.509,Test,2024.2.4,None,2024-11-28 15h38.41.229134 +0100,
31,150,180,65,None,69,69,0,False,,,,right,1.1008652499876916,None,,,,,,,,,,,,,0,69,69,69,698.0322678339726,,,,,,,,,,,,,,,,,,,,,,,,,,,,,,,,,,,,,,,,,,,,,,,,,,,,,,,,,,,,,,,,,,,,,,,,,698.0253152089717,698.0322678339726,699.0214642499923,700.0163480839983,700.0163480839983,700.0163480839983,701.1241894589912,right,1.1008652499876916,None,,,,,,,,091708,001,2024-11-28_15h38.20.509,Test,2024.2.4,None,2024-11-28 15h38.41.229134 +0100,
,,,,,,,,,,,,,,,,,,,,,,,,,,,,,,,,,,,,,,,,,,,,,,,,,,,,,,,,,,,,,,,,,,,,,,,,,,,,,,,,,,,,,,,,,,,,,,,,,,,,,,,,,,,,,,,,,,701.1244654589973,701.1344445839932,701.1344445839932,703.1735164169804,space,2.0323834589798935,None,091708,001,2024-11-28_15h38.20.509,Test,2024.2.4,None,2024-11-28 15h38.41.229134 +0100,
