Trial_Number,Exposure_Duration,Displacement_Angle,Stimulus,Response,thisN,thisTrialN,thisRepN,Is_Distractor,key_resp_3.keys,key_resp_3.rt,key_resp_3.duration,key_resp_7.keys,key_resp_7.rt,key_resp_7.duration,trials.thisRepN,trials.thisTrialN,trials.thisN,trials.thisIndex,trials_2.thisRepN,trials_2.thisTrialN,trials_2.thisN,trials_2.thisIndex,trials_3.thisRepN,trials_3.thisTrialN,trials_3.thisN,trials_3.thisIndex,trials_4.thisRepN,trials_4.thisTrialN,trials_4.thisN,trials_4.thisIndex,thisRow.t,notes,Intro_to_experiment.started,important1_2.started,key_resp_8.started,Intro_to_experiment.stopped,key_resp_8.keys,key_resp_8.rt,key_resp_8.duration,important.started,important1.started,key_resp_4.started,important.stopped,key_resp_4.keys,key_resp_4.rt,key_resp_4.duration,training_instruction.started,key_resp_9.started,important1_3.started,training_instruction.stopped,key_resp_9.keys,key_resp_9.rt,key_resp_9.duration,training_trial.started,cross.started,image.started,aperture.started,cross.stopped,image.stopped,aperture.stopped,training_trial.stopped,New_instruction.started,text.started,key_resp_2.started,New_instruction.stopped,key_resp_2.keys,key_resp_2.rt,key_resp_2.duration,test_trial.started,cross2.started,cross2.stopped,image_2.started,key_resp_3.started,aperture_2.started,test_trial.stopped,trials_2.key_resp_3.keys,trials_2.key_resp_3.rt,trials_2.key_resp_3.duration,image_2.stopped,aperture_2.stopped,text_3.started,start_blok_2.started,key_resp_5.started,text_4.started,start_blok_2.stopped,key_resp_5.keys,key_resp_5.rt,key_resp_5.duration,training_2.started,cross_2.started,image_3.started,aperture_3.started,cross_2.stopped,image_3.stopped,aperture_3.stopped,training_2.stopped,nyeste_instruks.started,text_5.started,key_resp_6.started,nyeste_instruks.stopped,key_resp_6.keys,key_resp_6.rt,key_resp_6.duration,test_2.started,cross2_2.started,cross2_2.stopped,image_4.started,key_resp_7.started,aperture_4.started,test_2.stopped,trials_4.key_resp_7.keys,trials_4.key_resp_7.rt,trials_4.key_resp_7.duration,Instruction.started,Instruktion.started,key_resp.started,Instruction.stopped,key_resp.keys,key_resp.rt,key_resp.duration,participant,session,date,expName,psychopyVersion,frameRate,expStart,
,,,,,,,,,,,,,,,,,,,,,,,,,,,,,,,,,0.0064905829494819045,0.021383290993981063,0.021383290993981063,173.1676434999681,space,173.10109491698677,None,,,,,,,,,,,,,,,,,,,,,,,,,,,,,,,,,,,,,,,,,,,,,,,,,,,,,,,,,,,,,,,,,,,,,,,,,,,,,,,,,,100192,001,2024-12-08_13h12.27.964,Test,2024.2.4,None,2024-12-08 13h12.37.920357 +0100,
,,,,,,,,,,,,,,,,,,,,,,,,,,,,,,,,,,,,,,,,173.16774595796596,173.17434616596438,173.17434616596438,175.36982512497343,space,2.1894379159784876,None,,,,,,,,,,,,,,,,,,,,,,,,,,,,,,,,,,,,,,,,,,,,,,,,,,,,,,,,,,,,,,,,,,,,,,,,,,,100192,001,2024-12-08_13h12.27.964,Test,2024.2.4,None,2024-12-08 13h12.37.920357 +0100,
,,,,,,,,,,,,,,,,,,,,,,,,,,,,,,,,,,,,,,,,,,,,,,,175.36991708294954,175.39196499995887,175.39196499995887,178.6301341659855,space,3.227087333041709,None,,,,,,,,,,,,,,,,,,,,,,,,,,,,,,,,,,,,,,,,,,,,,,,,,,,,,,,,,,,,,,,,,,,,100192,001,2024-12-08_13h12.27.964,Test,2024.2.4,None,2024-12-08 13h12.37.920357 +0100,
18,150,90,27,None,0,0,0,,,,,,,,0,0,0,17,,,,,,,,,,,,,178.68561137496727,,,,,,,,,,,,,,,,,,,,,,,178.6778930829605,178.68561137496727,178.8283049579477,178.8283049579477,178.88206312496914,180.52805612498196,180.52805612498196,180.5123069579713,,,,,,,,,,,,,,,,,,,,,,,,,,,,,,,,,,,,,,,,,,,,,,,,,,,,,,,,,,,,100192,001,2024-12-08_13h12.27.964,Test,2024.2.4,None,2024-12-08 13h12.37.920357 +0100,
23,150,120,5,None,1,1,0,,,,,,,,0,1,1,22,,,,,,,,,,,,,180.52805612498196,,,,,,,,,,,,,,,,,,,,,,,180.52339483296964,180.5319074159488,180.72802583297016,180.72802583297016,180.72802583297016,182.4271196659538,182.4271196659538,182.41214608296286,,,,,,,,,,,,,,,,,,,,,,,,,,,,,,,,,,,,,,,,,,,,,,,,,,,,,,,,,,,,100192,001,2024-12-08_13h12.27.964,Test,2024.2.4,None,2024-12-08 13h12.37.920357 +0100,
13,150,60,56,None,2,2,0,,,,,,,,0,2,2,12,,,,,,,,,,,,,182.4271196659538,,,,,,,,,,,,,,,,,,,,,,,182.42224170797272,182.4309407499968,182.62682820798364,182.62682820798364,182.62682820798364,184.32536958297715,184.32536958297715,184.31228562496835,,,,,,,,,,,,,,,,,,,,,,,,,,,,,,,,,,,,,,,,,,,,,,,,,,,,,,,,,,,,100192,001,2024-12-08_13h12.27.964,Test,2024.2.4,None,2024-12-08 13h12.37.920357 +0100,
29,150,150,66,None,3,3,0,,,,,,,,0,3,3,28,,,,,,,,,,,,,184.32536958297715,,,,,,,,,,,,,,,,,,,,,,,184.32035670796176,184.330259499955,184.52795158297522,184.52795158297522,184.52795158297522,186.22732920799172,186.22732920799172,186.21253791596973,,,,,,,,,,,,,,,,,,,,,,,,,,,,,,,,,,,,,,,,,,,,,,,,,,,,,,,,,,,,100192,001,2024-12-08_13h12.27.964,Test,2024.2.4,None,2024-12-08 13h12.37.920357 +0100,
27,150,150,29,None,4,4,0,,,,,,,,0,4,4,26,,,,,,,,,,,,,186.22732920799172,,,,,,,,,,,,,,,,,,,,,,,186.22289916599402,186.23095624998678,186.42808529100148,186.42808529100148,186.42808529100148,188.12499516597018,188.12499516597018,188.112043540983,,,,,,,,,,,,,,,,,,,,,,,,,,,,,,,,,,,,,,,,,,,,,,,,,,,,,,,,,,,,100192,001,2024-12-08_13h12.27.964,Test,2024.2.4,None,2024-12-08 13h12.37.920357 +0100,
21,150,120,54,None,5,5,0,,,,,,,,0,5,5,20,,,,,,,,,,,,,188.12499516597018,,,,,,,,,,,,,,,,,,,,,,,188.12005899997894,188.12988133297767,188.32797454099637,188.32797454099637,188.32797454099637,190.02587087498978,190.02587087498978,190.0122374999919,,,,,,,,,,,,,,,,,,,,,,,,,,,,,,,,,,,,,,,,,,,,,,,,,,,,,,,,,,,,100192,001,2024-12-08_13h12.27.964,Test,2024.2.4,None,2024-12-08 13h12.37.920357 +0100,
26,150,150,9,None,6,6,0,,,,,,,,0,6,6,25,,,,,,,,,,,,,190.02587087498978,,,,,,,,,,,,,,,,,,,,,,,190.02105504099745,190.03047504095593,190.22801945795072,190.22801945795072,190.22801945795072,191.92845479096286,191.92845479096286,191.91258783295052,,,,,,,,,,,,,,,,,,,,,,,,,,,,,,,,,,,,,,,,,,,,,,,,,,,,,,,,,,,,100192,001,2024-12-08_13h12.27.964,Test,2024.2.4,None,2024-12-08 13h12.37.920357 +0100,
8,150,30,61,None,7,7,0,,,,,,,,0,7,7,7,,,,,,,,,,,,,191.92845479096286,,,,,,,,,,,,,,,,,,,,,,,191.9235608749441,191.9448757499922,192.12793508300092,192.12793508300092,192.13368449994596,193.8265424159472,193.8265424159472,193.81251429097028,,,,,,,,,,,,,,,,,,,,,,,,,,,,,,,,,,,,,,,,,,,,,,,,,,,,,,,,,,,,100192,001,2024-12-08_13h12.27.964,Test,2024.2.4,None,2024-12-08 13h12.37.920357 +0100,
17,150,90,49,None,8,8,0,,,,,,,,0,8,8,16,,,,,,,,,,,,,193.8265424159472,,,,,,,,,,,,,,,,,,,,,,,193.82152916595805,193.83048045798205,194.0280115409987,194.0280115409987,194.0280115409987,195.72638337494573,195.72638337494573,195.7123140829499,,,,,,,,,,,,,,,,,,,,,,,,,,,,,,,,,,,,,,,,,,,,,,,,,,,,,,,,,,,,100192,001,2024-12-08_13h12.27.964,Test,2024.2.4,None,2024-12-08 13h12.37.920357 +0100,
24,150,120,4,None,9,9,0,,,,,,,,0,9,9,23,,,,,,,,,,,,,195.72638337494573,,,,,,,,,,,,,,,,,,,,,,,195.7214180829469,195.731096665957,195.92798366595525,195.92798366595525,195.92798366595525,197.62619695795001,197.62619695795001,197.61226612498285,,,,,,,,,,,,,,,,,,,,,,,,,,,,,,,,,,,,,,,,,,,,,,,,,,,,,,,,,,,,100192,001,2024-12-08_13h12.27.964,Test,2024.2.4,None,2024-12-08 13h12.37.920357 +0100,
30,150,150,18,None,10,10,0,,,,,,,,0,10,10,29,,,,,,,,,,,,,197.62619695795001,,,,,,,,,,,,,,,,,,,,,,,197.62108658294892,197.62984395795502,197.82790879096137,197.82790879096137,197.82790879096137,199.52537054097047,199.52537054097047,199.51227354095317,,,,,,,,,,,,,,,,,,,,,,,,,,,,,,,,,,,,,,,,,,,,,,,,,,,,,,,,,,,,100192,001,2024-12-08_13h12.27.964,Test,2024.2.4,None,2024-12-08 13h12.37.920357 +0100,
14,150,60,3,None,11,11,0,,,,,,,,0,11,11,13,,,,,,,,,,,,,199.52537054097047,,,,,,,,,,,,,,,,,,,,,,,199.5205099999439,199.52935337496456,199.72801762499148,199.72801762499148,199.72801762499148,201.4262184999534,201.4262184999534,201.41210754099302,,,,,,,,,,,,,,,,,,,,,,,,,,,,,,,,,,,,,,,,,,,,,,,,,,,,,,,,,,,,100192,001,2024-12-08_13h12.27.964,Test,2024.2.4,None,2024-12-08 13h12.37.920357 +0100,
33,150,180,30,None,12,12,0,,,,,,,,0,12,12,32,,,,,,,,,,,,,201.4262184999534,,,,,,,,,,,,,,,,,,,,,,,201.42122962494614,201.43009974999586,201.62790016597137,201.62790016597137,201.62790016597137,203.32601962494664,203.32601962494664,203.31239620799897,,,,,,,,,,,,,,,,,,,,,,,,,,,,,,,,,,,,,,,,,,,,,,,,,,,,,,,,,,,,100192,001,2024-12-08_13h12.27.964,Test,2024.2.4,None,2024-12-08 13h12.37.920357 +0100,
4,150,0,41,None,13,13,0,,,,,,,,0,13,13,3,,,,,,,,,,,,,203.32601962494664,,,,,,,,,,,,,,,,,,,,,,,203.3208620409714,203.33099879097426,203.52828424994368,203.52828424994368,203.52828424994368,205.22590608295286,205.22590608295286,205.21216329099843,,,,,,,,,,,,,,,,,,,,,,,,,,,,,,,,,,,,,,,,,,,,,,,,,,,,,,,,,,,,100192,001,2024-12-08_13h12.27.964,Test,2024.2.4,None,2024-12-08 13h12.37.920357 +0100,
6,150,30,1,None,14,14,0,,,,,,,,0,14,14,5,,,,,,,,,,,,,205.22590608295286,,,,,,,,,,,,,,,,,,,,,,,205.22100029099965,205.23003424995113,205.4278783329646,205.4278783329646,205.4278783329646,207.1257819159655,207.1257819159655,207.1122101660003,,,,,,,,,,,,,,,,,,,,,,,,,,,,,,,,,,,,,,,,,,,,,,,,,,,,,,,,,,,,100192,001,2024-12-08_13h12.27.964,Test,2024.2.4,None,2024-12-08 13h12.37.920357 +0100,
11,150,60,14,None,15,15,0,,,,,,,,0,15,15,10,,,,,,,,,,,,,207.1257819159655,,,,,,,,,,,,,,,,,,,,,,,207.12089083297178,207.1298299159971,207.32830866595032,207.32830866595032,207.32830866595032,209.02654770796653,209.02654770796653,209.01263704098528,,,,,,,,,,,,,,,,,,,,,,,,,,,,,,,,,,,,,,,,,,,,,,,,,,,,,,,,,,,,100192,001,2024-12-08_13h12.27.964,Test,2024.2.4,None,2024-12-08 13h12.37.920357 +0100,
22,150,120,33,None,16,16,0,,,,,,,,0,16,16,21,,,,,,,,,,,,,209.02654770796653,,,,,,,,,,,,,,,,,,,,,,,209.02144533296814,209.03131474996917,209.22829666599864,209.22829666599864,209.22829666599864,210.92502612498356,210.92502612498356,210.9125084579573,,,,,,,,,,,,,,,,,,,,,,,,,,,,,,,,,,,,,,,,,,,,,,,,,,,,,,,,,,,,100192,001,2024-12-08_13h12.27.964,Test,2024.2.4,None,2024-12-08 13h12.37.920357 +0100,
9,150,30,11,None,17,17,0,,,,,,,,0,17,17,8,,,,,,,,,,,,,210.92502612498356,,,,,,,,,,,,,,,,,,,,,,,210.92007383296732,210.929605082958,211.1283645829535,211.1283645829535,211.1283645829535,212.82609945797594,212.82609945797594,212.81263345800107,,,,,,,,,,,,,,,,,,,,,,,,,,,,,,,,,,,,,,,,,,,,,,,,,,,,,,,,,,,,100192,001,2024-12-08_13h12.27.964,Test,2024.2.4,None,2024-12-08 13h12.37.920357 +0100,
19,150,90,21,None,18,18,0,,,,,,,,0,18,18,18,,,,,,,,,,,,,212.82609945797594,,,,,,,,,,,,,,,,,,,,,,,212.82118070794968,212.83083366596838,213.0283339159796,213.0283339159796,213.0283339159796,214.72506145795342,214.72506145795342,214.71235729096225,,,,,,,,,,,,,,,,,,,,,,,,,,,,,,,,,,,,,,,,,,,,,,,,,,,,,,,,,,,,100192,001,2024-12-08_13h12.27.964,Test,2024.2.4,None,2024-12-08 13h12.37.920357 +0100,
31,150,180,6,None,19,19,0,,,,,,,,0,19,19,30,,,,,,,,,,,,,214.72506145795342,,,,,,,,,,,,,,,,,,,,,,,214.71997137495782,214.72994558297796,214.92798487498658,214.92798487498658,214.92798487498658,216.62665262498194,216.62665262498194,216.61233220796566,,,,,,,,,,,,,,,,,,,,,,,,,,,,,,,,,,,,,,,,,,,,,,,,,,,,,,,,,,,,100192,001,2024-12-08_13h12.27.964,Test,2024.2.4,None,2024-12-08 13h12.37.920357 +0100,
5,150,0,67,None,20,20,0,,,,,,,,0,20,20,4,,,,,,,,,,,,,216.62665262498194,,,,,,,,,,,,,,,,,,,,,,,216.62169279099908,216.6304799579666,216.8272452079691,216.8272452079691,216.8272452079691,218.52638866595225,218.52638866595225,218.51263337495038,,,,,,,,,,,,,,,,,,,,,,,,,,,,,,,,,,,,,,,,,,,,,,,,,,,,,,,,,,,,100192,001,2024-12-08_13h12.27.964,Test,2024.2.4,None,2024-12-08 13h12.37.920357 +0100,
7,150,30,52,None,21,21,0,,,,,,,,0,21,21,6,,,,,,,,,,,,,218.52638866595225,,,,,,,,,,,,,,,,,,,,,,,218.5214135829592,218.5310945409583,218.7279650409473,218.7279650409473,218.7279650409473,220.42640599998413,220.42640599998413,220.41219212498982,,,,,,,,,,,,,,,,,,,,,,,,,,,,,,,,,,,,,,,,,,,,,,,,,,,,,,,,,,,,100192,001,2024-12-08_13h12.27.964,Test,2024.2.4,None,2024-12-08 13h12.37.920357 +0100,
3,150,0,24,None,22,22,0,,,,,,,,0,22,22,2,,,,,,,,,,,,,220.42640599998413,,,,,,,,,,,,,,,,,,,,,,,220.4216114579467,220.4302834579721,220.6278881659964,220.6278881659964,220.6278881659964,222.32714604097418,222.32714604097418,222.31280416599475,,,,,,,,,,,,,,,,,,,,,,,,,,,,,,,,,,,,,,,,,,,,,,,,,,,,,,,,,,,,100192,001,2024-12-08_13h12.27.964,Test,2024.2.4,None,2024-12-08 13h12.37.920357 +0100,
32,150,180,40,None,23,23,0,,,,,,,,0,23,23,31,,,,,,,,,,,,,222.32714604097418,,,,,,,,,,,,,,,,,,,,,,,222.32244512496982,222.3309865409974,222.5279300409602,222.5279300409602,222.5279300409602,224.22767058300087,224.22767058300087,224.2131289159879,,,,,,,,,,,,,,,,,,,,,,,,,,,,,,,,,,,,,,,,,,,,,,,,,,,,,,,,,,,,100192,001,2024-12-08_13h12.27.964,Test,2024.2.4,None,2024-12-08 13h12.37.920357 +0100,
15,150,60,39,None,24,24,0,,,,,,,,0,24,24,14,,,,,,,,,,,,,224.22767058300087,,,,,,,,,,,,,,,,,,,,,,,224.22271362500032,224.2313909579534,224.42804570798762,224.42804570798762,224.42804570798762,226.1254604999558,226.1254604999558,226.1121267079725,,,,,,,,,,,,,,,,,,,,,,,,,,,,,,,,,,,,,,,,,,,,,,,,,,,,,,,,,,,,100192,001,2024-12-08_13h12.27.964,Test,2024.2.4,None,2024-12-08 13h12.37.920357 +0100,
28,150,150,44,None,25,25,0,,,,,,,,0,25,25,27,,,,,,,,,,,,,226.1254604999558,,,,,,,,,,,,,,,,,,,,,,,226.1206275000004,226.12942516600015,226.32791499997256,226.32791499997256,226.32791499997256,228.0255691249622,228.0255691249622,228.0123932909919,,,,,,,,,,,,,,,,,,,,,,,,,,,,,,,,,,,,,,,,,,,,,,,,,,,,,,,,,,,,100192,001,2024-12-08_13h12.27.964,Test,2024.2.4,None,2024-12-08 13h12.37.920357 +0100,
1,150,0,22,None,26,26,0,,,,,,,,0,26,26,0,,,,,,,,,,,,,228.0255691249622,,,,,,,,,,,,,,,,,,,,,,,228.02071262494428,228.03021154098678,228.2279226249666,228.2279226249666,228.2279226249666,229.92573849996552,229.92573849996552,229.912151040975,,,,,,,,,,,,,,,,,,,,,,,,,,,,,,,,,,,,,,,,,,,,,,,,,,,,,,,,,,,,100192,001,2024-12-08_13h12.27.964,Test,2024.2.4,None,2024-12-08 13h12.37.920357 +0100,
34,150,180,36,None,27,27,0,,,,,,,,0,27,27,33,,,,,,,,,,,,,229.92573849996552,,,,,,,,,,,,,,,,,,,,,,,229.920978790964,229.9297235829872,230.1279621249996,230.1279621249996,230.1279621249996,231.82554199994775,231.82554199994775,231.81211337499553,,,,,,,,,,,,,,,,,,,,,,,,,,,,,,,,,,,,,,,,,,,,,,,,,,,,,,,,,,,,100192,001,2024-12-08_13h12.27.964,Test,2024.2.4,None,2024-12-08 13h12.37.920357 +0100,
10,150,30,62,None,28,28,0,,,,,,,,0,28,28,9,,,,,,,,,,,,,231.82554199994775,,,,,,,,,,,,,,,,,,,,,,,231.8206620409619,231.8295030829613,232.02796129096532,232.02796129096532,232.02796129096532,233.7268209999893,233.7268209999893,233.7127100409707,,,,,,,,,,,,,,,,,,,,,,,,,,,,,,,,,,,,,,,,,,,,,,,,,,,,,,,,,,,,100192,001,2024-12-08_13h12.27.964,Test,2024.2.4,None,2024-12-08 13h12.37.920357 +0100,
35,150,180,25,None,29,29,0,,,,,,,,0,29,29,34,,,,,,,,,,,,,233.7268209999893,,,,,,,,,,,,,,,,,,,,,,,233.72189262497704,233.7306547499611,233.92840533296112,233.92840533296112,233.92840533296112,235.62547899998026,235.62547899998026,235.61249470798066,,,,,,,,,,,,,,,,,,,,,,,,,,,,,,,,,,,,,,,,,,,,,,,,,,,,,,,,,,,,100192,001,2024-12-08_13h12.27.964,Test,2024.2.4,None,2024-12-08 13h12.37.920357 +0100,
16,150,90,28,None,30,30,0,,,,,,,,0,30,30,15,,,,,,,,,,,,,235.62547899998026,,,,,,,,,,,,,,,,,,,,,,,235.62053333298536,235.63022904098034,235.82787408295553,235.82787408295553,235.82787408295553,237.52674862497952,237.52674862497952,237.51253074995475,,,,,,,,,,,,,,,,,,,,,,,,,,,,,,,,,,,,,,,,,,,,,,,,,,,,,,,,,,,,100192,001,2024-12-08_13h12.27.964,Test,2024.2.4,None,2024-12-08 13h12.37.920357 +0100,
25,150,120,46,None,31,31,0,,,,,,,,0,31,31,24,,,,,,,,,,,,,237.52674862497952,,,,,,,,,,,,,,,,,,,,,,,237.52175362495473,237.53071979095694,237.72834724996937,237.72834724996937,237.72834724996937,239.42687362496508,239.42687362496508,239.41284637496574,,,,,,,,,,,,,,,,,,,,,,,,,,,,,,,,,,,,,,,,,,,,,,,,,,,,,,,,,,,,100192,001,2024-12-08_13h12.27.964,Test,2024.2.4,None,2024-12-08 13h12.37.920357 +0100,
2,150,0,13,None,32,32,0,,,,,,,,0,32,32,1,,,,,,,,,,,,,239.42687362496508,,,,,,,,,,,,,,,,,,,,,,,239.42199420795077,239.43119649996515,239.6279714999837,239.6279714999837,239.6279714999837,241.3262599579757,241.3262599579757,241.3124663749477,,,,,,,,,,,,,,,,,,,,,,,,,,,,,,,,,,,,,,,,,,,,,,,,,,,,,,,,,,,,100192,001,2024-12-08_13h12.27.964,Test,2024.2.4,None,2024-12-08 13h12.37.920357 +0100,
12,150,60,32,None,33,33,0,,,,,,,,0,33,33,11,,,,,,,,,,,,,241.3262599579757,,,,,,,,,,,,,,,,,,,,,,,241.32127133297035,241.3312964999932,241.52788537496235,241.52788537496235,241.52788537496235,243.22697070799768,243.22697070799768,243.2126616249443,,,,,,,,,,,,,,,,,,,,,,,,,,,,,,,,,,,,,,,,,,,,,,,,,,,,,,,,,,,,100192,001,2024-12-08_13h12.27.964,Test,2024.2.4,None,2024-12-08 13h12.37.920357 +0100,
20,150,90,57,None,34,34,0,,,,,,,,0,34,34,19,,,,,,,,,,,,,243.22697070799768,,,,,,,,,,,,,,,,,,,,,,,243.22202995797852,243.23090133297956,243.4279223329504,243.4279223329504,243.4279223329504,245.11740912497044,245.11740912497044,245.11210079095326,,,,,,,,,,,,,,,,,,,,,,,,,,,,,,,,,,,,,,,,,,,,,,,,,,,,,,,,,,,,100192,001,2024-12-08_13h12.27.964,Test,2024.2.4,None,2024-12-08 13h12.37.920357 +0100,
,,,,,,,,,,,,,,,,,,,,,,,,,,,,,,,,,,,,,,,,,,,,,,,,,,,,,,,,,,,,,,245.1123552499921,245.12703816598514,245.12703816598514,249.06293549999828,space,3.925768750021234,None,,,,,,,,,,,,,,,,,,,,,,,,,,,,,,,,,,,,,,,,,,,,,,,,,,,,,100192,001,2024-12-08_13h12.27.964,Test,2024.2.4,None,2024-12-08 13h12.37.920357 +0100,
63,150,150,8,None,0,0,0,True,right,2.58598458400229,None,,,,,,,,0,0,0,0,,,,,,,,,249.09580720798112,,,,,,,,,,,,,,,,,,,,,,,,,,,,,,,,,,,,,,249.08631387498463,249.09580720798112,250.09497970796656,251.06132583296858,251.06132583296858,251.06132583296858,253.65241237496957,right,2.58598458400229,None,,,,,,,,,,,,,,,,,,,,,,,,,,,,,,,,,,,,,,,,,,,100192,001,2024-12-08_13h12.27.964,Test,2024.2.4,None,2024-12-08 13h12.37.920357 +0100,
27,150,150,29,None,1,1,0,False,right,1.3153499999898486,None,,,,,,,,0,1,1,1,,,,,,,,,253.74338141595945,,,,,,,,,,,,,,,,,,,,,,,,,,,,,,,,,,,,,,253.65997766598593,253.74338141595945,254.7332937909523,255.65227974997833,255.65227974997833,255.65227974997833,256.9699914579978,right,1.3153499999898486,None,,,,,,,,,,,,,,,,,,,,,,,,,,,,,,,,,,,,,,,,,,,100192,001,2024-12-08_13h12.27.964,Test,2024.2.4,None,2024-12-08 13h12.37.920357 +0100,
65,150,150,34,None,2,2,0,True,right,1.2403614160139114,None,,,,,,,,0,2,2,2,,,,,,,,,256.99367837497266,,,,,,,,,,,,,,,,,,,,,,,,,,,,,,,,,,,,,,256.9873794579762,256.99367837497266,257.98404604097595,258.97296470799483,258.97296470799483,258.97296470799483,260.2198173329816,right,1.2403614160139114,None,,,,,,,,,,,,,,,,,,,,,,,,,,,,,,,,,,,,,,,,,,,100192,001,2024-12-08_13h12.27.964,Test,2024.2.4,None,2024-12-08 13h12.37.920357 +0100,
54,150,90,42,None,3,3,0,True,left,1.5236127090174705,None,,,,,,,,0,3,3,3,,,,,,,,,260.2355927909957,,,,,,,,,,,,,,,,,,,,,,,,,,,,,,,,,,,,,,260.22945120796794,260.2355927909957,261.232896707952,262.2183635829715,262.2183635829715,262.2183635829715,263.7471441659727,left,1.5236127090174705,None,,,,,,,,,,,,,,,,,,,,,,,,,,,,,,,,,,,,,,,,,,,100192,001,2024-12-08_13h12.27.964,Test,2024.2.4,None,2024-12-08 13h12.37.920357 +0100,
30,150,150,18,None,4,4,0,False,left,0.9117115830304101,None,,,,,,,,0,4,4,4,,,,,,,,,263.7626788329799,,,,,,,,,,,,,,,,,,,,,,,,,,,,,,,,,,,,,,263.75630812498275,263.7626788329799,264.7611888749525,265.74458045797655,265.74458045797655,265.74458045797655,266.6638187079807,left,0.9117115830304101,None,,,,,,,,,,,,,,,,,,,,,,,,,,,,,,,,,,,,,,,,,,,100192,001,2024-12-08_13h12.27.964,Test,2024.2.4,None,2024-12-08 13h12.37.920357 +0100,
32,150,180,40,None,5,5,0,False,left,1.7736886669881642,None,,,,,,,,0,5,5,5,,,,,,,,,266.6796860829927,,,,,,,,,,,,,,,,,,,,,,,,,,,,,,,,,,,,,,266.672619415971,266.6796860829927,267.67786758299917,268.66134137497284,268.66134137497284,268.66134137497284,270.43732654099585,left,1.7736886669881642,None,,,,,,,,,,,,,,,,,,,,,,,,,,,,,,,,,,,,,,,,,,,100192,001,2024-12-08_13h12.27.964,Test,2024.2.4,None,2024-12-08 13h12.37.920357 +0100,
35,150,180,25,None,6,6,0,False,left,1.0168640419724397,None,,,,,,,,0,6,6,6,,,,,,,,,270.4528049159562,,,,,,,,,,,,,,,,,,,,,,,,,,,,,,,,,,,,,,270.44664841599297,270.4528049159562,271.449103166,272.43513329100097,272.43513329100097,272.43513329100097,273.46372174995486,left,1.0168640419724397,None,,,,,,,,,,,,,,,,,,,,,,,,,,,,,,,,,,,,,,,,,,,100192,001,2024-12-08_13h12.27.964,Test,2024.2.4,None,2024-12-08 13h12.37.920357 +0100,
6,150,30,1,None,7,7,0,False,right,2.7083691250300035,None,,,,,,,,0,7,7,7,,,,,,,,,273.47840191598516,,,,,,,,,,,,,,,,,,,,,,,,,,,,,,,,,,,,,,273.4725194579805,273.47840191598516,274.466263374954,275.4618197079981,275.4618197079981,275.4618197079981,278.1803438329953,right,2.7083691250300035,None,,,,,,,,,,,,,,,,,,,,,,,,,,,,,,,,,,,,,,,,,,,100192,001,2024-12-08_13h12.27.964,Test,2024.2.4,None,2024-12-08 13h12.37.920357 +0100,
53,150,90,7,None,8,8,0,True,left,0.9754315830068663,None,,,,,,,,0,8,8,8,,,,,,,,,278.1966975829564,,,,,,,,,,,,,,,,,,,,,,,,,,,,,,,,,,,,,,278.190572915948,278.1966975829564,279.19501066597877,280.17796795797767,280.17796795797767,280.17796795797767,281.1636257909704,left,0.9754315830068663,None,,,,,,,,,,,,,,,,,,,,,,,,,,,,,,,,,,,,,,,,,,,100192,001,2024-12-08_13h12.27.964,Test,2024.2.4,None,2024-12-08 13h12.37.920357 +0100,
52,150,90,68,None,9,9,0,True,left,1.0434615839621983,None,,,,,,,,0,9,9,9,,,,,,,,,281.17894224997144,,,,,,,,,,,,,,,,,,,,,,,,,,,,,,,,,,,,,,281.17273224995006,281.17894224997144,282.178240374953,283.16122174996417,283.16122174996417,283.16122174996417,284.21372887498,left,1.0434615839621983,None,,,,,,,,,,,,,,,,,,,,,,,,,,,,,,,,,,,,,,,,,,,100192,001,2024-12-08_13h12.27.964,Test,2024.2.4,None,2024-12-08 13h12.37.920357 +0100,
61,150,150,2,None,10,10,0,True,left,1.179445041983854,None,,,,,,,,0,10,10,10,,,,,,,,,284.22921662498266,,,,,,,,,,,,,,,,,,,,,,,,,,,,,,,,,,,,,,284.22285520797595,284.22921662498266,285.21728266595164,286.21157587500056,286.21157587500056,286.21157587500056,287.39700474997517,left,1.179445041983854,None,,,,,,,,,,,,,,,,,,,,,,,,,,,,,,,,,,,,,,,,,,,100192,001,2024-12-08_13h12.27.964,Test,2024.2.4,None,2024-12-08 13h12.37.920357 +0100,
4,150,0,41,None,11,11,0,False,right,0.9779270419967361,None,,,,,,,,0,11,11,11,,,,,,,,,287.4127316249651,,,,,,,,,,,,,,,,,,,,,,,,,,,,,,,,,,,,,,287.405991290987,287.4127316249651,288.4110936659854,289.3946710409946,289.3946710409946,289.3946710409946,290.3803838749882,right,0.9779270419967361,None,,,,,,,,,,,,,,,,,,,,,,,,,,,,,,,,,,,,,,,,,,,100192,001,2024-12-08_13h12.27.964,Test,2024.2.4,None,2024-12-08 13h12.37.920357 +0100,
16,150,90,28,None,12,12,0,False,left,1.7679830830311403,None,,,,,,,,0,12,12,12,,,,,,,,,290.39537033298984,,,,,,,,,,,,,,,,,,,,,,,,,,,,,,,,,,,,,,290.38871695799753,290.39537033298984,291.38316208298784,292.3780617499724,292.3780617499724,292.3780617499724,294.15358795796055,left,1.7679830830311403,None,,,,,,,,,,,,,,,,,,,,,,,,,,,,,,,,,,,,,,,,,,,100192,001,2024-12-08_13h12.27.964,Test,2024.2.4,None,2024-12-08 13h12.37.920357 +0100,
59,150,120,58,None,13,13,0,True,left,1.176135667017661,None,,,,,,,,0,13,13,13,,,,,,,,,294.1681824999978,,,,,,,,,,,,,,,,,,,,,,,,,,,,,,,,,,,,,,294.16233954095514,294.1681824999978,295.16126762499334,296.15267058298923,296.15267058298923,296.15267058298923,297.33121158299036,left,1.176135667017661,None,,,,,,,,,,,,,,,,,,,,,,,,,,,,,,,,,,,,,,,,,,,100192,001,2024-12-08_13h12.27.964,Test,2024.2.4,None,2024-12-08 13h12.37.920357 +0100,
31,150,180,6,None,14,14,0,False,left,1.4012221670127474,None,,,,,,,,0,14,14,14,,,,,,,,,297.3460400409531,,,,,,,,,,,,,,,,,,,,,,,,,,,,,,,,,,,,,,297.3394779159571,297.3460400409531,298.34497654094594,299.32849975000136,299.32849975000136,299.32849975000136,300.7370761659695,left,1.4012221670127474,None,,,,,,,,,,,,,,,,,,,,,,,,,,,,,,,,,,,,,,,,,,,100192,001,2024-12-08_13h12.27.964,Test,2024.2.4,None,2024-12-08 13h12.37.920357 +0100,
7,150,30,52,None,15,15,0,False,left,0.9101857079658657,None,,,,,,,,0,15,15,15,,,,,,,,,300.7516512500006,,,,,,,,,,,,,,,,,,,,,,,,,,,,,,,,,,,,,,300.74574208294507,300.7516512500006,301.7501514579635,302.73510291596176,302.73510291596176,302.73510291596176,303.64765291596996,left,0.9101857079658657,None,,,,,,,,,,,,,,,,,,,,,,,,,,,,,,,,,,,,,,,,,,,100192,001,2024-12-08_13h12.27.964,Test,2024.2.4,None,2024-12-08 13h12.37.920357 +0100,
45,150,30,43,None,16,16,0,True,left,0.8542379999998957,None,,,,,,,,0,16,16,16,,,,,,,,,303.6625207499601,,,,,,,,,,,,,,,,,,,,,,,,,,,,,,,,,,,,,,303.6566604159889,303.6625207499601,304.64972637494793,305.6446490409435,305.6446490409435,305.6446490409435,306.50324374996126,left,0.8542379999998957,None,,,,,,,,,,,,,,,,,,,,,,,,,,,,,,,,,,,,,,,,,,,100192,001,2024-12-08_13h12.27.964,Test,2024.2.4,None,2024-12-08 13h12.37.920357 +0100,
47,150,60,23,None,17,17,0,True,left,1.931570166023448,None,,,,,,,,0,17,17,17,,,,,,,,,306.5162659579655,,,,,,,,,,,,,,,,,,,,,,,,,,,,,,,,,,,,,,306.51057254098123,306.5162659579655,307.5116247909609,308.50237499998184,308.50237499998184,308.50237499998184,310.4367727909703,left,1.931570166023448,None,,,,,,,,,,,,,,,,,,,,,,,,,,,,,,,,,,,,,,,,,,,100192,001,2024-12-08_13h12.27.964,Test,2024.2.4,None,2024-12-08 13h12.37.920357 +0100,
24,150,120,4,None,18,18,0,False,left,1.505121499998495,None,,,,,,,,0,18,18,18,,,,,,,,,310.45123149995925,,,,,,,,,,,,,,,,,,,,,,,,,,,,,,,,,,,,,,310.44533224997576,310.45123149995925,311.4450375000015,312.4355851250002,312.4355851250002,312.4355851250002,313.94716104096733,left,1.505121499998495,None,,,,,,,,,,,,,,,,,,,,,,,,,,,,,,,,,,,,,,,,,,,100192,001,2024-12-08_13h12.27.964,Test,2024.2.4,None,2024-12-08 13h12.37.920357 +0100,
14,150,60,3,None,19,19,0,False,right,2.0936687079956755,None,,,,,,,,0,19,19,19,,,,,,,,,313.9625377909979,,,,,,,,,,,,,,,,,,,,,,,,,,,,,,,,,,,,,,313.9562462909962,313.9625377909979,314.95042454096256,315.94468054099707,315.94468054099707,315.94468054099707,318.04744783299975,right,2.0936687079956755,None,,,,,,,,,,,,,,,,,,,,,,,,,,,,,,,,,,,,,,,,,,,100192,001,2024-12-08_13h12.27.964,Test,2024.2.4,None,2024-12-08 13h12.37.920357 +0100,
36,150,0,70,None,20,20,0,True,left,1.2182220830000006,None,,,,,,,,0,20,20,20,,,,,,,,,318.0643234999734,,,,,,,,,,,,,,,,,,,,,,,,,,,,,,,,,,,,,,318.0573204579996,318.0643234999734,319.0612315829494,320.0446126249735,320.0446126249735,320.0446126249735,321.2694369579549,left,1.2182220830000006,None,,,,,,,,,,,,,,,,,,,,,,,,,,,,,,,,,,,,,,,,,,,100192,001,2024-12-08_13h12.27.964,Test,2024.2.4,None,2024-12-08 13h12.37.920357 +0100,
1,150,0,22,None,21,21,0,False,right,1.3270173329510726,None,,,,,,,,0,21,21,21,,,,,,,,,321.2848449999583,,,,,,,,,,,,,,,,,,,,,,,,,,,,,,,,,,,,,,321.27803962497273,321.2848449999583,322.27833424997516,323.26833891595015,323.26833891595015,323.26833891595015,324.6060494579724,right,1.3270173329510726,None,,,,,,,,,,,,,,,,,,,,,,,,,,,,,,,,,,,,,,,,,,,100192,001,2024-12-08_13h12.27.964,Test,2024.2.4,None,2024-12-08 13h12.37.920357 +0100,
25,150,120,46,None,22,22,0,False,left,2.033285832963884,None,,,,,,,,0,22,22,22,,,,,,,,,324.61904283298645,,,,,,,,,,,,,,,,,,,,,,,,,,,,,,,,,,,,,,324.61436262499774,324.61904283298645,325.61625991598703,326.6020304999547,326.6020304999547,326.6020304999547,328.6470759160002,left,2.033285832963884,None,,,,,,,,,,,,,,,,,,,,,,,,,,,,,,,,,,,,,,,,,,,100192,001,2024-12-08_13h12.27.964,Test,2024.2.4,None,2024-12-08 13h12.37.920357 +0100,
34,150,180,36,None,23,23,0,False,right,2.4565409590140916,None,,,,,,,,0,23,23,23,,,,,,,,,328.6629622079781,,,,,,,,,,,,,,,,,,,,,,,,,,,,,,,,,,,,,,328.6561245409539,328.6629622079781,329.6611904159654,330.6446838330012,330.6446838330012,330.6446838330012,333.1137466660002,right,2.4565409590140916,None,,,,,,,,,,,,,,,,,,,,,,,,,,,,,,,,,,,,,,,,,,,100192,001,2024-12-08_13h12.27.964,Test,2024.2.4,None,2024-12-08 13h12.37.920357 +0100,
49,150,60,26,None,24,24,0,True,left,1.0279744159779511,None,,,,,,,,0,24,24,24,,,,,,,,,333.128899207979,,,,,,,,,,,,,,,,,,,,,,,,,,,,,,,,,,,,,,333.12265166599536,333.128899207979,334.11721066595055,335.11134329094784,335.11134329094784,335.11134329094784,336.1471371660009,left,1.0279744159779511,None,,,,,,,,,,,,,,,,,,,,,,,,,,,,,,,,,,,,,,,,,,,100192,001,2024-12-08_13h12.27.964,Test,2024.2.4,None,2024-12-08 13h12.37.920357 +0100,
55,150,90,55,None,25,25,0,True,left,5.024747957999352,None,,,,,,,,0,25,25,25,,,,,,,,,336.16155645798426,,,,,,,,,,,,,,,,,,,,,,,,,,,,,,,,,,,,,,336.15535604098113,336.16155645798426,337.150786290993,338.1446882909513,338.1446882909513,338.1446882909513,343.180351832998,left,5.024747957999352,None,341.13405791594414,341.13405791594414,341.143462915963,,,,,,,,,,,,,,,,,,,,,,,,,,,,,,,,,,,,,,,,100192,001,2024-12-08_13h12.27.964,Test,2024.2.4,None,2024-12-08 13h12.37.920357 +0100,
21,150,120,54,None,26,26,0,False,right,1.2140545829897746,None,,,,,,,,0,26,26,26,,,,,,,,,343.1955017079599,,,,,,,,,,,,,,,,,,,,,,,,,,,,,,,,,,,,,,343.18901120795636,343.1955017079599,344.1837410409935,345.17853262496646,345.17853262496646,345.17853262496646,346.3971448749653,right,1.2140545829897746,None,,,,,,,,,,,,,,,,,,,,,,,,,,,,,,,,,,,,,,,,,,,100192,001,2024-12-08_13h12.27.964,Test,2024.2.4,None,2024-12-08 13h12.37.920357 +0100,
60,150,120,47,None,27,27,0,True,left,1.2004755830275826,None,,,,,,,,0,27,27,27,,,,,,,,,346.4128651249921,,,,,,,,,,,,,,,,,,,,,,,,,,,,,,,,,,,,,,346.4061839579954,346.4128651249921,347.4117098329589,348.39484941598494,348.39484941598494,348.39484941598494,349.59796495799674,left,1.2004755830275826,None,,,,,,,,,,,,,,,,,,,,,,,,,,,,,,,,,,,,,,,,,,,100192,001,2024-12-08_13h12.27.964,Test,2024.2.4,None,2024-12-08 13h12.37.920357 +0100,
64,150,150,19,None,28,28,0,True,left,1.603145459026564,None,,,,,,,,0,28,28,28,,,,,,,,,349.6127949159709,,,,,,,,,,,,,,,,,,,,,,,,,,,,,,,,,,,,,,349.6068050409667,349.6127949159709,350.6111656659632,351.5947145409882,351.5947145409882,351.5947145409882,353.2032364999759,left,1.603145459026564,None,,,,,,,,,,,,,,,,,,,,,,,,,,,,,,,,,,,,,,,,,,,100192,001,2024-12-08_13h12.27.964,Test,2024.2.4,None,2024-12-08 13h12.37.920357 +0100,
46,150,60,38,None,29,29,0,True,left,2.0944742080173455,None,,,,,,,,0,29,29,29,,,,,,,,,353.217473165947,,,,,,,,,,,,,,,,,,,,,,,,,,,,,,,,,,,,,,353.2114984159707,353.217473165947,354.211264499987,355.2016577909817,355.2016577909817,355.2016577909817,357.3033309999737,left,2.0944742080173455,None,,,,,,,,,,,,,,,,,,,,,,,,,,,,,,,,,,,,,,,,,,,100192,001,2024-12-08_13h12.27.964,Test,2024.2.4,None,2024-12-08 13h12.37.920357 +0100,
51,150,90,64,None,30,30,0,True,left,1.4605158329941332,None,,,,,,,,0,30,30,30,,,,,,,,,357.318514124956,,,,,,,,,,,,,,,,,,,,,,,,,,,,,,,,,,,,,,357.3124060409609,357.318514124956,358.3170283329673,359.3017239579931,359.3017239579931,359.3017239579931,360.76526112499414,left,1.4605158329941332,None,,,,,,,,,,,,,,,,,,,,,,,,,,,,,,,,,,,,,,,,,,,100192,001,2024-12-08_13h12.27.964,Test,2024.2.4,None,2024-12-08 13h12.37.920357 +0100,
10,150,30,62,None,31,31,0,False,left,0.8136725410004146,None,,,,,,,,0,31,31,31,,,,,,,,,360.7800813749782,,,,,,,,,,,,,,,,,,,,,,,,,,,,,,,,,,,,,,360.77397137496155,360.7800813749782,361.7783450829447,362.76136366598075,362.76136366598075,362.76136366598075,363.5803024159977,left,0.8136725410004146,None,,,,,,,,,,,,,,,,,,,,,,,,,,,,,,,,,,,,,,,,,,,100192,001,2024-12-08_13h12.27.964,Test,2024.2.4,None,2024-12-08 13h12.37.920357 +0100,
58,150,120,17,None,32,32,0,True,left,0.5508604170172475,None,,,,,,,,0,32,32,32,,,,,,,,,363.59561583295,,,,,,,,,,,,,,,,,,,,,,,,,,,,,,,,,,,,,,363.58942549995845,363.59561583295,364.5834636249929,365.57799695798894,365.57799695798894,365.57799695798894,366.1316176249529,left,0.5508604170172475,None,,,,,,,,,,,,,,,,,,,,,,,,,,,,,,,,,,,,,,,,,,,100192,001,2024-12-08_13h12.27.964,Test,2024.2.4,None,2024-12-08 13h12.37.920357 +0100,
57,150,120,50,None,33,33,0,True,left,0.4174055829644203,None,,,,,,,,0,33,33,33,,,,,,,,,366.14609662495786,,,,,,,,,,,,,,,,,,,,,,,,,,,,,,,,,,,,,,366.140191665967,366.14609662495786,367.14503708295524,368.12800804094877,368.12800804094877,368.12800804094877,368.55613558297046,left,0.4174055829644203,None,,,,,,,,,,,,,,,,,,,,,,,,,,,,,,,,,,,,,,,,,,,100192,001,2024-12-08_13h12.27.964,Test,2024.2.4,None,2024-12-08 13h12.37.920357 +0100,
39,150,0,53,None,34,34,0,True,left,0.9875535420142114,None,,,,,,,,0,34,34,34,,,,,,,,,368.5677534159622,,,,,,,,,,,,,,,,,,,,,,,,,,,,,,,,,,,,,,368.56330208299914,368.5677534159622,369.56132433295716,370.5511191249825,370.5511191249825,370.5511191249825,371.5473971659667,left,0.9875535420142114,None,,,,,,,,,,,,,,,,,,,,,,,,,,,,,,,,,,,,,,,,,,,100192,001,2024-12-08_13h12.27.964,Test,2024.2.4,None,2024-12-08 13h12.37.920357 +0100,
43,150,30,20,None,35,35,0,True,left,0.8380512919975445,None,,,,,,,,0,35,35,35,,,,,,,,,371.5641409579548,,,,,,,,,,,,,,,,,,,,,,,,,,,,,,,,,,,,,,371.55684779095463,371.5641409579548,372.56171804096084,373.54472404095577,373.54472404095577,373.54472404095577,374.3861132079619,left,0.8380512919975445,None,,,,,,,,,,,,,,,,,,,,,,,,,,,,,,,,,,,,,,,,,,,100192,001,2024-12-08_13h12.27.964,Test,2024.2.4,None,2024-12-08 13h12.37.920357 +0100,
33,150,180,30,None,36,36,0,False,right,1.2199322499800473,None,,,,,,,,0,36,36,36,,,,,,,,,374.4008732079528,,,,,,,,,,,,,,,,,,,,,,,,,,,,,,,,,,,,,,374.39465166599257,374.4008732079528,375.39501779095735,376.385528874991,376.385528874991,376.385528874991,377.613765499962,right,1.2199322499800473,None,,,,,,,,,,,,,,,,,,,,,,,,,,,,,,,,,,,,,,,,,,,100192,001,2024-12-08_13h12.27.964,Test,2024.2.4,None,2024-12-08 13h12.37.920357 +0100,
8,150,30,61,None,37,37,0,False,right,1.1574144170153886,None,,,,,,,,0,37,37,37,,,,,,,,,377.6291878329939,,,,,,,,,,,,,,,,,,,,,,,,,,,,,,,,,,,,,,377.62269583297893,377.6291878329939,378.62794049998047,379.6112954579876,379.6112954579876,379.6112954579876,380.7713439159561,right,1.1574144170153886,None,,,,,,,,,,,,,,,,,,,,,,,,,,,,,,,,,,,,,,,,,,,100192,001,2024-12-08_13h12.27.964,Test,2024.2.4,None,2024-12-08 13h12.37.920357 +0100,
38,150,0,35,None,38,38,0,True,left,1.6000814579892904,None,,,,,,,,0,38,38,38,,,,,,,,,380.78603308298625,,,,,,,,,,,,,,,,,,,,,,,,,,,,,,,,,,,,,,380.7802052079933,380.78603308298625,381.78288524999516,382.7697504159878,382.7697504159878,382.7697504159878,384.3803355409764,left,1.6000814579892904,None,,,,,,,,,,,,,,,,,,,,,,,,,,,,,,,,,,,,,,,,,,,100192,001,2024-12-08_13h12.27.964,Test,2024.2.4,None,2024-12-08 13h12.37.920357 +0100,
42,150,30,37,None,39,39,0,True,left,0.7686762919765897,None,,,,,,,,0,39,39,39,,,,,,,,,384.3958186659729,,,,,,,,,,,,,,,,,,,,,,,,,,,,,,,,,,,,,,384.38879441597965,384.3958186659729,385.39495437499136,386.37801816599676,386.37801816599676,386.37801816599676,387.1536790409591,left,0.7686762919765897,None,,,,,,,,,,,,,,,,,,,,,,,,,,,,,,,,,,,,,,,,,,,100192,001,2024-12-08_13h12.27.964,Test,2024.2.4,None,2024-12-08 13h12.37.920357 +0100,
9,150,30,11,None,40,40,0,False,left,1.0113604160142131,None,,,,,,,,0,40,40,40,,,,,,,,,387.1682773329667,,,,,,,,,,,,,,,,,,,,,,,,,,,,,,,,,,,,,,387.1619779999601,387.1682773329667,388.16120599996066,389.1513744579861,389.1513744579861,389.1513744579861,390.1697327909642,left,1.0113604160142131,None,,,,,,,,,,,,,,,,,,,,,,,,,,,,,,,,,,,,,,,,,,,100192,001,2024-12-08_13h12.27.964,Test,2024.2.4,None,2024-12-08 13h12.37.920357 +0100,
17,150,90,49,None,41,41,0,False,left,0.7719175830134191,None,,,,,,,,0,41,41,41,,,,,,,,,390.1844112909748,,,,,,,,,,,,,,,,,,,,,,,,,,,,,,,,,,,,,,390.177874957968,390.1844112909748,391.1779203329934,392.1682614579913,392.1682614579913,392.1682614579913,392.94710395799484,left,0.7719175830134191,None,,,,,,,,,,,,,,,,,,,,,,,,,,,,,,,,,,,,,,,,,,,100192,001,2024-12-08_13h12.27.964,Test,2024.2.4,None,2024-12-08 13h12.37.920357 +0100,
28,150,150,44,None,42,42,0,False,left,2.0604042499908246,None,,,,,,,,0,42,42,42,,,,,,,,,392.9618799999589,,,,,,,,,,,,,,,,,,,,,,,,,,,,,,,,,,,,,,392.9556489159586,392.9618799999589,393.9503945829929,394.9447101659607,394.9447101659607,394.9447101659607,397.01374408300035,left,2.0604042499908246,None,,,,,,,,,,,,,,,,,,,,,,,,,,,,,,,,,,,,,,,,,,,100192,001,2024-12-08_13h12.27.964,Test,2024.2.4,None,2024-12-08 13h12.37.920357 +0100,
56,150,120,48,None,43,43,0,True,left,0.8565842499956489,None,,,,,,,,0,43,43,43,,,,,,,,,397.0296497079544,,,,,,,,,,,,,,,,,,,,,,,,,,,,,,,,,,,,,,397.0229393749614,397.0296497079544,398.0284135409747,399.011415499961,399.011415499961,399.011415499961,399.88042566599324,left,0.8565842499956489,None,,,,,,,,,,,,,,,,,,,,,,,,,,,,,,,,,,,,,,,,,,,100192,001,2024-12-08_13h12.27.964,Test,2024.2.4,None,2024-12-08 13h12.37.920357 +0100,
41,150,30,59,None,44,44,0,True,left,0.6577341249794699,None,,,,,,,,0,44,44,44,,,,,,,,,399.89627679099794,,,,,,,,,,,,,,,,,,,,,,,,,,,,,,,,,,,,,,399.88973420794355,399.89627679099794,400.8950964999967,401.87811366596725,401.87811366596725,401.87811366596725,402.5461875409819,left,0.6577341249794699,None,,,,,,,,,,,,,,,,,,,,,,,,,,,,,,,,,,,,,,,,,,,100192,001,2024-12-08_13h12.27.964,Test,2024.2.4,None,2024-12-08 13h12.37.920357 +0100,
19,150,90,21,None,45,45,0,False,left,1.3080550000304356,None,,,,,,,,0,45,45,45,,,,,,,,,402.5574619579711,,,,,,,,,,,,,,,,,,,,,,,,,,,,,,,,,,,,,,402.5528712909436,402.5574619579711,403.5500381249585,404.5446960409754,404.5446960409754,404.5446960409754,405.8639998329454,left,1.3080550000304356,None,,,,,,,,,,,,,,,,,,,,,,,,,,,,,,,,,,,,,,,,,,,100192,001,2024-12-08_13h12.27.964,Test,2024.2.4,None,2024-12-08 13h12.37.920357 +0100,
15,150,60,39,None,46,46,0,False,left,1.1919709580251947,None,,,,,,,,0,46,46,46,,,,,,,,,405.87907183298375,,,,,,,,,,,,,,,,,,,,,,,,,,,,,,,,,,,,,,405.8724901249516,405.87907183298375,406.86631466599647,407.8612147499807,407.8612147499807,407.8612147499807,409.06367958296323,left,1.1919709580251947,None,,,,,,,,,,,,,,,,,,,,,,,,,,,,,,,,,,,,,,,,,,,100192,001,2024-12-08_13h12.27.964,Test,2024.2.4,None,2024-12-08 13h12.37.920357 +0100,
69,150,180,31,None,47,47,0,True,left,0.819083291979041,None,,,,,,,,0,47,47,47,,,,,,,,,409.0787601249758,,,,,,,,,,,,,,,,,,,,,,,,,,,,,,,,,,,,,,409.0723983749631,409.0787601249758,410.0672986249556,411.061331874982,411.061331874982,411.061331874982,411.88551741599804,left,0.819083291979041,None,,,,,,,,,,,,,,,,,,,,,,,,,,,,,,,,,,,,,,,,,,,100192,001,2024-12-08_13h12.27.964,Test,2024.2.4,None,2024-12-08 13h12.37.920357 +0100,
37,150,0,45,None,48,48,0,True,left,0.7894861660315655,None,,,,,,,,0,48,48,48,,,,,,,,,411.89877991599496,,,,,,,,,,,,,,,,,,,,,,,,,,,,,,,,,,,,,,411.89339862496126,411.89877991599496,412.89503741596127,413.885275040986,413.885275040986,413.885275040986,414.68049441598123,left,0.7894861660315655,None,,,,,,,,,,,,,,,,,,,,,,,,,,,,,,,,,,,,,,,,,,,100192,001,2024-12-08_13h12.27.964,Test,2024.2.4,None,2024-12-08 13h12.37.920357 +0100,
50,150,60,65,None,49,49,0,True,left,0.8718647920177318,None,,,,,,,,0,49,49,49,,,,,,,,,414.6950442909729,,,,,,,,,,,,,,,,,,,,,,,,,,,,,,,,,,,,,,414.6891880829935,414.6950442909729,415.6829352499917,416.67810699995607,416.67810699995607,416.67810699995607,417.5531447499525,left,0.8718647920177318,None,,,,,,,,,,,,,,,,,,,,,,,,,,,,,,,,,,,,,,,,,,,100192,001,2024-12-08_13h12.27.964,Test,2024.2.4,None,2024-12-08 13h12.37.920357 +0100,
26,150,150,9,None,50,50,0,False,right,1.3533918330213055,None,,,,,,,,0,50,50,50,,,,,,,,,417.56751845794497,,,,,,,,,,,,,,,,,,,,,,,,,,,,,,,,,,,,,,417.56151587498607,417.56751845794497,418.5616774579976,419.55209245794686,419.55209245794686,419.55209245794686,420.91383529099403,right,1.3533918330213055,None,,,,,,,,,,,,,,,,,,,,,,,,,,,,,,,,,,,,,,,,,,,100192,001,2024-12-08_13h12.27.964,Test,2024.2.4,None,2024-12-08 13h12.37.920357 +0100,
40,150,0,15,None,51,51,0,True,left,0.6699874580372125,None,,,,,,,,0,51,51,51,,,,,,,,,420.9293714159867,,,,,,,,,,,,,,,,,,,,,,,,,,,,,,,,,,,,,,420.9227154579712,420.9293714159867,421.927886749967,422.91130304097896,422.91130304097896,422.91130304097896,423.5862683329615,left,0.6699874580372125,None,,,,,,,,,,,,,,,,,,,,,,,,,,,,,,,,,,,,,,,,,,,100192,001,2024-12-08_13h12.27.964,Test,2024.2.4,None,2024-12-08 13h12.37.920357 +0100,
3,150,0,24,None,52,52,0,False,left,1.2342109169694595,None,,,,,,,,0,52,52,52,,,,,,,,,423.59957958298037,,,,,,,,,,,,,,,,,,,,,,,,,,,,,,,,,,,,,,423.59420416597277,423.59957958298037,424.594693291001,425.5850615829695,425.5850615829695,425.5850615829695,426.83042054099496,left,1.2342109169694595,None,,,,,,,,,,,,,,,,,,,,,,,,,,,,,,,,,,,,,,,,,,,100192,001,2024-12-08_13h12.27.964,Test,2024.2.4,None,2024-12-08 13h12.37.920357 +0100,
23,150,120,5,None,53,53,0,False,left,0.7120177089818753,None,,,,,,,,0,53,53,53,,,,,,,,,426.8458397499635,,,,,,,,,,,,,,,,,,,,,,,,,,,,,,,,,,,,,,426.8386002079933,426.8458397499635,427.8331380409654,428.8285523329978,428.8285523329978,428.8285523329978,429.5466709579923,left,0.7120177089818753,None,,,,,,,,,,,,,,,,,,,,,,,,,,,,,,,,,,,,,,,,,,,100192,001,2024-12-08_13h12.27.964,Test,2024.2.4,None,2024-12-08 13h12.37.920357 +0100,
62,150,150,12,None,54,54,0,True,right,1.6760340410401113,None,,,,,,,,0,54,54,54,,,,,,,,,429.5611382909701,,,,,,,,,,,,,,,,,,,,,,,,,,,,,,,,,,,,,,429.5548680409556,429.5611382909701,430.54915237496607,431.5447289579897,431.5447289579897,431.5447289579897,433.23040887498064,right,1.6760340410401113,None,,,,,,,,,,,,,,,,,,,,,,,,,,,,,,,,,,,,,,,,,,,100192,001,2024-12-08_13h12.27.964,Test,2024.2.4,None,2024-12-08 13h12.37.920357 +0100,
5,150,0,67,None,55,55,0,False,left,0.6795147089869715,None,,,,,,,,0,55,55,55,,,,,,,,,433.24464379099663,,,,,,,,,,,,,,,,,,,,,,,,,,,,,,,,,,,,,,433.23868845799007,433.24464379099663,434.23372333298903,435.22794241597876,435.22794241597876,435.22794241597876,435.91436979098944,left,0.6795147089869715,None,,,,,,,,,,,,,,,,,,,,,,,,,,,,,,,,,,,,,,,,,,,100192,001,2024-12-08_13h12.27.964,Test,2024.2.4,None,2024-12-08 13h12.37.920357 +0100,
70,150,180,69,None,56,56,0,True,right,1.0842569170054048,None,,,,,,,,0,56,56,56,,,,,,,,,435.9293705409509,,,,,,,,,,,,,,,,,,,,,,,,,,,,,,,,,,,,,,435.92333783296635,435.9293705409509,436.92788204096723,437.911920249986,437.911920249986,437.911920249986,439.0032897909987,right,1.0842569170054048,None,,,,,,,,,,,,,,,,,,,,,,,,,,,,,,,,,,,,,,,,,,,100192,001,2024-12-08_13h12.27.964,Test,2024.2.4,None,2024-12-08 13h12.37.920357 +0100,
20,150,90,57,None,57,57,0,False,left,1.5276849999791011,None,,,,,,,,0,57,57,57,,,,,,,,,439.01732212497154,,,,,,,,,,,,,,,,,,,,,,,,,,,,,,,,,,,,,,439.01155349996407,439.01732212497154,440.01128791598603,441.00171166594373,441.00171166594373,441.00171166594373,442.536477290967,left,1.5276849999791011,None,,,,,,,,,,,,,,,,,,,,,,,,,,,,,,,,,,,,,,,,,,,100192,001,2024-12-08_13h12.27.964,Test,2024.2.4,None,2024-12-08 13h12.37.920357 +0100,
22,150,120,33,None,58,58,0,False,left,0.9105108749936335,None,,,,,,,,0,58,58,58,,,,,,,,,442.5510405829991,,,,,,,,,,,,,,,,,,,,,,,,,,,,,,,,,,,,,,442.54484099999536,442.5510405829991,443.54994466598146,444.53566916595446,444.53566916595446,444.53566916595446,445.4528367499588,left,0.9105108749936335,None,,,,,,,,,,,,,,,,,,,,,,,,,,,,,,,,,,,,,,,,,,,100192,001,2024-12-08_13h12.27.964,Test,2024.2.4,None,2024-12-08 13h12.37.920357 +0100,
67,150,180,60,None,59,59,0,True,left,0.9323827089974657,None,,,,,,,,0,59,59,59,,,,,,,,,445.4676711659995,,,,,,,,,,,,,,,,,,,,,,,,,,,,,,,,,,,,,,445.4616193329566,445.4676711659995,446.4616947909817,447.4522303749691,447.4522303749691,447.4522303749691,448.38700504094595,left,0.9323827089974657,None,,,,,,,,,,,,,,,,,,,,,,,,,,,,,,,,,,,,,,,,,,,100192,001,2024-12-08_13h12.27.964,Test,2024.2.4,None,2024-12-08 13h12.37.920357 +0100,
68,150,180,63,None,60,60,0,True,left,1.1488563750172034,None,,,,,,,,0,60,60,60,,,,,,,,,448.4031062909635,,,,,,,,,,,,,,,,,,,,,,,,,,,,,,,,,,,,,,448.39637295797,448.4031062909635,449.4003079159884,450.3856215829728,450.3856215829728,450.3856215829728,451.53672158299014,left,1.1488563750172034,None,,,,,,,,,,,,,,,,,,,,,,,,,,,,,,,,,,,,,,,,,,,100192,001,2024-12-08_13h12.27.964,Test,2024.2.4,None,2024-12-08 13h12.37.920357 +0100,
12,150,60,32,None,61,61,0,False,left,1.3940036669955589,None,,,,,,,,0,61,61,61,,,,,,,,,451.5515235409839,,,,,,,,,,,,,,,,,,,,,,,,,,,,,,,,,,,,,,451.54566595796496,451.5515235409839,452.54497887496836,453.5354709159583,453.5354709159583,453.5354709159583,454.9403707079473,left,1.3940036669955589,None,,,,,,,,,,,,,,,,,,,,,,,,,,,,,,,,,,,,,,,,,,,100192,001,2024-12-08_13h12.27.964,Test,2024.2.4,None,2024-12-08 13h12.37.920357 +0100,
18,150,90,27,None,62,62,0,False,left,0.8100725829717703,None,,,,,,,,0,62,62,62,,,,,,,,,454.9523214579676,,,,,,,,,,,,,,,,,,,,,,,,,,,,,,,,,,,,,,454.94764333299827,454.9523214579676,455.9504071249976,456.9353672500001,456.9353672500001,456.9353672500001,457.7478709999705,left,0.8100725829717703,None,,,,,,,,,,,,,,,,,,,,,,,,,,,,,,,,,,,,,,,,,,,100192,001,2024-12-08_13h12.27.964,Test,2024.2.4,None,2024-12-08 13h12.37.920357 +0100,
29,150,150,66,None,63,63,0,False,left,1.1181570420158096,None,,,,,,,,0,63,63,63,,,,,,,,,457.76310412498424,,,,,,,,,,,,,,,,,,,,,,,,,,,,,,,,,,,,,,457.75672320794547,457.76310412498424,458.7616931659868,459.7448741249973,459.7448741249973,459.7448741249973,460.8702337499708,left,1.1181570420158096,None,,,,,,,,,,,,,,,,,,,,,,,,,,,,,,,,,,,,,,,,,,,100192,001,2024-12-08_13h12.27.964,Test,2024.2.4,None,2024-12-08 13h12.37.920357 +0100,
44,150,30,10,None,64,64,0,True,left,0.6929946659947746,None,,,,,,,,0,64,64,64,,,,,,,,,460.88465737499064,,,,,,,,,,,,,,,,,,,,,,,,,,,,,,,,,,,,,,460.8787389579811,460.88465737499064,461.87833908299217,462.86959858296905,462.86959858296905,462.86959858296905,463.56979095796123,left,0.6929946659947746,None,,,,,,,,,,,,,,,,,,,,,,,,,,,,,,,,,,,,,,,,,,,100192,001,2024-12-08_13h12.27.964,Test,2024.2.4,None,2024-12-08 13h12.37.920357 +0100,
13,150,60,56,None,65,65,0,False,left,0.7222114169853739,None,,,,,,,,0,65,65,65,,,,,,,,,463.5839937499841,,,,,,,,,,,,,,,,,,,,,,,,,,,,,,,,,,,,,,463.57797329098685,463.5839937499841,464.5783736659796,465.5688895829953,465.5688895829953,465.5688895829953,466.2974791249726,left,0.7222114169853739,None,,,,,,,,,,,,,,,,,,,,,,,,,,,,,,,,,,,,,,,,,,,100192,001,2024-12-08_13h12.27.964,Test,2024.2.4,None,2024-12-08 13h12.37.920357 +0100,
66,150,180,51,None,66,66,0,True,right,0.9969235839671455,None,,,,,,,,0,66,66,66,,,,,,,,,466.3133026249707,,,,,,,,,,,,,,,,,,,,,,,,,,,,,,,,,,,,,,466.3065314159612,466.3133026249707,467.31102054094663,468.2952648329665,468.2952648329665,468.2952648329665,469.2974692499847,right,0.9969235839671455,None,,,,,,,,,,,,,,,,,,,,,,,,,,,,,,,,,,,,,,,,,,,100192,001,2024-12-08_13h12.27.964,Test,2024.2.4,None,2024-12-08 13h12.37.920357 +0100,
48,150,60,16,None,67,67,0,True,left,1.0908420420018956,None,,,,,,,,0,67,67,67,,,,,,,,,469.3118381659733,,,,,,,,,,,,,,,,,,,,,,,,,,,,,,,,,,,,,,469.30462499998976,469.3118381659733,470.3005309999571,471.2947173329885,471.2947173329885,471.2947173329885,472.39713483297965,left,1.0908420420018956,None,,,,,,,,,,,,,,,,,,,,,,,,,,,,,,,,,,,,,,,,,,,100192,001,2024-12-08_13h12.27.964,Test,2024.2.4,None,2024-12-08 13h12.37.920357 +0100,
11,150,60,14,None,68,68,0,False,left,0.9092846250277944,None,,,,,,,,0,68,68,68,,,,,,,,,472.4120859579998,,,,,,,,,,,,,,,,,,,,,,,,,,,,,,,,,,,,,,472.4054976659827,472.4120859579998,473.400080665946,474.39520554099,474.39520554099,474.39520554099,475.3137588749523,left,0.9092846250277944,None,,,,,,,,,,,,,,,,,,,,,,,,,,,,,,,,,,,,,,,,,,,100192,001,2024-12-08_13h12.27.964,Test,2024.2.4,None,2024-12-08 13h12.37.920357 +0100,
2,150,0,13,None,69,69,0,False,left,0.9270478340331465,None,,,,,,,,0,69,69,69,,,,,,,,,475.32945912500145,,,,,,,,,,,,,,,,,,,,,,,,,,,,,,,,,,,,,,475.3224426249508,475.32945912500145,476.3284902909654,477.31182591599645,477.31182591599645,477.31182591599645,478.247092665988,left,0.9270478340331465,None,,,,,,,,,,,,,,,,,,,,,,,,,,,,,,,,,,,,,,,,,,,100192,001,2024-12-08_13h12.27.964,Test,2024.2.4,None,2024-12-08 13h12.37.920357 +0100,
,,,,,,,,,,,,,,,,,,,,,,,,,,,,,,,,,,,,,,,,,,,,,,,,,,,,,,,,,,,,,,,,,,,,,,,,,,,,,,,,,,478.2474725409993,478.258036040992,478.258036040992,482.08100187499076,space,3.8207463750150055,None,,,,,,,,,,,,,,,,,,,,,,,,,,,,,,,,,100192,001,2024-12-08_13h12.27.964,Test,2024.2.4,None,2024-12-08 13h12.37.920357 +0100,
28,150,150,44,None,0,0,0,,,,,,,,,,,,,,,,0,0,0,27,,,,,482.11072420794517,,,,,,,,,,,,,,,,,,,,,,,,,,,,,,,,,,,,,,,,,,,,,,,,,,,,,,,,,,482.10127649997594,482.11072420794517,482.2778102500015,482.2778102500015,482.2996516249841,483.97571091598365,483.97571091598365,483.9623782909475,,,,,,,,,,,,,,,,,,,,,,,,,100192,001,2024-12-08_13h12.27.964,Test,2024.2.4,None,2024-12-08 13h12.37.920357 +0100,
4,150,0,41,None,1,1,0,,,,,,,,,,,,,,,,0,1,1,3,,,,,483.97571091598365,,,,,,,,,,,,,,,,,,,,,,,,,,,,,,,,,,,,,,,,,,,,,,,,,,,,,,,,,,483.9706054579583,483.98048441595165,484.1785798329511,484.1785798329511,484.1785798329511,485.8744507909869,485.8744507909869,485.86223274999065,,,,,,,,,,,,,,,,,,,,,,,,,100192,001,2024-12-08_13h12.27.964,Test,2024.2.4,None,2024-12-08 13h12.37.920357 +0100,
31,150,180,6,None,2,2,0,,,,,,,,,,,,,,,,0,2,2,30,,,,,485.8744507909869,,,,,,,,,,,,,,,,,,,,,,,,,,,,,,,,,,,,,,,,,,,,,,,,,,,,,,,,,,485.86969212495023,485.878988499986,486.0780425409903,486.0780425409903,486.0666863749502,487.77595504099736,487.77595504099736,487.7624078329536,,,,,,,,,,,,,,,,,,,,,,,,,100192,001,2024-12-08_13h12.27.964,Test,2024.2.4,None,2024-12-08 13h12.37.920357 +0100,
13,150,60,56,None,3,3,0,,,,,,,,,,,,,,,,0,3,3,12,,,,,487.77595504099736,,,,,,,,,,,,,,,,,,,,,,,,,,,,,,,,,,,,,,,,,,,,,,,,,,,,,,,,,,487.7709529999993,487.7809356249636,487.9781127909664,487.9781127909664,487.9781127909664,489.67554129095515,489.67554129095515,489.6624765829765,,,,,,,,,,,,,,,,,,,,,,,,,100192,001,2024-12-08_13h12.27.964,Test,2024.2.4,None,2024-12-08 13h12.37.920357 +0100,
8,150,30,61,None,4,4,0,,,,,,,,,,,,,,,,0,4,4,7,,,,,489.67554129095515,,,,,,,,,,,,,,,,,,,,,,,,,,,,,,,,,,,,,,,,,,,,,,,,,,,,,,,,,,489.67080399999395,489.68018170795403,489.8782230409561,489.8782230409561,489.8782230409561,491.5749111249461,491.5749111249461,491.562430082995,,,,,,,,,,,,,,,,,,,,,,,,,100192,001,2024-12-08_13h12.27.964,Test,2024.2.4,None,2024-12-08 13h12.37.920357 +0100,
2,150,0,13,None,5,5,0,,,,,,,,,,,,,,,,0,5,5,1,,,,,491.5749111249461,,,,,,,,,,,,,,,,,,,,,,,,,,,,,,,,,,,,,,,,,,,,,,,,,,,,,,,,,,491.5702131249709,491.57931258296594,491.7780710409861,491.7780710409861,491.76719420799054,493.4750880829524,493.4750880829524,493.4624657909735,,,,,,,,,,,,,,,,,,,,,,,,,100192,001,2024-12-08_13h12.27.964,Test,2024.2.4,None,2024-12-08 13h12.37.920357 +0100,
11,150,60,14,None,6,6,0,,,,,,,,,,,,,,,,0,6,6,10,,,,,493.4750880829524,,,,,,,,,,,,,,,,,,,,,,,,,,,,,,,,,,,,,,,,,,,,,,,,,,,,,,,,,,493.4702402909752,493.4793621659628,493.6781378329615,493.6781378329615,493.6781378329615,495.3761549999472,495.3761549999472,495.36236170795746,,,,,,,,,,,,,,,,,,,,,,,,,100192,001,2024-12-08_13h12.27.964,Test,2024.2.4,None,2024-12-08 13h12.37.920357 +0100,
19,150,90,21,None,7,7,0,,,,,,,,,,,,,,,,0,7,7,18,,,,,495.3761549999472,,,,,,,,,,,,,,,,,,,,,,,,,,,,,,,,,,,,,,,,,,,,,,,,,,,,,,,,,,495.37119283300126,495.38090912497137,495.57795124995755,495.57795124995755,495.57795124995755,497.274738832959,497.274738832959,497.2624228329514,,,,,,,,,,,,,,,,,,,,,,,,,100192,001,2024-12-08_13h12.27.964,Test,2024.2.4,None,2024-12-08 13h12.37.920357 +0100,
5,150,0,67,None,8,8,0,,,,,,,,,,,,,,,,0,8,8,4,,,,,497.274738832959,,,,,,,,,,,,,,,,,,,,,,,,,,,,,,,,,,,,,,,,,,,,,,,,,,,,,,,,,,497.27001312497305,497.27921624999726,497.47812837496167,497.47812837496167,497.47812837496167,499.1758332909667,499.1758332909667,499.16260112496093,,,,,,,,,,,,,,,,,,,,,,,,,100192,001,2024-12-08_13h12.27.964,Test,2024.2.4,None,2024-12-08 13h12.37.920357 +0100,
15,150,60,39,None,9,9,0,,,,,,,,,,,,,,,,0,9,9,14,,,,,499.1758332909667,,,,,,,,,,,,,,,,,,,,,,,,,,,,,,,,,,,,,,,,,,,,,,,,,,,,,,,,,,499.170888749999,499.18035516596865,499.3780840829713,499.3780840829713,499.3780840829713,501.0759129159851,501.0759129159851,501.06251462496584,,,,,,,,,,,,,,,,,,,,,,,,,100192,001,2024-12-08_13h12.27.964,Test,2024.2.4,None,2024-12-08 13h12.37.920357 +0100,
22,150,120,33,None,10,10,0,,,,,,,,,,,,,,,,0,10,10,21,,,,,501.0759129159851,,,,,,,,,,,,,,,,,,,,,,,,,,,,,,,,,,,,,,,,,,,,,,,,,,,,,,,,,,501.07103770796675,501.07992883294355,501.27820708299987,501.27820708299987,501.27820708299987,502.97623708297033,502.97623708297033,502.96286462497665,,,,,,,,,,,,,,,,,,,,,,,,,100192,001,2024-12-08_13h12.27.964,Test,2024.2.4,None,2024-12-08 13h12.37.920357 +0100,
29,150,150,66,None,11,11,0,,,,,,,,,,,,,,,,0,11,11,28,,,,,502.97623708297033,,,,,,,,,,,,,,,,,,,,,,,,,,,,,,,,,,,,,,,,,,,,,,,,,,,,,,,,,,502.9712729579769,502.9813744579442,503.1785090829944,503.1785090829944,503.1785090829944,504.87678008299554,504.87678008299554,504.86280616599834,,,,,,,,,,,,,,,,,,,,,,,,,100192,001,2024-12-08_13h12.27.964,Test,2024.2.4,None,2024-12-08 13h12.37.920357 +0100,
7,150,30,52,None,12,12,0,,,,,,,,,,,,,,,,0,12,12,6,,,,,504.87678008299554,,,,,,,,,,,,,,,,,,,,,,,,,,,,,,,,,,,,,,,,,,,,,,,,,,,,,,,,,,504.8718200000003,504.8816202909802,505.0785319999559,505.0785319999559,505.0785319999559,506.7766457909602,506.7766457909602,506.76269687496824,,,,,,,,,,,,,,,,,,,,,,,,,100192,001,2024-12-08_13h12.27.964,Test,2024.2.4,None,2024-12-08 13h12.37.920357 +0100,
24,150,120,4,None,13,13,0,,,,,,,,,,,,,,,,0,13,13,23,,,,,506.7766457909602,,,,,,,,,,,,,,,,,,,,,,,,,,,,,,,,,,,,,,,,,,,,,,,,,,,,,,,,,,506.7715743329609,506.7826599580003,506.9784389579436,506.9784389579436,506.9784389579436,508.6762489999528,508.6762489999528,508.66266187495785,,,,,,,,,,,,,,,,,,,,,,,,,100192,001,2024-12-08_13h12.27.964,Test,2024.2.4,None,2024-12-08 13h12.37.920357 +0100,
34,150,180,36,None,14,14,0,,,,,,,,,,,,,,,,0,14,14,33,,,,,508.6762489999528,,,,,,,,,,,,,,,,,,,,,,,,,,,,,,,,,,,,,,,,,,,,,,,,,,,,,,,,,,508.67129112494877,508.68101312499493,508.8785011659493,508.8785011659493,508.8785011659493,510.58127537497785,510.58127537497785,510.5626422079513,,,,,,,,,,,,,,,,,,,,,,,,,100192,001,2024-12-08_13h12.27.964,Test,2024.2.4,None,2024-12-08 13h12.37.920357 +0100,
9,150,30,11,None,15,15,0,,,,,,,,,,,,,,,,0,15,15,8,,,,,510.58127537497785,,,,,,,,,,,,,,,,,,,,,,,,,,,,,,,,,,,,,,,,,,,,,,,,,,,,,,,,,,510.5766440409934,510.59466074995,510.77729991596425,510.77729991596425,510.7830014579813,512.4773034579703,512.4773034579703,512.4627585409908,,,,,,,,,,,,,,,,,,,,,,,,,100192,001,2024-12-08_13h12.27.964,Test,2024.2.4,None,2024-12-08 13h12.37.920357 +0100,
25,150,120,46,None,16,16,0,,,,,,,,,,,,,,,,0,16,16,24,,,,,512.4773034579703,,,,,,,,,,,,,,,,,,,,,,,,,,,,,,,,,,,,,,,,,,,,,,,,,,,,,,,,,,512.4724808749743,512.4818169159698,512.6780962499906,512.6780962499906,512.6780962499906,514.3760617499938,514.3760617499938,514.3625048329704,,,,,,,,,,,,,,,,,,,,,,,,,100192,001,2024-12-08_13h12.27.964,Test,2024.2.4,None,2024-12-08 13h12.37.920357 +0100,
14,150,60,3,None,17,17,0,,,,,,,,,,,,,,,,0,17,17,13,,,,,514.3760617499938,,,,,,,,,,,,,,,,,,,,,,,,,,,,,,,,,,,,,,,,,,,,,,,,,,,,,,,,,,514.3709151659859,514.3802175829769,514.5781314159976,514.5781314159976,514.5781314159976,516.2763984579942,516.2763984579942,516.2627379159676,,,,,,,,,,,,,,,,,,,,,,,,,100192,001,2024-12-08_13h12.27.964,Test,2024.2.4,None,2024-12-08 13h12.37.920357 +0100,
20,150,90,57,None,18,18,0,,,,,,,,,,,,,,,,0,18,18,19,,,,,516.2763984579942,,,,,,,,,,,,,,,,,,,,,,,,,,,,,,,,,,,,,,,,,,,,,,,,,,,,,,,,,,516.2714427909814,516.2804669579491,516.4773420409765,516.4773420409765,516.4773420409765,518.1767669159453,518.1767669159453,518.1628960829694,,,,,,,,,,,,,,,,,,,,,,,,,100192,001,2024-12-08_13h12.27.964,Test,2024.2.4,None,2024-12-08 13h12.37.920357 +0100,
26,150,150,9,None,19,19,0,,,,,,,,,,,,,,,,0,19,19,25,,,,,518.1767669159453,,,,,,,,,,,,,,,,,,,,,,,,,,,,,,,,,,,,,,,,,,,,,,,,,,,,,,,,,,518.1716904579662,518.1815613749786,518.378545332991,518.378545332991,518.378545332991,520.0753812499461,520.0753812499461,520.0626903329976,,,,,,,,,,,,,,,,,,,,,,,,,100192,001,2024-12-08_13h12.27.964,Test,2024.2.4,None,2024-12-08 13h12.37.920357 +0100,
6,150,30,1,None,20,20,0,,,,,,,,,,,,,,,,0,20,20,5,,,,,520.0753812499461,,,,,,,,,,,,,,,,,,,,,,,,,,,,,,,,,,,,,,,,,,,,,,,,,,,,,,,,,,520.0705710829934,520.0800525409868,520.2786274159444,520.2786274159444,520.2786274159444,521.9767357499804,521.9767357499804,521.962745124998,,,,,,,,,,,,,,,,,,,,,,,,,100192,001,2024-12-08_13h12.27.964,Test,2024.2.4,None,2024-12-08 13h12.37.920357 +0100,
23,150,120,5,None,21,21,0,,,,,,,,,,,,,,,,0,21,21,22,,,,,521.9767357499804,,,,,,,,,,,,,,,,,,,,,,,,,,,,,,,,,,,,,,,,,,,,,,,,,,,,,,,,,,521.9715880409931,521.981852665951,522.1787020829506,522.1787020829506,522.1787020829506,523.8763222499983,523.8763222499983,523.8626928329468,,,,,,,,,,,,,,,,,,,,,,,,,100192,001,2024-12-08_13h12.27.964,Test,2024.2.4,None,2024-12-08 13h12.37.920357 +0100,
21,150,120,54,None,22,22,0,,,,,,,,,,,,,,,,0,22,22,20,,,,,523.8763222499983,,,,,,,,,,,,,,,,,,,,,,,,,,,,,,,,,,,,,,,,,,,,,,,,,,,,,,,,,,523.8712680829922,523.8817783749546,524.0785919159534,524.0785919159534,524.0785919159534,525.7761357499985,525.7761357499985,525.7627262499882,,,,,,,,,,,,,,,,,,,,,,,,,100192,001,2024-12-08_13h12.27.964,Test,2024.2.4,None,2024-12-08 13h12.37.920357 +0100,
27,150,150,29,None,23,23,0,,,,,,,,,,,,,,,,0,23,23,26,,,,,525.7761357499985,,,,,,,,,,,,,,,,,,,,,,,,,,,,,,,,,,,,,,,,,,,,,,,,,,,,,,,,,,525.7712879579631,525.7801749999635,525.9784610829665,525.9784610829665,525.9784610829665,527.6769697499694,527.6769697499694,527.6630584999803,,,,,,,,,,,,,,,,,,,,,,,,,100192,001,2024-12-08_13h12.27.964,Test,2024.2.4,None,2024-12-08 13h12.37.920357 +0100,
16,150,90,28,None,24,24,0,,,,,,,,,,,,,,,,0,24,24,15,,,,,527.6769697499694,,,,,,,,,,,,,,,,,,,,,,,,,,,,,,,,,,,,,,,,,,,,,,,,,,,,,,,,,,527.6721269579721,527.6817424999899,527.8785152079654,527.8785152079654,527.8785152079654,529.5765490829945,529.5765490829945,529.5628716249485,,,,,,,,,,,,,,,,,,,,,,,,,100192,001,2024-12-08_13h12.27.964,Test,2024.2.4,None,2024-12-08 13h12.37.920357 +0100,
12,150,60,32,None,25,25,0,,,,,,,,,,,,,,,,0,25,25,11,,,,,529.5765490829945,,,,,,,,,,,,,,,,,,,,,,,,,,,,,,,,,,,,,,,,,,,,,,,,,,,,,,,,,,529.5717309579486,529.5818156249588,529.7780424999655,529.7780424999655,529.7780424999655,531.4759799579624,531.4759799579624,531.462437707989,,,,,,,,,,,,,,,,,,,,,,,,,100192,001,2024-12-08_13h12.27.964,Test,2024.2.4,None,2024-12-08 13h12.37.920357 +0100,
1,150,0,22,None,26,26,0,,,,,,,,,,,,,,,,0,26,26,0,,,,,531.4759799579624,,,,,,,,,,,,,,,,,,,,,,,,,,,,,,,,,,,,,,,,,,,,,,,,,,,,,,,,,,531.47103770799,531.4810514999554,531.6784827910014,531.6784827910014,531.6784827910014,533.3765455409884,533.3765455409884,533.3626646659686,,,,,,,,,,,,,,,,,,,,,,,,,100192,001,2024-12-08_13h12.27.964,Test,2024.2.4,None,2024-12-08 13h12.37.920357 +0100,
18,150,90,27,None,27,27,0,,,,,,,,,,,,,,,,0,27,27,17,,,,,533.3765455409884,,,,,,,,,,,,,,,,,,,,,,,,,,,,,,,,,,,,,,,,,,,,,,,,,,,,,,,,,,533.371527790965,533.3805099999881,533.5785274999798,533.5785274999798,533.5785274999798,535.276777082996,535.276777082996,535.2628330829903,,,,,,,,,,,,,,,,,,,,,,,,,100192,001,2024-12-08_13h12.27.964,Test,2024.2.4,None,2024-12-08 13h12.37.920357 +0100,
35,150,180,25,None,28,28,0,,,,,,,,,,,,,,,,0,28,28,34,,,,,535.276777082996,,,,,,,,,,,,,,,,,,,,,,,,,,,,,,,,,,,,,,,,,,,,,,,,,,,,,,,,,,535.2716791249695,535.281657790998,535.4785216249875,535.4785216249875,535.4785216249875,537.175996499951,537.175996499951,537.1627692499897,,,,,,,,,,,,,,,,,,,,,,,,,100192,001,2024-12-08_13h12.27.964,Test,2024.2.4,None,2024-12-08 13h12.37.920357 +0100,
17,150,90,49,None,29,29,0,,,,,,,,,,,,,,,,0,29,29,16,,,,,537.175996499951,,,,,,,,,,,,,,,,,,,,,,,,,,,,,,,,,,,,,,,,,,,,,,,,,,,,,,,,,,537.1710154579487,537.1811362909502,537.3780174999847,537.3780174999847,537.3780174999847,539.0763341659913,539.0763341659913,539.0625244159601,,,,,,,,,,,,,,,,,,,,,,,,,100192,001,2024-12-08_13h12.27.964,Test,2024.2.4,None,2024-12-08 13h12.37.920357 +0100,
3,150,0,24,None,30,30,0,,,,,,,,,,,,,,,,0,30,30,2,,,,,539.0763341659913,,,,,,,,,,,,,,,,,,,,,,,,,,,,,,,,,,,,,,,,,,,,,,,,,,,,,,,,,,539.0713404999697,539.0804719159496,539.2780330409878,539.2780330409878,539.2780330409878,540.976684040972,540.976684040972,540.9627033749712,,,,,,,,,,,,,,,,,,,,,,,,,100192,001,2024-12-08_13h12.27.964,Test,2024.2.4,None,2024-12-08 13h12.37.920357 +0100,
32,150,180,40,None,31,31,0,,,,,,,,,,,,,,,,0,31,31,31,,,,,540.976684040972,,,,,,,,,,,,,,,,,,,,,,,,,,,,,,,,,,,,,,,,,,,,,,,,,,,,,,,,,,540.9716447499814,540.9806221249746,541.1780384159647,541.1780384159647,541.1780384159647,542.8807167499908,542.8807167499908,542.8624949579826,,,,,,,,,,,,,,,,,,,,,,,,,100192,001,2024-12-08_13h12.27.964,Test,2024.2.4,None,2024-12-08 13h12.37.920357 +0100,
10,150,30,62,None,32,32,0,,,,,,,,,,,,,,,,0,32,32,9,,,,,542.8807167499908,,,,,,,,,,,,,,,,,,,,,,,,,,,,,,,,,,,,,,,,,,,,,,,,,,,,,,,,,,542.876270165958,542.8952223329688,543.0769215829787,543.0769215829787,543.0951701659942,544.7768085409771,544.7768085409771,544.7623664999846,,,,,,,,,,,,,,,,,,,,,,,,,100192,001,2024-12-08_13h12.27.964,Test,2024.2.4,None,2024-12-08 13h12.37.920357 +0100,
33,150,180,30,None,33,33,0,,,,,,,,,,,,,,,,0,33,33,32,,,,,544.7768085409771,,,,,,,,,,,,,,,,,,,,,,,,,,,,,,,,,,,,,,,,,,,,,,,,,,,,,,,,,,544.772032790992,544.7808975409716,544.9780749999918,544.9780749999918,544.9780749999918,546.6759575829492,546.6759575829492,546.6626787079731,,,,,,,,,,,,,,,,,,,,,,,,,100192,001,2024-12-08_13h12.27.964,Test,2024.2.4,None,2024-12-08 13h12.37.920357 +0100,
30,150,150,18,None,34,34,0,,,,,,,,,,,,,,,,0,34,34,29,,,,,546.6759575829492,,,,,,,,,,,,,,,,,,,,,,,,,,,,,,,,,,,,,,,,,,,,,,,,,,,,,,,,,,546.670986040961,546.6810976659763,546.8781712079654,546.8781712079654,546.8781712079654,548.5675539159565,548.5675539159565,548.5623419999611,,,,,,,,,,,,,,,,,,,,,,,,,100192,001,2024-12-08_13h12.27.964,Test,2024.2.4,None,2024-12-08 13h12.37.920357 +0100,
,,,,,,,,,,,,,,,,,,,,,,,,,,,,,,,,,,,,,,,,,,,,,,,,,,,,,,,,,,,,,,,,,,,,,,,,,,,,,,,,,,,,,,,,,,,,,,,,,548.5625931659597,548.577304165985,548.577304165985,553.2536002079723,space,4.672761790978257,None,,,,,,,,,,,,,,,,,,100192,001,2024-12-08_13h12.27.964,Test,2024.2.4,None,2024-12-08 13h12.37.920357 +0100,
63,150,150,8,None,0,0,0,True,,,,right,0.881090208014939,None,,,,,,,,,,,,,0,0,0,0,553.3838391249883,,,,,,,,,,,,,,,,,,,,,,,,,,,,,,,,,,,,,,,,,,,,,,,,,,,,,,,,,,,,,,,,,,,,,,,,,553.3783705829992,553.3838391249883,554.3783592079999,555.2524060409633,555.2524060409633,555.2524060409633,556.137235040951,right,0.881090208014939,None,,,,,,,,100192,001,2024-12-08_13h12.27.964,Test,2024.2.4,None,2024-12-08 13h12.37.920357 +0100,
27,150,150,29,None,1,1,0,False,,,,left,1.0155582079896703,None,,,,,,,,,,,,,0,1,1,1,556.152939624968,,,,,,,,,,,,,,,,,,,,,,,,,,,,,,,,,,,,,,,,,,,,,,,,,,,,,,,,,,,,,,,,,,,,,,,,,556.1462587909773,556.152939624968,557.150378665945,558.1357383749564,558.1357383749564,558.1357383749564,559.1535274579655,left,1.0155582079896703,None,,,,,,,,100192,001,2024-12-08_13h12.27.964,Test,2024.2.4,None,2024-12-08 13h12.37.920357 +0100,
65,150,150,34,None,2,2,0,True,,,,left,1.0782241669949144,None,,,,,,,,,,,,,0,2,2,2,559.1687536249519,,,,,,,,,,,,,,,,,,,,,,,,,,,,,,,,,,,,,,,,,,,,,,,,,,,,,,,,,,,,,,,,,,,,,,,,,559.1625484579708,559.1687536249519,560.1669287909754,561.152477665979,561.152477665979,561.152477665979,562.2364651659736,left,1.0782241669949144,None,,,,,,,,100192,001,2024-12-08_13h12.27.964,Test,2024.2.4,None,2024-12-08 13h12.37.920357 +0100,
54,150,90,42,None,3,3,0,True,,,,left,0.8059125000145286,None,,,,,,,,,,,,,0,3,3,3,562.2524960409501,,,,,,,,,,,,,,,,,,,,,,,,,,,,,,,,,,,,,,,,,,,,,,,,,,,,,,,,,,,,,,,,,,,,,,,,,562.2458765409538,562.2524960409501,563.2495659999549,564.2357519159559,564.2357519159559,564.2357519159559,565.0472948329989,left,0.8059125000145286,None,,,,,,,,100192,001,2024-12-08_13h12.27.964,Test,2024.2.4,None,2024-12-08 13h12.37.920357 +0100,
30,150,150,18,None,4,4,0,False,,,,right,2.24494704202516,None,,,,,,,,,,,,,0,4,4,4,565.0625942909974,,,,,,,,,,,,,,,,,,,,,,,,,,,,,,,,,,,,,,,,,,,,,,,,,,,,,,,,,,,,,,,,,,,,,,,,,565.055415040988,565.0625942909974,566.0502188329701,567.045072457986,567.045072457986,567.045072457986,569.2970702079474,right,2.24494704202516,None,,,,,,,,100192,001,2024-12-08_13h12.27.964,Test,2024.2.4,None,2024-12-08 13h12.37.920357 +0100,
32,150,180,40,None,5,5,0,False,,,,right,1.1252947080065496,None,,,,,,,,,,,,,0,5,5,5,569.3127260829788,,,,,,,,,,,,,,,,,,,,,,,,,,,,,,,,,,,,,,,,,,,,,,,,,,,,,,,,,,,,,,,,,,,,,,,,,569.3061422499595,569.3127260829788,570.311591665959,571.2951557079796,571.2951557079796,571.2951557079796,572.4310686659883,right,1.1252947080065496,None,,,,,,,,100192,001,2024-12-08_13h12.27.964,Test,2024.2.4,None,2024-12-08 13h12.37.920357 +0100,
35,150,180,25,None,6,6,0,False,,,,left,1.4933183750254102,None,,,,,,,,,,,,,0,6,6,6,572.4465631659841,,,,,,,,,,,,,,,,,,,,,,,,,,,,,,,,,,,,,,,,,,,,,,,,,,,,,,,,,,,,,,,,,,,,,,,,,572.4401397909969,572.4465631659841,573.4450046659913,574.4284222909482,574.4284222909482,574.4284222909482,575.9312051659799,left,1.4933183750254102,None,,,,,,,,100192,001,2024-12-08_13h12.27.964,Test,2024.2.4,None,2024-12-08 13h12.37.920357 +0100,
6,150,30,1,None,7,7,0,False,,,,left,1.2340443750144914,None,,,,,,,,,,,,,0,7,7,7,575.9463981249719,,,,,,,,,,,,,,,,,,,,,,,,,,,,,,,,,,,,,,,,,,,,,,,,,,,,,,,,,,,,,,,,,,,,,,,,,575.9398835829925,575.9463981249719,576.9450427909615,577.9283945829957,577.9283945829957,577.9283945829957,579.1731927499641,left,1.2340443750144914,None,,,,,,,,100192,001,2024-12-08_13h12.27.964,Test,2024.2.4,None,2024-12-08 13h12.37.920357 +0100,
53,150,90,7,None,8,8,0,True,,,,left,0.8675792500143871,None,,,,,,,,,,,,,0,8,8,8,579.1854163329699,,,,,,,,,,,,,,,,,,,,,,,,,,,,,,,,,,,,,,,,,,,,,,,,,,,,,,,,,,,,,,,,,,,,,,,,,579.1807616250007,579.1854163329699,580.1831227079965,581.1688592909486,581.1688592909486,581.1688592909486,582.0474873329513,left,0.8675792500143871,None,,,,,,,,100192,001,2024-12-08_13h12.27.964,Test,2024.2.4,None,2024-12-08 13h12.37.920357 +0100,
52,150,90,68,None,9,9,0,True,,,,left,0.9370082080131397,None,,,,,,,,,,,,,0,9,9,9,582.0627843749826,,,,,,,,,,,,,,,,,,,,,,,,,,,,,,,,,,,,,,,,,,,,,,,,,,,,,,,,,,,,,,,,,,,,,,,,,582.0555267909658,582.0627843749826,583.0504412909504,584.0450822909479,584.0450822909479,584.0450822909479,584.9862101659528,left,0.9370082080131397,None,,,,,,,,100192,001,2024-12-08_13h12.27.964,Test,2024.2.4,None,2024-12-08 13h12.37.920357 +0100,
61,150,150,2,None,10,10,0,True,,,,left,1.335158166999463,None,,,,,,,,,,,,,0,10,10,10,585.0010160829988,,,,,,,,,,,,,,,,,,,,,,,,,,,,,,,,,,,,,,,,,,,,,,,,,,,,,,,,,,,,,,,,,,,,,,,,,584.9948339999537,585.0010160829988,585.9951265409472,586.9859052909887,586.9859052909887,586.9859052909887,588.3304881659569,left,1.335158166999463,None,,,,,,,,100192,001,2024-12-08_13h12.27.964,Test,2024.2.4,None,2024-12-08 13h12.37.920357 +0100,
4,150,0,41,None,11,11,0,False,,,,left,0.7842005420243368,None,,,,,,,,,,,,,0,11,11,11,588.3454833329888,,,,,,,,,,,,,,,,,,,,,,,,,,,,,,,,,,,,,,,,,,,,,,,,,,,,,,,,,,,,,,,,,,,,,,,,,588.3387134159566,588.3454833329888,589.3337551250006,590.3284432909568,590.3284432909568,590.3284432909568,591.123667915992,left,0.7842005420243368,None,,,,,,,,100192,001,2024-12-08_13h12.27.964,Test,2024.2.4,None,2024-12-08 13h12.37.920357 +0100,
16,150,90,28,None,12,12,0,False,,,,left,1.2434346249792725,None,,,,,,,,,,,,,0,12,12,12,591.1365890409797,,,,,,,,,,,,,,,,,,,,,,,,,,,,,,,,,,,,,,,,,,,,,,,,,,,,,,,,,,,,,,,,,,,,,,,,,591.1311344999704,591.1365890409797,592.1340135829523,593.1187430409482,593.1187430409482,593.1187430409482,594.3649034159607,left,1.2434346249792725,None,,,,,,,,100192,001,2024-12-08_13h12.27.964,Test,2024.2.4,None,2024-12-08 13h12.37.920357 +0100,
59,150,120,58,None,13,13,0,True,,,,left,0.9959879170055501,None,,,,,,,,,,,,,0,13,13,13,594.3797534999903,,,,,,,,,,,,,,,,,,,,,,,,,,,,,,,,,,,,,,,,,,,,,,,,,,,,,,,,,,,,,,,,,,,,,,,,,594.3737448749598,594.3797534999903,595.3784275409998,596.3617927909945,596.3617927909945,596.3617927909945,597.3644808749668,left,0.9959879170055501,None,,,,,,,,100192,001,2024-12-08_13h12.27.964,Test,2024.2.4,None,2024-12-08 13h12.37.920357 +0100,
31,150,180,6,None,14,14,0,False,,,,right,1.0290850839810446,None,,,,,,,,,,,,,0,14,14,14,597.3789233749849,,,,,,,,,,,,,,,,,,,,,,,,,,,,,,,,,,,,,,,,,,,,,,,,,,,,,,,,,,,,,,,,,,,,,,,,,597.3729946249514,597.3789233749849,598.3661745409481,599.3618852079962,599.3618852079962,599.3618852079962,600.397873540991,right,1.0290850839810446,None,,,,,,,,100192,001,2024-12-08_13h12.27.964,Test,2024.2.4,None,2024-12-08 13h12.37.920357 +0100,
7,150,30,52,None,15,15,0,False,,,,right,0.844047375023365,None,,,,,,,,,,,,,0,15,15,15,600.4122970829485,,,,,,,,,,,,,,,,,,,,,,,,,,,,,,,,,,,,,,,,,,,,,,,,,,,,,,,,,,,,,,,,,,,,,,,,,600.406501624966,600.4122970829485,601.4002469159896,602.3951917079976,602.3951917079976,602.3951917079976,603.2471599999699,right,0.844047375023365,None,,,,,,,,100192,001,2024-12-08_13h12.27.964,Test,2024.2.4,None,2024-12-08 13h12.37.920357 +0100,
45,150,30,43,None,16,16,0,True,,,,right,0.43417808302911,None,,,,,,,,,,,,,0,16,16,16,603.262564790959,,,,,,,,,,,,,,,,,,,,,,,,,,,,,,,,,,,,,,,,,,,,,,,,,,,,,,,,,,,,,,,,,,,,,,,,,603.2559844579664,603.262564790959,604.2504734159447,605.2451552499551,605.2451552499551,605.2451552499551,605.6896662079962,right,0.43417808302911,None,,,,,,,,100192,001,2024-12-08_13h12.27.964,Test,2024.2.4,None,2024-12-08 13h12.37.920357 +0100,
47,150,60,23,None,17,17,0,True,,,,left,0.8352429589722306,None,,,,,,,,,,,,,0,17,17,17,605.7017849999829,,,,,,,,,,,,,,,,,,,,,,,,,,,,,,,,,,,,,,,,,,,,,,,,,,,,,,,,,,,,,,,,,,,,,,,,,605.6970492079854,605.7017849999829,606.6994832079508,607.6857424159534,607.6857424159534,607.6857424159534,608.5306341659743,left,0.8352429589722306,None,,,,,,,,100192,001,2024-12-08_13h12.27.964,Test,2024.2.4,None,2024-12-08 13h12.37.920357 +0100,
24,150,120,4,None,18,18,0,False,,,,left,2.594098500034306,None,,,,,,,,,,,,,0,18,18,18,608.5457734999945,,,,,,,,,,,,,,,,,,,,,,,,,,,,,,,,,,,,,,,,,,,,,,,,,,,,,,,,,,,,,,,,,,,,,,,,,608.539341665979,608.5457734999945,609.5335650409688,610.5285944579518,610.5285944579518,610.5285944579518,613.1303547499701,left,2.594098500034306,None,,,,,,,,100192,001,2024-12-08_13h12.27.964,Test,2024.2.4,None,2024-12-08 13h12.37.920357 +0100,
14,150,60,3,None,19,19,0,False,,,,left,0.6567602919531055,None,,,,,,,,,,,,,0,19,19,19,613.1455606659874,,,,,,,,,,,,,,,,,,,,,,,,,,,,,,,,,,,,,,,,,,,,,,,,,,,,,,,,,,,,,,,,,,,,,,,,,613.1389007499674,613.1455606659874,614.133835207962,615.1285249579814,615.1285249579814,615.1285249579814,615.787536207994,left,0.6567602919531055,None,,,,,,,,100192,001,2024-12-08_13h12.27.964,Test,2024.2.4,None,2024-12-08 13h12.37.920357 +0100,
36,150,0,70,None,20,20,0,True,,,,left,0.7253862499492243,None,,,,,,,,,,,,,0,20,20,20,615.8022435829625,,,,,,,,,,,,,,,,,,,,,,,,,,,,,,,,,,,,,,,,,,,,,,,,,,,,,,,,,,,,,,,,,,,,,,,,,615.7962251249701,615.8022435829625,616.7995422499953,617.7866497499635,617.7866497499635,617.7866497499635,618.5149636249989,left,0.7253862499492243,None,,,,,,,,100192,001,2024-12-08_13h12.27.964,Test,2024.2.4,None,2024-12-08 13h12.37.920357 +0100,
1,150,0,22,None,21,21,0,False,,,,left,0.9671878750086762,None,,,,,,,,,,,,,0,21,21,21,618.5306306659477,,,,,,,,,,,,,,,,,,,,,,,,,,,,,,,,,,,,,,,,,,,,,,,,,,,,,,,,,,,,,,,,,,,,,,,,,618.523842207971,618.5306306659477,619.528426957957,620.5118122079875,620.5118122079875,620.5118122079875,621.4898065409507,left,0.9671878750086762,None,,,,,,,,100192,001,2024-12-08_13h12.27.964,Test,2024.2.4,None,2024-12-08 13h12.37.920357 +0100,
25,150,120,46,None,22,22,0,False,,,,left,0.8454678329871967,None,,,,,,,,,,,,,0,22,22,22,621.5018773749471,,,,,,,,,,,,,,,,,,,,,,,,,,,,,,,,,,,,,,,,,,,,,,,,,,,,,,,,,,,,,,,,,,,,,,,,,621.4971417499473,621.5018773749471,622.500355874945,623.4856094999705,623.4856094999705,623.4856094999705,624.3366880829562,left,0.8454678329871967,None,,,,,,,,100192,001,2024-12-08_13h12.27.964,Test,2024.2.4,None,2024-12-08 13h12.37.920357 +0100,
34,150,180,36,None,23,23,0,False,,,,right,0.9604367910069413,None,,,,,,,,,,,,,0,23,23,23,624.35221254098,,,,,,,,,,,,,,,,,,,,,,,,,,,,,,,,,,,,,,,,,,,,,,,,,,,,,,,,,,,,,,,,,,,,,,,,,624.3454677079571,624.35221254098,625.3503211249481,626.3354932909715,626.3354932909715,626.3354932909715,627.3068238329724,right,0.9604367910069413,None,,,,,,,,100192,001,2024-12-08_13h12.27.964,Test,2024.2.4,None,2024-12-08 13h12.37.920357 +0100,
49,150,60,26,None,24,24,0,True,,,,left,0.8719166250084527,None,,,,,,,,,,,,,0,24,24,24,627.3185769159463,,,,,,,,,,,,,,,,,,,,,,,,,,,,,,,,,,,,,,,,,,,,,,,,,,,,,,,,,,,,,,,,,,,,,,,,,627.3138205829891,627.3185769159463,628.3116223749821,629.3023607499781,629.3023607499781,629.3023607499781,630.1806620829739,left,0.8719166250084527,None,,,,,,,,100192,001,2024-12-08_13h12.27.964,Test,2024.2.4,None,2024-12-08 13h12.37.920357 +0100,
55,150,90,55,None,25,25,0,True,,,,left,1.1851480419863947,None,,,,,,,,,,,,,0,25,25,25,630.1956452079467,,,,,,,,,,,,,,,,,,,,,,,,,,,,,,,,,,,,,,,,,,,,,,,,,,,,,,,,,,,,,,,,,,,,,,,,,630.1890912079834,630.1956452079467,631.1828620409942,632.1785690409597,632.1785690409597,632.1785690409597,633.3699211659841,left,1.1851480419863947,None,,,,,,,,100192,001,2024-12-08_13h12.27.964,Test,2024.2.4,None,2024-12-08 13h12.37.920357 +0100,
21,150,120,54,None,26,26,0,False,,,,left,0.8135842920164578,None,,,,,,,,,,,,,0,26,26,26,633.3850083329598,,,,,,,,,,,,,,,,,,,,,,,,,,,,,,,,,,,,,,,,,,,,,,,,,,,,,,,,,,,,,,,,,,,,,,,,,633.3787263749982,633.3850083329598,634.3836167079862,635.3687887909473,635.3687887909473,635.3687887909473,636.1866174999741,left,0.8135842920164578,None,,,,,,,,100192,001,2024-12-08_13h12.27.964,Test,2024.2.4,None,2024-12-08 13h12.37.920357 +0100,
60,150,120,47,None,27,27,0,True,,,,left,0.799459875037428,None,,,,,,,,,,,,,0,27,27,27,636.2003654159489,,,,,,,,,,,,,,,,,,,,,,,,,,,,,,,,,,,,,,,,,,,,,,,,,,,,,,,,,,,,,,,,,,,,,,,,,636.1946817909484,636.2003654159489,637.1949365409673,638.1854193329928,638.1854193329928,638.1854193329928,638.9872671249905,left,0.799459875037428,None,,,,,,,,100192,001,2024-12-08_13h12.27.964,Test,2024.2.4,None,2024-12-08 13h12.37.920357 +0100,
64,150,150,19,None,28,28,0,True,,,,left,1.4371497499523684,None,,,,,,,,,,,,,0,28,28,28,639.0017962079728,,,,,,,,,,,,,,,,,,,,,,,,,,,,,,,,,,,,,,,,,,,,,,,,,,,,,,,,,,,,,,,,,,,,,,,,,638.9954479579465,639.0017962079728,639.995029957965,640.9857157079969,640.9857157079969,640.9857157079969,642.4306429579738,left,1.4371497499523684,None,,,,,,,,100192,001,2024-12-08_13h12.27.964,Test,2024.2.4,None,2024-12-08 13h12.37.920357 +0100,
46,150,60,38,None,29,29,0,True,,,,left,0.8116546249948442,None,,,,,,,,,,,,,0,29,29,29,642.4462514999905,,,,,,,,,,,,,,,,,,,,,,,,,,,,,,,,,,,,,,,,,,,,,,,,,,,,,,,,,,,,,,,,,,,,,,,,,642.4395249999943,642.4462514999905,643.4449783329619,644.4286033749813,644.4286033749813,644.4286033749813,645.2474098749808,left,0.8116546249948442,None,,,,,,,,100192,001,2024-12-08_13h12.27.964,Test,2024.2.4,None,2024-12-08 13h12.37.920357 +0100,
51,150,90,64,None,30,30,0,True,,,,left,1.5065502910292707,None,,,,,,,,,,,,,0,30,30,30,645.262564790959,,,,,,,,,,,,,,,,,,,,,,,,,,,,,,,,,,,,,,,,,,,,,,,,,,,,,,,,,,,,,,,,,,,,,,,,,645.2556693329825,645.262564790959,646.2500420829747,647.2452549579903,647.2452549579903,647.2452549579903,648.7539802909596,left,1.5065502910292707,None,,,,,,,,100192,001,2024-12-08_13h12.27.964,Test,2024.2.4,None,2024-12-08 13h12.37.920357 +0100,
10,150,30,62,None,31,31,0,False,,,,right,0.7301367910113186,None,,,,,,,,,,,,,0,31,31,31,648.7707630829536,,,,,,,,,,,,,,,,,,,,,,,,,,,,,,,,,,,,,,,,,,,,,,,,,,,,,,,,,,,,,,,,,,,,,,,,,648.764832624991,648.7707630829536,649.7669758329866,650.7540596249746,650.7540596249746,650.7540596249746,651.4868852910004,right,0.7301367910113186,None,,,,,,,,100192,001,2024-12-08_13h12.27.964,Test,2024.2.4,None,2024-12-08 13h12.37.920357 +0100,
58,150,120,17,None,32,32,0,True,,,,left,1.1323419580003247,None,,,,,,,,,,,,,0,32,32,32,651.5025377499987,,,,,,,,,,,,,,,,,,,,,,,,,,,,,,,,,,,,,,,,,,,,,,,,,,,,,,,,,,,,,,,,,,,,,,,,,651.4966968329973,651.5025377499987,652.5001412499696,653.4853631659644,653.4853631659644,653.4853631659644,654.620320749993,left,1.1323419580003247,None,,,,,,,,100192,001,2024-12-08_13h12.27.964,Test,2024.2.4,None,2024-12-08 13h12.37.920357 +0100,
57,150,120,50,None,33,33,0,True,,,,left,0.651669375016354,None,,,,,,,,,,,,,0,33,33,33,654.635020665999,,,,,,,,,,,,,,,,,,,,,,,,,,,,,,,,,,,,,,,,,,,,,,,,,,,,,,,,,,,,,,,,,,,,,,,,,654.6290587079711,654.635020665999,655.6338202079642,656.6194855409558,656.6194855409558,656.6194855409558,657.2805128329783,left,0.651669375016354,None,,,,,,,,100192,001,2024-12-08_13h12.27.964,Test,2024.2.4,None,2024-12-08 13h12.37.920357 +0100,
39,150,0,53,None,34,34,0,True,,,,left,0.8181390420068055,None,,,,,,,,,,,,,0,34,34,34,657.2956814999925,,,,,,,,,,,,,,,,,,,,,,,,,,,,,,,,,,,,,,,,,,,,,,,,,,,,,,,,,,,,,,,,,,,,,,,,,657.2893864999642,657.2956814999925,658.2837619159836,659.2780023749801,659.2780023749801,659.2780023749801,660.1036302499706,left,0.8181390420068055,None,,,,,,,,100192,001,2024-12-08_13h12.27.964,Test,2024.2.4,None,2024-12-08 13h12.37.920357 +0100,
43,150,30,20,None,35,35,0,True,,,,left,1.2386108339997008,None,,,,,,,,,,,,,0,35,35,35,660.1178727909573,,,,,,,,,,,,,,,,,,,,,,,,,,,,,,,,,,,,,,,,,,,,,,,,,,,,,,,,,,,,,,,,,,,,,,,,,660.1121673329617,660.1178727909573,661.1116933749872,662.1026738329674,662.1026738329674,662.1026738329674,663.3470855409978,left,1.2386108339997008,None,,,,,,,,100192,001,2024-12-08_13h12.27.964,Test,2024.2.4,None,2024-12-08 13h12.37.920357 +0100,
33,150,180,30,None,36,36,0,False,,,,left,1.350334541988559,None,,,,,,,,,,,,,0,36,36,36,663.3620725829969,,,,,,,,,,,,,,,,,,,,,,,,,,,,,,,,,,,,,,,,,,,,,,,,,,,,,,,,,,,,,,,,,,,,,,,,,663.3553087909822,663.3620725829969,664.3495237079915,665.3452992909588,665.3452992909588,665.3452992909588,666.7029337499989,left,1.350334541988559,None,,,,,,,,100192,001,2024-12-08_13h12.27.964,Test,2024.2.4,None,2024-12-08 13h12.37.920357 +0100,
8,150,30,61,None,37,37,0,False,,,,right,1.765729041013401,None,,,,,,,,,,,,,0,37,37,37,666.7171855409979,,,,,,,,,,,,,,,,,,,,,,,,,,,,,,,,,,,,,,,,,,,,,,,,,,,,,,,,,,,,,,,,,,,,,,,,,666.711371915997,666.7171855409979,667.7117809999618,668.7017459159833,668.7017459159833,668.7017459159833,670.4702291659778,right,1.765729041013401,None,,,,,,,,100192,001,2024-12-08_13h12.27.964,Test,2024.2.4,None,2024-12-08 13h12.37.920357 +0100,
38,150,0,35,None,38,38,0,True,,,,right,1.2446262919693254,None,,,,,,,,,,,,,0,38,38,38,670.4847757499665,,,,,,,,,,,,,,,,,,,,,,,,,,,,,,,,,,,,,,,,,,,,,,,,,,,,,,,,,,,,,,,,,,,,,,,,,670.4782919579884,670.4847757499665,671.4784597499529,672.4689520829706,672.4689520829706,672.4689520829706,673.7200555409654,right,1.2446262919693254,None,,,,,,,,100192,001,2024-12-08_13h12.27.964,Test,2024.2.4,None,2024-12-08 13h12.37.920357 +0100,
42,150,30,37,None,39,39,0,True,,,,left,1.0461467090062797,None,,,,,,,,,,,,,0,39,39,39,673.7342138329986,,,,,,,,,,,,,,,,,,,,,,,,,,,,,,,,,,,,,,,,,,,,,,,,,,,,,,,,,,,,,,,,,,,,,,,,,673.7283982909867,673.7342138329986,674.7283903749776,675.7192889579455,675.7192889579455,675.7192889579455,676.769385624968,left,1.0461467090062797,None,,,,,,,,100192,001,2024-12-08_13h12.27.964,Test,2024.2.4,None,2024-12-08 13h12.37.920357 +0100,
9,150,30,11,None,40,40,0,False,,,,left,1.2162836249917746,None,,,,,,,,,,,,,0,40,40,40,676.7865435829735,,,,,,,,,,,,,,,,,,,,,,,,,,,,,,,,,,,,,,,,,,,,,,,,,,,,,,,,,,,,,,,,,,,,,,,,,676.7806873329682,676.7865435829735,677.7838426659582,678.7711101249442,678.7711101249442,678.7711101249442,679.9973719579866,left,1.2162836249917746,None,,,,,,,,100192,001,2024-12-08_13h12.27.964,Test,2024.2.4,None,2024-12-08 13h12.37.920357 +0100,
17,150,90,49,None,41,41,0,False,,,,right,1.0175712500349618,None,,,,,,,,,,,,,0,41,41,41,680.0138063749764,,,,,,,,,,,,,,,,,,,,,,,,,,,,,,,,,,,,,,,,,,,,,,,,,,,,,,,,,,,,,,,,,,,,,,,,,680.0075581249548,680.0138063749764,681.011711374973,681.9947348749847,681.9947348749847,681.9947348749847,683.0153419999988,right,1.0175712500349618,None,,,,,,,,100192,001,2024-12-08_13h12.27.964,Test,2024.2.4,None,2024-12-08 13h12.37.920357 +0100,
28,150,150,44,None,42,42,0,False,,,,right,1.068720957962796,None,,,,,,,,,,,,,0,42,42,42,683.0303986659856,,,,,,,,,,,,,,,,,,,,,,,,,,,,,,,,,,,,,,,,,,,,,,,,,,,,,,,,,,,,,,,,,,,,,,,,,683.0242342079873,683.0303986659856,684.0282527079689,685.0117519579944,685.0117519579944,685.0117519579944,686.0871094159666,right,1.068720957962796,None,,,,,,,,100192,001,2024-12-08_13h12.27.964,Test,2024.2.4,None,2024-12-08 13h12.37.920357 +0100,
56,150,120,48,None,43,43,0,True,,,,right,1.012221708020661,None,,,,,,,,,,,,,0,43,43,43,686.1018770829542,,,,,,,,,,,,,,,,,,,,,,,,,,,,,,,,,,,,,,,,,,,,,,,,,,,,,,,,,,,,,,,,,,,,,,,,,686.0958556249971,686.1018770829542,687.0951395829907,688.0861902079778,688.0861902079778,688.0861902079778,689.1036094159936,right,1.012221708020661,None,,,,,,,,100192,001,2024-12-08_13h12.27.964,Test,2024.2.4,None,2024-12-08 13h12.37.920357 +0100,
41,150,30,59,None,44,44,0,True,,,,left,0.7691957919741981,None,,,,,,,,,,,,,0,44,44,44,689.118350582954,,,,,,,,,,,,,,,,,,,,,,,,,,,,,,,,,,,,,,,,,,,,,,,,,,,,,,,,,,,,,,,,,,,,,,,,,689.1119744159514,689.118350582954,690.1117845829576,691.1026042079902,691.1026042079902,691.1026042079902,691.8804607909988,left,0.7691957919741981,None,,,,,,,,100192,001,2024-12-08_13h12.27.964,Test,2024.2.4,None,2024-12-08 13h12.37.920357 +0100,
19,150,90,21,None,45,45,0,False,,,,right,1.3955577919841744,None,,,,,,,,,,,,,0,45,45,45,691.8950135409832,,,,,,,,,,,,,,,,,,,,,,,,,,,,,,,,,,,,,,,,,,,,,,,,,,,,,,,,,,,,,,,,,,,,,,,,,691.8886730409577,691.8950135409832,692.8831716249697,693.8785057909554,693.8785057909554,693.8785057909554,695.2805550829507,right,1.3955577919841744,None,,,,,,,,100192,001,2024-12-08_13h12.27.964,Test,2024.2.4,None,2024-12-08 13h12.37.920357 +0100,
15,150,60,39,None,46,46,0,False,,,,left,0.8169273749808781,None,,,,,,,,,,,,,0,46,46,46,695.2954339579446,,,,,,,,,,,,,,,,,,,,,,,,,,,,,,,,,,,,,,,,,,,,,,,,,,,,,,,,,,,,,,,,,,,,,,,,,695.2891538749682,695.2954339579446,696.283646790951,697.2785659159999,697.2785659159999,697.2785659159999,698.0986480409629,left,0.8169273749808781,None,,,,,,,,100192,001,2024-12-08_13h12.27.964,Test,2024.2.4,None,2024-12-08 13h12.37.920357 +0100,
69,150,180,31,None,47,47,0,True,,,,right,0.851895916974172,None,,,,,,,,,,,,,0,47,47,47,698.1134298329707,,,,,,,,,,,,,,,,,,,,,,,,,,,,,,,,,,,,,,,,,,,,,,,,,,,,,,,,,,,,,,,,,,,,,,,,,698.1072800830007,698.1134298329707,699.1119379579904,700.0946411249461,700.0946411249461,700.0946411249461,700.9532992909662,right,0.851895916974172,None,,,,,,,,100192,001,2024-12-08_13h12.27.964,Test,2024.2.4,None,2024-12-08 13h12.37.920357 +0100,
37,150,0,45,None,48,48,0,True,,,,left,1.2262759580044076,None,,,,,,,,,,,,,0,48,48,48,700.9692893749452,,,,,,,,,,,,,,,,,,,,,,,,,,,,,,,,,,,,,,,,,,,,,,,,,,,,,,,,,,,,,,,,,,,,,,,,,700.9625185829937,700.9692893749452,701.966734540998,702.9524922909914,702.9524922909914,702.9524922909914,704.1817141249776,left,1.2262759580044076,None,,,,,,,,100192,001,2024-12-08_13h12.27.964,Test,2024.2.4,None,2024-12-08 13h12.37.920357 +0100,
50,150,60,65,None,49,49,0,True,,,,left,0.645135750004556,None,,,,,,,,,,,,,0,49,49,49,704.1959930829471,,,,,,,,,,,,,,,,,,,,,,,,,,,,,,,,,,,,,,,,,,,,,,,,,,,,,,,,,,,,,,,,,,,,,,,,,704.1901474999613,704.1959930829471,705.1838437079568,706.1785592079978,706.1785592079978,706.1785592079978,706.8304333749693,left,0.645135750004556,None,,,,,,,,100192,001,2024-12-08_13h12.27.964,Test,2024.2.4,None,2024-12-08 13h12.37.920357 +0100,
26,150,150,9,None,50,50,0,False,,,,left,0.6934862920315936,None,,,,,,,,,,,,,0,50,50,50,706.8456734579522,,,,,,,,,,,,,,,,,,,,,,,,,,,,,,,,,,,,,,,,,,,,,,,,,,,,,,,,,,,,,,,,,,,,,,,,,706.8391797079821,706.8456734579522,707.8336716659833,708.8286987909814,708.8286987909814,708.8286987909814,709.5305297499872,left,0.6934862920315936,None,,,,,,,,100192,001,2024-12-08_13h12.27.964,Test,2024.2.4,None,2024-12-08 13h12.37.920357 +0100,
40,150,0,15,None,51,51,0,True,,,,left,0.7356148340040818,None,,,,,,,,,,,,,0,51,51,51,709.5456229579868,,,,,,,,,,,,,,,,,,,,,,,,,,,,,,,,,,,,,,,,,,,,,,,,,,,,,,,,,,,,,,,,,,,,,,,,,709.5394583749585,709.5456229579868,710.533651332953,711.5285866659833,711.5285866659833,711.5285866659833,712.2696480409941,left,0.7356148340040818,None,,,,,,,,100192,001,2024-12-08_13h12.27.964,Test,2024.2.4,None,2024-12-08 13h12.37.920357 +0100,
3,150,0,24,None,52,52,0,False,,,,left,0.52965708298143,None,,,,,,,,,,,,,0,52,52,52,712.2845387909911,,,,,,,,,,,,,,,,,,,,,,,,,,,,,,,,,,,,,,,,,,,,,,,,,,,,,,,,,,,,,,,,,,,,,,,,,712.2781573749962,712.2845387909911,713.2783390829572,714.268584290985,714.268584290985,714.268584290985,714.8034243329894,left,0.52965708298143,None,,,,,,,,100192,001,2024-12-08_13h12.27.964,Test,2024.2.4,None,2024-12-08 13h12.37.920357 +0100,
23,150,120,5,None,53,53,0,False,,,,right,0.7461644999566488,None,,,,,,,,,,,,,0,53,53,53,714.8180776249501,,,,,,,,,,,,,,,,,,,,,,,,,,,,,,,,,,,,,,,,,,,,,,,,,,,,,,,,,,,,,,,,,,,,,,,,,714.8119981249911,714.8180776249501,715.8117078749929,716.802229999972,716.802229999972,716.802229999972,717.5533223329694,right,0.7461644999566488,None,,,,,,,,100192,001,2024-12-08_13h12.27.964,Test,2024.2.4,None,2024-12-08 13h12.37.920357 +0100,
62,150,150,12,None,54,54,0,True,,,,left,0.9552334580221213,None,,,,,,,,,,,,,0,54,54,54,717.5680471659871,,,,,,,,,,,,,,,,,,,,,,,,,,,,,,,,,,,,,,,,,,,,,,,,,,,,,,,,,,,,,,,,,,,,,,,,,717.5618646249641,717.5680471659871,718.5617273749667,719.5524913329864,719.5524913329864,719.5524913329864,720.5139059159555,left,0.9552334580221213,None,,,,,,,,100192,001,2024-12-08_13h12.27.964,Test,2024.2.4,None,2024-12-08 13h12.37.920357 +0100,
5,150,0,67,None,55,55,0,False,,,,left,0.8946870000218041,None,,,,,,,,,,,,,0,55,55,55,720.5288207499543,,,,,,,,,,,,,,,,,,,,,,,,,,,,,,,,,,,,,,,,,,,,,,,,,,,,,,,,,,,,,,,,,,,,,,,,,720.5221905829967,720.5288207499543,721.5170862079831,722.5117698749527,722.5117698749527,722.5117698749527,723.4137430829578,left,0.8946870000218041,None,,,,,,,,100192,001,2024-12-08_13h12.27.964,Test,2024.2.4,None,2024-12-08 13h12.37.920357 +0100,
70,150,180,69,None,56,56,0,True,,,,right,0.9740480000036769,None,,,,,,,,,,,,,0,56,56,56,723.4269806249649,,,,,,,,,,,,,,,,,,,,,,,,,,,,,,,,,,,,,,,,,,,,,,,,,,,,,,,,,,,,,,,,,,,,,,,,,723.4212184159551,723.4269806249649,724.4171217909898,725.4119639999699,725.4119639999699,725.4119639999699,726.3972617909894,right,0.9740480000036769,None,,,,,,,,100192,001,2024-12-08_13h12.27.964,Test,2024.2.4,None,2024-12-08 13h12.37.920357 +0100,
20,150,90,57,None,57,57,0,False,,,,left,1.171952125034295,None,,,,,,,,,,,,,0,57,57,57,726.4129037909443,,,,,,,,,,,,,,,,,,,,,,,,,,,,,,,,,,,,,,,,,,,,,,,,,,,,,,,,,,,,,,,,,,,,,,,,,726.4072592079756,726.4129037909443,727.4117191659752,728.3952084999764,728.3952084999764,728.3952084999764,729.5704245829838,left,1.171952125034295,None,,,,,,,,100192,001,2024-12-08_13h12.27.964,Test,2024.2.4,None,2024-12-08 13h12.37.920357 +0100,
22,150,120,33,None,58,58,0,False,,,,left,1.0607653339975514,None,,,,,,,,,,,,,0,58,58,58,729.5850284579792,,,,,,,,,,,,,,,,,,,,,,,,,,,,,,,,,,,,,,,,,,,,,,,,,,,,,,,,,,,,,,,,,,,,,,,,,729.5791538329795,729.5850284579792,730.5783728329698,731.5690197079675,731.5690197079675,731.5690197079675,732.6370699159452,left,1.0607653339975514,None,,,,,,,,100192,001,2024-12-08_13h12.27.964,Test,2024.2.4,None,2024-12-08 13h12.37.920357 +0100,
67,150,180,60,None,59,59,0,True,,,,left,1.476311500009615,None,,,,,,,,,,,,,0,59,59,59,732.6511451659608,,,,,,,,,,,,,,,,,,,,,,,,,,,,,,,,,,,,,,,,,,,,,,,,,,,,,,,,,,,,,,,,,,,,,,,,,732.6455450409558,732.6511451659608,733.6450183749548,734.6362190409563,734.6362190409563,734.6362190409563,736.122959374974,left,1.476311500009615,None,,,,,,,,100192,001,2024-12-08_13h12.27.964,Test,2024.2.4,None,2024-12-08 13h12.37.920357 +0100,
68,150,180,63,None,60,60,0,True,,,,right,1.5524993329891004,None,,,,,,,,,,,,,0,60,60,60,736.1347894999781,,,,,,,,,,,,,,,,,,,,,,,,,,,,,,,,,,,,,,,,,,,,,,,,,,,,,,,,,,,,,,,,,,,,,,,,,736.1301915409858,736.1347894999781,737.1284952079877,738.119182165945,738.119182165945,738.119182165945,739.6805321249994,right,1.5524993329891004,None,,,,,,,,100192,001,2024-12-08_13h12.27.964,Test,2024.2.4,None,2024-12-08 13h12.37.920357 +0100,
12,150,60,32,None,61,61,0,False,,,,left,0.923987207992468,None,,,,,,,,,,,,,0,61,61,61,739.696444790985,,,,,,,,,,,,,,,,,,,,,,,,,,,,,,,,,,,,,,,,,,,,,,,,,,,,,,,,,,,,,,,,,,,,,,,,,739.6894414159469,739.696444790985,740.6951658749604,741.6788260829635,741.6788260829635,741.6788260829635,742.6139880829724,left,0.923987207992468,None,,,,,,,,100192,001,2024-12-08_13h12.27.964,Test,2024.2.4,None,2024-12-08 13h12.37.920357 +0100,
18,150,90,27,None,62,62,0,False,,,,left,1.3102996250381693,None,,,,,,,,,,,,,0,62,62,62,742.6296447499772,,,,,,,,,,,,,,,,,,,,,,,,,,,,,,,,,,,,,,,,,,,,,,,,,,,,,,,,,,,,,,,,,,,,,,,,,742.6230144579895,742.6296447499772,743.6284771659994,744.6118328749435,744.6118328749435,744.6118328749435,745.9305391249945,left,1.3102996250381693,None,,,,,,,,100192,001,2024-12-08_13h12.27.964,Test,2024.2.4,None,2024-12-08 13h12.37.920357 +0100,
29,150,150,66,None,63,63,0,False,,,,left,0.7112926669651642,None,,,,,,,,,,,,,0,63,63,63,745.9456508329604,,,,,,,,,,,,,,,,,,,,,,,,,,,,,,,,,,,,,,,,,,,,,,,,,,,,,,,,,,,,,,,,,,,,,,,,,745.9389401249937,745.9456508329604,746.9329271659954,747.9285726659582,747.9285726659582,747.9285726659582,748.6471612909809,left,0.7112926669651642,None,,,,,,,,100192,001,2024-12-08_13h12.27.964,Test,2024.2.4,None,2024-12-08 13h12.37.920357 +0100,
44,150,30,10,None,64,64,0,True,,,,left,1.5104339579702355,None,,,,,,,,,,,,,0,64,64,64,748.6606535829487,,,,,,,,,,,,,,,,,,,,,,,,,,,,,,,,,,,,,,,,,,,,,,,,,,,,,,,,,,,,,,,,,,,,,,,,,748.655028624984,748.6606535829487,749.6501023329911,750.6451401249506,750.6451401249506,750.6451401249506,752.1637671659701,left,1.5104339579702355,None,,,,,,,,100192,001,2024-12-08_13h12.27.964,Test,2024.2.4,None,2024-12-08 13h12.37.920357 +0100,
13,150,60,56,None,65,65,0,False,,,,left,1.201043708017096,None,,,,,,,,,,,,,0,65,65,65,752.1788621249725,,,,,,,,,,,,,,,,,,,,,,,,,,,,,,,,,,,,,,,,,,,,,,,,,,,,,,,,,,,,,,,,,,,,,,,,,752.1724801249802,752.1788621249725,753.1667262909468,754.1621195829939,754.1621195829939,754.1621195829939,755.3699221249553,left,1.201043708017096,None,,,,,,,,100192,001,2024-12-08_13h12.27.964,Test,2024.2.4,None,2024-12-08 13h12.37.920357 +0100,
66,150,180,51,None,66,66,0,True,,,,right,1.6653372920118272,None,,,,,,,,,,,,,0,66,66,66,755.3847358749481,,,,,,,,,,,,,,,,,,,,,,,,,,,,,,,,,,,,,,,,,,,,,,,,,,,,,,,,,,,,,,,,,,,,,,,,,755.378637790971,755.3847358749481,756.3783677499741,757.3689894579584,757.3689894579584,757.3689894579584,759.036976790987,right,1.6653372920118272,None,,,,,,,,100192,001,2024-12-08_13h12.27.964,Test,2024.2.4,None,2024-12-08 13h12.37.920357 +0100,
48,150,60,16,None,67,67,0,True,,,,left,0.9140893340227194,None,,,,,,,,,,,,,0,67,67,67,759.0521088329842,,,,,,,,,,,,,,,,,,,,,,,,,,,,,,,,,,,,,,,,,,,,,,,,,,,,,,,,,,,,,,,,,,,,,,,,,759.0459671249846,759.0521088329842,760.0504028329742,761.0360547499731,761.0360547499731,761.0360547499731,761.953493457986,left,0.9140893340227194,None,,,,,,,,100192,001,2024-12-08_13h12.27.964,Test,2024.2.4,None,2024-12-08 13h12.37.920357 +0100,
11,150,60,14,None,68,68,0,False,,,,left,0.7994141660165042,None,,,,,,,,,,,,,0,68,68,68,761.9668718329631,,,,,,,,,,,,,,,,,,,,,,,,,,,,,,,,,,,,,,,,,,,,,,,,,,,,,,,,,,,,,,,,,,,,,,,,,761.9610247079981,761.9668718329631,762.961716165999,763.9532142499811,763.9532142499811,763.9532142499811,764.762910624966,left,0.7994141660165042,None,,,,,,,,100192,001,2024-12-08_13h12.27.964,Test,2024.2.4,None,2024-12-08 13h12.37.920357 +0100,
2,150,0,13,None,69,69,0,False,,,,left,0.7450539590208791,None,,,,,,,,,,,,,0,69,69,69,764.7740311659873,,,,,,,,,,,,,,,,,,,,,,,,,,,,,,,,,,,,,,,,,,,,,,,,,,,,,,,,,,,,,,,,,,,,,,,,,764.7695702909841,764.7740311659873,765.7671504579484,766.762015165994,766.762015165994,766.762015165994,767.5137930409983,left,0.7450539590208791,None,,,,,,,,100192,001,2024-12-08_13h12.27.964,Test,2024.2.4,None,2024-12-08 13h12.37.920357 +0100,
,,,,,,,,,,,,,,,,,,,,,,,,,,,,,,,,,,,,,,,,,,,,,,,,,,,,,,,,,,,,,,,,,,,,,,,,,,,,,,,,,,,,,,,,,,,,,,,,,,,,,,,,,,,,,,,,,,767.5141160829808,767.5234849159606,767.5234849159606,769.9364962499822,space,2.4057446669903584,None,100192,001,2024-12-08_13h12.27.964,Test,2024.2.4,None,2024-12-08 13h12.37.920357 +0100,
