Trial_Number,Exposure_Duration,Displacement_Angle,Stimulus,Response,thisN,thisTrialN,thisRepN,Is_Distractor,key_resp_3.keys,key_resp_3.rt,key_resp_3.duration,key_resp_7.keys,key_resp_7.rt,key_resp_7.duration,trials.thisRepN,trials.thisTrialN,trials.thisN,trials.thisIndex,trials_2.thisRepN,trials_2.thisTrialN,trials_2.thisN,trials_2.thisIndex,trials_3.thisRepN,trials_3.thisTrialN,trials_3.thisN,trials_3.thisIndex,trials_4.thisRepN,trials_4.thisTrialN,trials_4.thisN,trials_4.thisIndex,thisRow.t,notes,Intro_to_experiment.started,important1_2.started,key_resp_8.started,Intro_to_experiment.stopped,key_resp_8.keys,key_resp_8.rt,key_resp_8.duration,important.started,important1.started,key_resp_4.started,important.stopped,key_resp_4.keys,key_resp_4.rt,key_resp_4.duration,instruction.started,text_7.started,key_resp_9.started,instruction.stopped,key_resp_9.keys,key_resp_9.rt,key_resp_9.duration,training_trial.started,cross.started,image.started,aperture.started,cross.stopped,image.stopped,aperture.stopped,training_trial.stopped,New_instruction.started,text.started,key_resp_2.started,New_instruction.stopped,key_resp_2.keys,key_resp_2.rt,key_resp_2.duration,test_trial.started,cross2.started,cross2.stopped,image_2.started,key_resp_3.started,aperture_2.started,test_trial.stopped,trials_2.key_resp_3.keys,trials_2.key_resp_3.rt,trials_2.key_resp_3.duration,image_2.stopped,text_3.started,aperture_2.stopped,start_blok_2.started,key_resp_5.started,text_4.started,start_blok_2.stopped,key_resp_5.keys,key_resp_5.rt,key_resp_5.duration,training_2.started,cross_2.started,image_3.started,aperture_3.started,cross_2.stopped,image_3.stopped,aperture_3.stopped,training_2.stopped,nyeste_instruks.started,text_5.started,key_resp_6.started,nyeste_instruks.stopped,key_resp_6.keys,key_resp_6.rt,key_resp_6.duration,test_2.started,cross2_2.started,cross2_2.stopped,image_4.started,key_resp_7.started,aperture_4.started,test_2.stopped,trials_4.key_resp_7.keys,trials_4.key_resp_7.rt,trials_4.key_resp_7.duration,Instruction1.started,Instruktion.started,key_resp.started,Instruction1.stopped,key_resp.keys,key_resp.rt,key_resp.duration,participant,session,date,expName,psychopyVersion,frameRate,expStart,
,,,,,,,,,,,,,,,,,,,,,,,,,,,,,,,,,0.007739548993413337,0.01888111598964315,0.01888111598964315,27.823995180995553,space,27.78003636300855,None,,,,,,,,,,,,,,,,,,,,,,,,,,,,,,,,,,,,,,,,,,,,,,,,,,,,,,,,,,,,,,,,,,,,,,,,,,,,,,,,,,111000,001,2024-12-05_17h14.01.585,Test,2024.2.1,60.24091558940431,2024-12-05 17h15.50.833231 +0100,
,,,,,,,,,,,,,,,,,,,,,,,,,,,,,,,,,,,,,,,,27.824090081994655,27.83664914299152,27.83664914299152,58.180339276994346,space,30.332926678995136,None,,,,,,,,,,,,,,,,,,,,,,,,,,,,,,,,,,,,,,,,,,,,,,,,,,,,,,,,,,,,,,,,,,,,,,,,,,,111000,001,2024-12-05_17h14.01.585,Test,2024.2.1,60.24091558940431,2024-12-05 17h15.50.833231 +0100,
,,,,,,,,,,,,,,,,,,,,,,,,,,,,,,,,,,,,,,,,,,,,,,,58.18040007598756,58.19586896299734,58.19586896299734,85.14820946399414,space,26.94311030600511,None,,,,,,,,,,,,,,,,,,,,,,,,,,,,,,,,,,,,,,,,,,,,,,,,,,,,,,,,,,,,,,,,,,,,111000,001,2024-12-05_17h14.01.585,Test,2024.2.1,60.24091558940431,2024-12-05 17h15.50.833231 +0100,
19,150,90,3,None,0,0,0,,,,,,,,0,0,0,18,,,,,,,,,,,,,85.20119623398932,,,,,,,,,,,,,,,,,,,,,,,85.19285757398757,85.20119623398932,85.36414821200015,85.36414821200015,85.41383994399803,87.06379753199872,87.06379753199872,87.0481610789866,,,,,,,,,,,,,,,,,,,,,,,,,,,,,,,,,,,,,,,,,,,,,,,,,,,,,,,,,,,,111000,001,2024-12-05_17h14.01.585,Test,2024.2.1,60.24091558940431,2024-12-05 17h15.50.833231 +0100,
7,150,30,58,None,1,1,0,,,,,,,,0,1,1,6,,,,,,,,,,,,,87.06379753199872,,,,,,,,,,,,,,,,,,,,,,,87.05493677899358,87.06379753199872,87.24684107699431,87.24684107699431,87.26376045199868,88.94811008799297,88.94811008799297,88.93211550499836,,,,,,,,,,,,,,,,,,,,,,,,,,,,,,,,,,,,,,,,,,,,,,,,,,,,,,,,,,,,111000,001,2024-12-05_17h14.01.585,Test,2024.2.1,60.24091558940431,2024-12-05 17h15.50.833231 +0100,
5,150,0,5,None,2,2,0,,,,,,,,0,2,2,4,,,,,,,,,,,,,88.94811008799297,,,,,,,,,,,,,,,,,,,,,,,88.93897086699144,88.94811008799297,89.14801279798849,89.14801279798849,89.14801279798849,90.84751605599013,90.84751605599013,90.8323093749932,,,,,,,,,,,,,,,,,,,,,,,,,,,,,,,,,,,,,,,,,,,,,,,,,,,,,,,,,,,,111000,001,2024-12-05_17h14.01.585,Test,2024.2.1,60.24091558940431,2024-12-05 17h15.50.833231 +0100,
31,150,180,67,None,3,3,0,,,,,,,,0,3,3,30,,,,,,,,,,,,,90.84751605599013,,,,,,,,,,,,,,,,,,,,,,,90.8399318009906,90.84751605599013,91.04792668799928,91.04792668799928,91.04792668799928,92.74771607299044,92.74771607299044,92.73173203099577,,,,,,,,,,,,,,,,,,,,,,,,,,,,,,,,,,,,,,,,,,,,,,,,,,,,,,,,,,,,111000,001,2024-12-05_17h14.01.585,Test,2024.2.1,60.24091558940431,2024-12-05 17h15.50.833231 +0100,
30,150,150,11,None,4,4,0,,,,,,,,0,4,4,29,,,,,,,,,,,,,92.74771607299044,,,,,,,,,,,,,,,,,,,,,,,92.7378055399895,92.74771607299044,92.94831169999088,92.94831169999088,92.94831169999088,94.64750652998919,94.64750652998919,94.63166255899705,,,,,,,,,,,,,,,,,,,,,,,,,,,,,,,,,,,,,,,,,,,,,,,,,,,,,,,,,,,,111000,001,2024-12-05_17h14.01.585,Test,2024.2.1,60.24091558940431,2024-12-05 17h15.50.833231 +0100,
9,150,30,16,None,5,5,0,,,,,,,,0,5,5,8,,,,,,,,,,,,,94.64750652998919,,,,,,,,,,,,,,,,,,,,,,,94.63811552598781,94.64750652998919,94.84855564498866,94.84855564498866,94.84855564498866,96.54728326699114,96.54728326699114,96.53241955899284,,,,,,,,,,,,,,,,,,,,,,,,,,,,,,,,,,,,,,,,,,,,,,,,,,,,,,,,,,,,111000,001,2024-12-05_17h14.01.585,Test,2024.2.1,60.24091558940431,2024-12-05 17h15.50.833231 +0100,
29,150,150,54,None,6,6,0,,,,,,,,0,6,6,28,,,,,,,,,,,,,96.54728326699114,,,,,,,,,,,,,,,,,,,,,,,96.5384281329898,96.54728326699114,96.74836211898946,96.74836211898946,96.74836211898946,98.44779308199941,98.44779308199941,98.43172795399732,,,,,,,,,,,,,,,,,,,,,,,,,,,,,,,,,,,,,,,,,,,,,,,,,,,,,,,,,,,,111000,001,2024-12-05_17h14.01.585,Test,2024.2.1,60.24091558940431,2024-12-05 17h15.50.833231 +0100,
8,150,30,23,None,7,7,0,,,,,,,,0,7,7,7,,,,,,,,,,,,,98.44779308199941,,,,,,,,,,,,,,,,,,,,,,,98.43909802699636,98.44779308199941,98.64792712499911,98.64792712499911,98.64792712499911,100.34766476599907,100.34766476599907,100.33206558399252,,,,,,,,,,,,,,,,,,,,,,,,,,,,,,,,,,,,,,,,,,,,,,,,,,,,,,,,,,,,111000,001,2024-12-05_17h14.01.585,Test,2024.2.1,60.24091558940431,2024-12-05 17h15.50.833231 +0100,
22,150,120,30,None,8,8,0,,,,,,,,0,8,8,21,,,,,,,,,,,,,100.34766476599907,,,,,,,,,,,,,,,,,,,,,,,100.33858151899767,100.34766476599907,100.54809236399888,100.54809236399888,100.54809236399888,102.24788177199662,102.24788177199662,102.23264205698797,,,,,,,,,,,,,,,,,,,,,,,,,,,,,,,,,,,,,,,,,,,,,,,,,,,,,,,,,,,,111000,001,2024-12-05_17h14.01.585,Test,2024.2.1,60.24091558940431,2024-12-05 17h15.50.833231 +0100,
17,150,90,43,None,9,9,0,,,,,,,,0,9,9,16,,,,,,,,,,,,,102.24788177199662,,,,,,,,,,,,,,,,,,,,,,,102.2390082669881,102.24788177199662,102.44817350700032,102.44817350700032,102.44817350700032,104.15256272398983,104.15256272398983,104.13360998999269,,,,,,,,,,,,,,,,,,,,,,,,,,,,,,,,,,,,,,,,,,,,,,,,,,,,,,,,,,,,111000,001,2024-12-05_17h14.01.585,Test,2024.2.1,60.24091558940431,2024-12-05 17h15.50.833231 +0100,
3,150,0,13,None,10,10,0,,,,,,,,0,10,10,2,,,,,,,,,,,,,104.15256272398983,,,,,,,,,,,,,,,,,,,,,,,104.14354165698751,104.15256272398983,104.34833751698898,104.34833751698898,104.36488023700076,106.04870861698873,106.04870861698873,106.03224132799369,,,,,,,,,,,,,,,,,,,,,,,,,,,,,,,,,,,,,,,,,,,,,,,,,,,,,,,,,,,,111000,001,2024-12-05_17h14.01.585,Test,2024.2.1,60.24091558940431,2024-12-05 17h15.50.833231 +0100,
25,150,120,33,None,11,11,0,,,,,,,,0,11,11,24,,,,,,,,,,,,,106.04870861698873,,,,,,,,,,,,,,,,,,,,,,,106.0377301809931,106.04870861698873,106.2480365599913,106.2480365599913,106.2480365599913,107.9480491229915,107.9480491229915,107.9329704069969,,,,,,,,,,,,,,,,,,,,,,,,,,,,,,,,,,,,,,,,,,,,,,,,,,,,,,,,,,,,111000,001,2024-12-05_17h14.01.585,Test,2024.2.1,60.24091558940431,2024-12-05 17h15.50.833231 +0100,
10,150,30,68,None,12,12,0,,,,,,,,0,12,12,9,,,,,,,,,,,,,107.9480491229915,,,,,,,,,,,,,,,,,,,,,,,107.93890382698737,107.9480491229915,108.14907345898973,108.14907345898973,108.14907345898973,109.84861344798992,109.84861344798992,109.83258853599546,,,,,,,,,,,,,,,,,,,,,,,,,,,,,,,,,,,,,,,,,,,,,,,,,,,,,,,,,,,,111000,001,2024-12-05_17h14.01.585,Test,2024.2.1,60.24091558940431,2024-12-05 17h15.50.833231 +0100,
28,150,150,36,None,13,13,0,,,,,,,,0,13,13,27,,,,,,,,,,,,,109.84861344798992,,,,,,,,,,,,,,,,,,,,,,,109.83828691499366,109.84861344798992,110.0482250389905,110.0482250389905,110.0482250389905,111.75446808499692,111.75446808499692,111.73353410299751,,,,,,,,,,,,,,,,,,,,,,,,,,,,,,,,,,,,,,,,,,,,,,,,,,,,,,,,,,,,111000,001,2024-12-05_17h14.01.585,Test,2024.2.1,60.24091558940431,2024-12-05 17h15.50.833231 +0100,
34,150,180,34,None,14,14,0,,,,,,,,0,14,14,33,,,,,,,,,,,,,111.75446808499692,,,,,,,,,,,,,,,,,,,,,,,111.74666635799804,111.75446808499692,111.94947706098901,111.94947706098901,111.96592273299757,113.64924440599862,113.64924440599862,113.63343271099438,,,,,,,,,,,,,,,,,,,,,,,,,,,,,,,,,,,,,,,,,,,,,,,,,,,,,,,,,,,,111000,001,2024-12-05_17h14.01.585,Test,2024.2.1,60.24091558940431,2024-12-05 17h15.50.833231 +0100,
26,150,150,46,None,15,15,0,,,,,,,,0,15,15,25,,,,,,,,,,,,,113.64924440599862,,,,,,,,,,,,,,,,,,,,,,,113.64134246499452,113.64924440599862,113.84917645099631,113.84917645099631,113.84917645099631,115.54885723399639,115.54885723399639,115.53358203599055,,,,,,,,,,,,,,,,,,,,,,,,,,,,,,,,,,,,,,,,,,,,,,,,,,,,,,,,,,,,111000,001,2024-12-05_17h14.01.585,Test,2024.2.1,60.24091558940431,2024-12-05 17h15.50.833231 +0100,
12,150,60,22,None,16,16,0,,,,,,,,0,16,16,11,,,,,,,,,,,,,115.54885723399639,,,,,,,,,,,,,,,,,,,,,,,115.54098358099873,115.54885723399639,115.74970485598897,115.74970485598897,115.74970485598897,117.44898734299932,117.44898734299932,117.43344334699214,,,,,,,,,,,,,,,,,,,,,,,,,,,,,,,,,,,,,,,,,,,,,,,,,,,,,,,,,,,,111000,001,2024-12-05_17h14.01.585,Test,2024.2.1,60.24091558940431,2024-12-05 17h15.50.833231 +0100,
33,150,180,1,None,17,17,0,,,,,,,,0,17,17,32,,,,,,,,,,,,,117.44898734299932,,,,,,,,,,,,,,,,,,,,,,,117.43949936199351,117.44898734299932,117.64927844099293,117.64927844099293,117.64927844099293,119.34919218700088,119.34919218700088,119.33366606799245,,,,,,,,,,,,,,,,,,,,,,,,,,,,,,,,,,,,,,,,,,,,,,,,,,,,,,,,,,,,111000,001,2024-12-05_17h14.01.585,Test,2024.2.1,60.24091558940431,2024-12-05 17h15.50.833231 +0100,
24,150,120,42,None,18,18,0,,,,,,,,0,18,18,23,,,,,,,,,,,,,119.34919218700088,,,,,,,,,,,,,,,,,,,,,,,119.34061034899787,119.34919218700088,119.54910179199942,119.54910179199942,119.54910179199942,121.25384771698737,121.25384771698737,121.23484875400027,,,,,,,,,,,,,,,,,,,,,,,,,,,,,,,,,,,,,,,,,,,,,,,,,,,,,,,,,,,,111000,001,2024-12-05_17h14.01.585,Test,2024.2.1,60.24091558940431,2024-12-05 17h15.50.833231 +0100,
27,150,150,45,None,19,19,0,,,,,,,,0,19,19,26,,,,,,,,,,,,,121.25384771698737,,,,,,,,,,,,,,,,,,,,,,,121.2467653700005,121.25384771698737,121.44966084999032,121.44966084999032,121.46612203899713,123.14985432699905,123.14985432699905,123.1341544869938,,,,,,,,,,,,,,,,,,,,,,,,,,,,,,,,,,,,,,,,,,,,,,,,,,,,,,,,,,,,111000,001,2024-12-05_17h14.01.585,Test,2024.2.1,60.24091558940431,2024-12-05 17h15.50.833231 +0100,
11,150,60,6,None,20,20,0,,,,,,,,0,20,20,10,,,,,,,,,,,,,123.14985432699905,,,,,,,,,,,,,,,,,,,,,,,123.14173380199645,123.14985432699905,123.34976235700015,123.34976235700015,123.34976235700015,125.05267041998741,125.05267041998741,125.03492954898684,,,,,,,,,,,,,,,,,,,,,,,,,,,,,,,,,,,,,,,,,,,,,,,,,,,,,,,,,,,,111000,001,2024-12-05_17h14.01.585,Test,2024.2.1,60.24091558940431,2024-12-05 17h15.50.833231 +0100,
35,150,180,31,None,21,21,0,,,,,,,,0,21,21,34,,,,,,,,,,,,,125.05267041998741,,,,,,,,,,,,,,,,,,,,,,,125.04436072899261,125.05267041998741,125.2501508469868,125.2501508469868,125.26666740200017,126.95344027799729,126.95344027799729,126.93493745599699,,,,,,,,,,,,,,,,,,,,,,,,,,,,,,,,,,,,,,,,,,,,,,,,,,,,,,,,,,,,111000,001,2024-12-05_17h14.01.585,Test,2024.2.1,60.24091558940431,2024-12-05 17h15.50.833231 +0100,
14,150,60,37,None,22,22,0,,,,,,,,0,22,22,13,,,,,,,,,,,,,126.95344027799729,,,,,,,,,,,,,,,,,,,,,,,126.94478220999008,126.95344027799729,127.15096789099334,127.15096789099334,127.16726808100066,128.85280527899158,128.85280527899158,128.83499480999308,,,,,,,,,,,,,,,,,,,,,,,,,,,,,,,,,,,,,,,,,,,,,,,,,,,,,,,,,,,,111000,001,2024-12-05_17h14.01.585,Test,2024.2.1,60.24091558940431,2024-12-05 17h15.50.833231 +0100,
18,150,90,66,None,23,23,0,,,,,,,,0,23,23,17,,,,,,,,,,,,,128.85280527899158,,,,,,,,,,,,,,,,,,,,,,,128.84438129598857,128.85280527899158,129.05080389000068,129.05080389000068,129.06739256299625,130.75413267599652,130.75413267599652,130.73545218000072,,,,,,,,,,,,,,,,,,,,,,,,,,,,,,,,,,,,,,,,,,,,,,,,,,,,,,,,,,,,111000,001,2024-12-05_17h14.01.585,Test,2024.2.1,60.24091558940431,2024-12-05 17h15.50.833231 +0100,
23,150,120,29,None,24,24,0,,,,,,,,0,24,24,22,,,,,,,,,,,,,130.75413267599652,,,,,,,,,,,,,,,,,,,,,,,130.74571028898936,130.75413267599652,130.95009429399215,130.95009429399215,130.9672169659898,132.64992688100028,132.64992688100028,132.63438617398788,,,,,,,,,,,,,,,,,,,,,,,,,,,,,,,,,,,,,,,,,,,,,,,,,,,,,,,,,,,,111000,001,2024-12-05_17h14.01.585,Test,2024.2.1,60.24091558940431,2024-12-05 17h15.50.833231 +0100,
4,150,0,56,None,25,25,0,,,,,,,,0,25,25,3,,,,,,,,,,,,,132.64992688100028,,,,,,,,,,,,,,,,,,,,,,,132.64000889299496,132.64992688100028,132.85078080899257,132.85078080899257,132.85078080899257,134.54983668899513,134.54983668899513,134.5346482659952,,,,,,,,,,,,,,,,,,,,,,,,,,,,,,,,,,,,,,,,,,,,,,,,,,,,,,,,,,,,111000,001,2024-12-05_17h14.01.585,Test,2024.2.1,60.24091558940431,2024-12-05 17h15.50.833231 +0100,
20,150,90,32,None,26,26,0,,,,,,,,0,26,26,19,,,,,,,,,,,,,134.54983668899513,,,,,,,,,,,,,,,,,,,,,,,134.54135178298748,134.54983668899513,134.75152832599997,134.75152832599997,134.75152832599997,,,136.4508287159988,,,,,,,,,,,,,,,,,,,,,,,,,,,,,,,,,,,,,,,,,,,,,,,,,,,,,,,,,,,,111000,001,2024-12-05_17h14.01.585,Test,2024.2.1,60.24091558940431,2024-12-05 17h15.50.833231 +0100,
15,150,60,51,None,27,27,0,,,,,,,,0,27,27,14,,,,,,,,,,,,,136.4664012259891,,,,,,,,,,,,,,,,,,,,,,,136.45680488199287,136.4664012259891,136.65048678399762,136.65048678399762,136.667340340995,138.3543843889929,138.3543843889929,138.3361923199991,,,,,,,,,,,,,,,,,,,,,,,,,,,,,,,,,,,,,,,,,,,,,,,,,,,,,,,,,,,,111000,001,2024-12-05_17h14.01.585,Test,2024.2.1,60.24091558940431,2024-12-05 17h15.50.833231 +0100,
6,150,30,38,None,28,28,0,,,,,,,,0,28,28,5,,,,,,,,,,,,,138.3543843889929,,,,,,,,,,,,,,,,,,,,,,,138.34579646399652,138.3543843889929,138.5507084139972,138.5507084139972,138.5672754739935,140.25054220498714,140.25054220498714,140.23481863099732,,,,,,,,,,,,,,,,,,,,,,,,,,,,,,,,,,,,,,,,,,,,,,,,,,,,,,,,,,,,111000,001,2024-12-05_17h14.01.585,Test,2024.2.1,60.24091558940431,2024-12-05 17h15.50.833231 +0100,
32,150,180,39,None,29,29,0,,,,,,,,0,29,29,31,,,,,,,,,,,,,140.25054220498714,,,,,,,,,,,,,,,,,,,,,,,140.24091494599998,140.25054220498714,140.45067713999015,140.45067713999015,140.45067713999015,142.1508819929877,142.1508819929877,142.1350159549911,,,,,,,,,,,,,,,,,,,,,,,,,,,,,,,,,,,,,,,,,,,,,,,,,,,,,,,,,,,,111000,001,2024-12-05_17h14.01.585,Test,2024.2.1,60.24091558940431,2024-12-05 17h15.50.833231 +0100,
13,150,60,2,None,30,30,0,,,,,,,,0,30,30,12,,,,,,,,,,,,,142.1508819929877,,,,,,,,,,,,,,,,,,,,,,,142.14126533399394,142.1508819929877,142.3513442659896,142.3513442659896,142.3513442659896,144.0507091939944,144.0507091939944,144.03470430299058,,,,,,,,,,,,,,,,,,,,,,,,,,,,,,,,,,,,,,,,,,,,,,,,,,,,,,,,,,,,111000,001,2024-12-05_17h14.01.585,Test,2024.2.1,60.24091558940431,2024-12-05 17h15.50.833231 +0100,
1,150,0,12,None,31,31,0,,,,,,,,0,31,31,0,,,,,,,,,,,,,144.0507091939944,,,,,,,,,,,,,,,,,,,,,,,144.0404679029889,144.0507091939944,144.2516421170003,144.2516421170003,144.2516421170003,145.95199813100044,145.95199813100044,145.9355428199924,,,,,,,,,,,,,,,,,,,,,,,,,,,,,,,,,,,,,,,,,,,,,,,,,,,,,,,,,,,,111000,001,2024-12-05_17h14.01.585,Test,2024.2.1,60.24091558940431,2024-12-05 17h15.50.833231 +0100,
16,150,90,57,None,32,32,0,,,,,,,,0,32,32,15,,,,,,,,,,,,,145.95199813100044,,,,,,,,,,,,,,,,,,,,,,,145.94348614598857,145.95199813100044,146.1512385149981,146.1512385149981,146.1679088529927,147.8520591409906,147.8520591409906,147.83553302499058,,,,,,,,,,,,,,,,,,,,,,,,,,,,,,,,,,,,,,,,,,,,,,,,,,,,,,,,,,,,111000,001,2024-12-05_17h14.01.585,Test,2024.2.1,60.24091558940431,2024-12-05 17h15.50.833231 +0100,
21,150,120,24,None,33,33,0,,,,,,,,0,33,33,20,,,,,,,,,,,,,147.8520591409906,,,,,,,,,,,,,,,,,,,,,,,147.843320407992,147.8520591409906,148.05142222899303,148.05142222899303,148.05142222899303,149.7513797989959,149.7513797989959,149.73582039900066,,,,,,,,,,,,,,,,,,,,,,,,,,,,,,,,,,,,,,,,,,,,,,,,,,,,,,,,,,,,111000,001,2024-12-05_17h14.01.585,Test,2024.2.1,60.24091558940431,2024-12-05 17h15.50.833231 +0100,
2,150,0,7,None,34,34,0,,,,,,,,0,34,34,1,,,,,,,,,,,,,149.7513797989959,,,,,,,,,,,,,,,,,,,,,,,149.74120046799362,149.7513797989959,149.9514097689971,149.9514097689971,149.9514097689971,151.65246614698844,151.65246614698844,151.63723304399173,,,,,,,,,,,,,,,,,,,,,,,,,,,,,,,,,,,,,,,,,,,,,,,,,,,,,,,,,,,,111000,001,2024-12-05_17h14.01.585,Test,2024.2.1,60.24091558940431,2024-12-05 17h15.50.833231 +0100,
,,,,,,,,,,,,,,,,,,,,,,,,,,,,,,,,,,,,,,,,,,,,,,,,,,,,,,,,,,,,,,151.6374435809994,151.65246614698844,151.65246614698844,168.1378867579915,space,16.476384877008968,None,,,,,,,,,,,,,,,,,,,,,,,,,,,,,,,,,,,,,,,,,,,,,,,,,,,,,111000,001,2024-12-05_17h14.01.585,Test,2024.2.1,60.24091558940431,2024-12-05 17h15.50.833231 +0100,
23,150,120,29,None,0,0,0,False,right,0.9831646509992424,None,,,,,,,,0,0,0,0,,,,,,,,,168.1625340289902,,,,,,,,,,,,,,,,,,,,,,,,,,,,,,,,,,,,,,168.15322752099019,168.1625340289902,169.16979491099482,170.15305990198976,170.15305990198976,170.15305990198976,171.13922977499897,right,0.9831646509992424,None,,,,,,,,,,,,,,,,,,,,,,,,,,,,,,,,,,,,,,,,,,,111000,001,2024-12-05_17h14.01.585,Test,2024.2.1,60.24091558940431,2024-12-05 17h15.50.833231 +0100,
42,150,30,41,None,1,1,0,True,right,0.9520594539935701,None,,,,,,,,0,1,1,1,,,,,,,,,171.17053906699584,,,,,,,,,,,,,,,,,,,,,,,,,,,,,,,,,,,,,,171.14508883799135,171.17053906699584,172.17060040099022,173.1539466039976,173.1539466039976,173.1539466039976,174.1212739959883,right,0.9520594539935701,None,,,,,,,,,,,,,,,,,,,,,,,,,,,,,,,,,,,,,,,,,,,111000,001,2024-12-05_17h14.01.585,Test,2024.2.1,60.24091558940431,2024-12-05 17h15.50.833231 +0100,
68,150,180,53,None,2,2,0,True,left,0.8846425740048289,None,,,,,,,,0,2,2,2,,,,,,,,,174.13651331499568,,,,,,,,,,,,,,,,,,,,,,,,,,,,,,,,,,,,,,174.12745101998735,174.13651331499568,175.137523005993,176.13663501199335,176.13663501199335,176.13663501199335,177.03852191199258,left,0.8846425740048289,None,,,,,,,,,,,,,,,,,,,,,,,,,,,,,,,,,,,,,,,,,,,111000,001,2024-12-05_17h14.01.585,Test,2024.2.1,60.24091558940431,2024-12-05 17h15.50.833231 +0100,
28,150,150,36,None,3,3,0,False,right,0.7071162150095915,None,,,,,,,,0,3,3,3,,,,,,,,,177.05274243999156,,,,,,,,,,,,,,,,,,,,,,,,,,,,,,,,,,,,,,177.04211042099632,177.05274243999156,178.0546337269916,179.03619341299054,179.03619341299054,179.03619341299054,179.75538552500075,right,0.7071162150095915,None,,,,,,,,,,,,,,,,,,,,,,,,,,,,,,,,,,,,,,,,,,,111000,001,2024-12-05_17h14.01.585,Test,2024.2.1,60.24091558940431,2024-12-05 17h15.50.833231 +0100,
54,150,90,19,None,4,4,0,True,left,0.9229864259978058,None,,,,,,,,0,4,4,4,,,,,,,,,179.77037899498828,,,,,,,,,,,,,,,,,,,,,,,,,,,,,,,,,,,,,,179.7610174579895,179.77037899498828,180.77037519498845,181.77062316299998,181.77062316299998,181.77062316299998,182.70500957599143,left,0.9229864259978058,None,,,,,,,,,,,,,,,,,,,,,,,,,,,,,,,,,,,,,,,,,,,111000,001,2024-12-05_17h14.01.585,Test,2024.2.1,60.24091558940431,2024-12-05 17h15.50.833231 +0100,
16,150,90,57,None,5,5,0,False,right,0.7781283549993532,None,,,,,,,,0,5,5,5,,,,,,,,,182.7205138829886,,,,,,,,,,,,,,,,,,,,,,,,,,,,,,,,,,,,,,182.7085622769955,182.7205138829886,183.72164685498865,184.72061386398855,184.72061386398855,184.72061386398855,185.50555833899125,right,0.7781283549993532,None,,,,,,,,,,,,,,,,,,,,,,,,,,,,,,,,,,,,,,,,,,,111000,001,2024-12-05_17h14.01.585,Test,2024.2.1,60.24091558940431,2024-12-05 17h15.50.833231 +0100,
22,150,120,30,None,6,6,0,False,right,2.3325420819892315,None,,,,,,,,0,6,6,6,,,,,,,,,185.5205334009952,,,,,,,,,,,,,,,,,,,,,,,,,,,,,,,,,,,,,,185.50904982299835,185.5205334009952,186.52097107098962,187.50549776699336,187.50549776699336,187.50549776699336,189.8404769419867,right,2.3325420819892315,None,,,,,,,,,,,,,,,,,,,,,,,,,,,,,,,,,,,,,,,,,,,111000,001,2024-12-05_17h14.01.585,Test,2024.2.1,60.24091558940431,2024-12-05 17h15.50.833231 +0100,
55,150,90,28,None,7,7,0,True,left,0.7710337300086394,None,,,,,,,,0,7,7,7,,,,,,,,,189.85502382898994,,,,,,,,,,,,,,,,,,,,,,,,,,,,,,,,,,,,,,189.8461097929976,189.85502382898994,190.8551754809887,191.85423546899983,191.85423546899983,191.85423546899983,192.6395762339962,left,0.7710337300086394,None,,,,,,,,,,,,,,,,,,,,,,,,,,,,,,,,,,,,,,,,,,,111000,001,2024-12-05_17h14.01.585,Test,2024.2.1,60.24091558940431,2024-12-05 17h15.50.833231 +0100,
67,150,180,60,None,8,8,0,True,left,1.077679876005277,None,,,,,,,,0,8,8,8,,,,,,,,,192.65531339499285,,,,,,,,,,,,,,,,,,,,,,,,,,,,,,,,,,,,,,192.6455392259959,192.65531339499285,193.6538414289971,194.6548962300003,194.6548962300003,194.6548962300003,195.73960544799047,left,1.077679876005277,None,,,,,,,,,,,,,,,,,,,,,,,,,,,,,,,,,,,,,,,,,,,111000,001,2024-12-05_17h14.01.585,Test,2024.2.1,60.24091558940431,2024-12-05 17h15.50.833231 +0100,
53,150,90,27,None,9,9,0,True,left,1.0797735109954374,None,,,,,,,,0,9,9,9,,,,,,,,,195.7546895259875,,,,,,,,,,,,,,,,,,,,,,,,,,,,,,,,,,,,,,195.74495580799703,195.7546895259875,196.7544153029885,197.75482036799076,197.75482036799076,197.75482036799076,198.84050544298952,left,1.0797735109954374,None,,,,,,,,,,,,,,,,,,,,,,,,,,,,,,,,,,,,,,,,,,,111000,001,2024-12-05_17h14.01.585,Test,2024.2.1,60.24091558940431,2024-12-05 17h15.50.833231 +0100,
63,150,150,64,None,10,10,0,True,left,1.2739736539951991,None,,,,,,,,0,10,10,10,,,,,,,,,198.85588854899106,,,,,,,,,,,,,,,,,,,,,,,,,,,,,,,,,,,,,,198.84725015998993,198.85588854899106,199.87192354298895,200.85509736799577,200.85509736799577,200.85509736799577,202.14034742399235,left,1.2739736539951991,None,,,,,,,,,,,,,,,,,,,,,,,,,,,,,,,,,,,,,,,,,,,111000,001,2024-12-05_17h14.01.585,Test,2024.2.1,60.24091558940431,2024-12-05 17h15.50.833231 +0100,
27,150,150,45,None,11,11,0,False,right,0.757786711998051,None,,,,,,,,0,11,11,11,,,,,,,,,202.15473343599297,,,,,,,,,,,,,,,,,,,,,,,,,,,,,,,,,,,,,,202.1442446489964,202.15473343599297,203.15482786099892,204.15534860899788,204.15534860899788,204.15534860899788,204.92312385900004,right,0.757786711998051,None,,,,,,,,,,,,,,,,,,,,,,,,,,,,,,,,,,,,,,,,,,,111000,001,2024-12-05_17h14.01.585,Test,2024.2.1,60.24091558940431,2024-12-05 17h15.50.833231 +0100,
25,150,120,33,None,12,12,0,False,left,0.8759958300070139,None,,,,,,,,0,12,12,12,,,,,,,,,204.93793371599168,,,,,,,,,,,,,,,,,,,,,,,,,,,,,,,,,,,,,,204.92751043300086,204.93793371599168,205.93796409700008,206.9218157469877,206.9218157469877,206.9218157469877,207.80692499798897,left,0.8759958300070139,None,,,,,,,,,,,,,,,,,,,,,,,,,,,,,,,,,,,,,,,,,,,111000,001,2024-12-05_17h14.01.585,Test,2024.2.1,60.24091558940431,2024-12-05 17h15.50.833231 +0100,
36,150,0,44,None,13,13,0,True,left,1.0692494819959393,None,,,,,,,,0,13,13,13,,,,,,,,,207.82266401099332,,,,,,,,,,,,,,,,,,,,,,,,,,,,,,,,,,,,,,207.81358102799277,207.82266401099332,208.82219892099965,209.82202807698923,209.82202807698923,209.82202807698923,210.90692204599327,left,1.0692494819959393,None,,,,,,,,,,,,,,,,,,,,,,,,,,,,,,,,,,,,,,,,,,,111000,001,2024-12-05_17h14.01.585,Test,2024.2.1,60.24091558940431,2024-12-05 17h15.50.833231 +0100,
61,150,150,26,None,14,14,0,True,left,0.818489483994199,None,,,,,,,,0,14,14,14,,,,,,,,,210.92157935099385,,,,,,,,,,,,,,,,,,,,,,,,,,,,,,,,,,,,,,210.91235400699952,210.92157935099385,211.9221498699917,212.9224239049945,212.9224239049945,212.9224239049945,213.7578358699975,left,0.818489483994199,None,,,,,,,,,,,,,,,,,,,,,,,,,,,,,,,,,,,,,,,,,,,111000,001,2024-12-05_17h14.01.585,Test,2024.2.1,60.24091558940431,2024-12-05 17h15.50.833231 +0100,
66,150,180,50,None,15,15,0,True,right,1.2579655119916424,None,,,,,,,,0,15,15,15,,,,,,,,,213.77359022499877,,,,,,,,,,,,,,,,,,,,,,,,,,,,,,,,,,,,,,213.76368929199816,213.77359022499877,214.78916191498865,215.77250650699716,215.77250650699716,215.77250650699716,217.04106796899578,right,1.2579655119916424,None,,,,,,,,,,,,,,,,,,,,,,,,,,,,,,,,,,,,,,,,,,,111000,001,2024-12-05_17h14.01.585,Test,2024.2.1,60.24091558940431,2024-12-05 17h15.50.833231 +0100,
11,150,60,6,None,16,16,0,False,right,1.2060881289944518,None,,,,,,,,0,16,16,16,,,,,,,,,217.0561848239886,,,,,,,,,,,,,,,,,,,,,,,,,,,,,,,,,,,,,,217.04449582299276,217.0561848239886,218.0561106009991,219.05585168099788,219.05585168099788,219.05585168099788,220.27441881599952,right,1.2060881289944518,None,,,,,,,,,,,,,,,,,,,,,,,,,,,,,,,,,,,,,,,,,,,111000,001,2024-12-05_17h14.01.585,Test,2024.2.1,60.24091558940431,2024-12-05 17h15.50.833231 +0100,
62,150,150,10,None,17,17,0,True,right,1.3229490049998276,None,,,,,,,,0,17,17,17,,,,,,,,,220.2896925189998,,,,,,,,,,,,,,,,,,,,,,,,,,,,,,,,,,,,,,220.2802073119965,220.2896925189998,221.28964607299713,222.28979211799742,222.28979211799742,222.28979211799742,223.6244954619906,right,1.3229490049998276,None,,,,,,,,,,,,,,,,,,,,,,,,,,,,,,,,,,,,,,,,,,,111000,001,2024-12-05_17h14.01.585,Test,2024.2.1,60.24091558940431,2024-12-05 17h15.50.833231 +0100,
7,150,30,58,None,18,18,0,False,left,1.4637599989946466,None,,,,,,,,0,18,18,18,,,,,,,,,223.63979345599364,,,,,,,,,,,,,,,,,,,,,,,,,,,,,,,,,,,,,,223.62800190399867,223.63979345599364,224.64078959298786,225.62354308199428,225.62354308199428,225.62354308199428,227.0924485489959,left,1.4637599989946466,None,,,,,,,,,,,,,,,,,,,,,,,,,,,,,,,,,,,,,,,,,,,111000,001,2024-12-05_17h14.01.585,Test,2024.2.1,60.24091558940431,2024-12-05 17h15.50.833231 +0100,
57,150,120,70,None,19,19,0,True,left,0.7216425649967277,None,,,,,,,,0,19,19,19,,,,,,,,,227.10702086699894,,,,,,,,,,,,,,,,,,,,,,,,,,,,,,,,,,,,,,227.09836377498868,227.10702086699894,228.10708188499848,229.10701147498912,229.10701147498912,229.10701147498912,229.8417656399979,left,0.7216425649967277,None,,,,,,,,,,,,,,,,,,,,,,,,,,,,,,,,,,,,,,,,,,,111000,001,2024-12-05_17h14.01.585,Test,2024.2.1,60.24091558940431,2024-12-05 17h15.50.833231 +0100,
20,150,90,32,None,20,20,0,False,right,1.7153687670070212,None,,,,,,,,0,20,20,20,,,,,,,,,229.85717298899544,,,,,,,,,,,,,,,,,,,,,,,,,,,,,,,,,,,,,,229.8453203869867,229.85717298899544,230.85737095699005,231.85764573198685,231.85764573198685,231.85764573198685,233.5801572349883,right,1.7153687670070212,None,,,,,,,,,,,,,,,,,,,,,,,,,,,,,,,,,,,,,,,,,,,111000,001,2024-12-05_17h14.01.585,Test,2024.2.1,60.24091558940431,2024-12-05 17h15.50.833231 +0100,
64,150,150,18,None,21,21,0,True,left,1.7405844690074446,None,,,,,,,,0,21,21,21,,,,,,,,,233.59695801199996,,,,,,,,,,,,,,,,,,,,,,,,,,,,,,,,,,,,,,233.58904540599906,233.59695801199996,234.60801111099136,235.5914074829925,235.5914074829925,235.5914074829925,237.34257476498897,left,1.7405844690074446,None,,,,,,,,,,,,,,,,,,,,,,,,,,,,,,,,,,,,,,,,,,,111000,001,2024-12-05_17h14.01.585,Test,2024.2.1,60.24091558940431,2024-12-05 17h15.50.833231 +0100,
39,150,0,4,None,22,22,0,True,right,0.7400102119863732,None,,,,,,,,0,22,22,22,,,,,,,,,237.35724440199556,,,,,,,,,,,,,,,,,,,,,,,,,,,,,,,,,,,,,,237.34803574199032,237.35724440199556,238.35836849399493,239.35757301098784,239.35757301098784,239.35757301098784,240.10871575599595,right,0.7400102119863732,None,,,,,,,,,,,,,,,,,,,,,,,,,,,,,,,,,,,,,,,,,,,111000,001,2024-12-05_17h14.01.585,Test,2024.2.1,60.24091558940431,2024-12-05 17h15.50.833231 +0100,
5,150,0,5,None,23,23,0,False,right,0.6076245639997069,None,,,,,,,,0,23,23,23,,,,,,,,,240.1241720909893,,,,,,,,,,,,,,,,,,,,,,,,,,,,,,,,,,,,,,240.11208204799914,240.1241720909893,241.1244432359963,242.12731064899708,242.12731064899708,242.12731064899708,242.74230427299335,right,0.6076245639997069,None,,,,,,,,,,,,,,,,,,,,,,,,,,,,,,,,,,,,,,,,,,,111000,001,2024-12-05_17h14.01.585,Test,2024.2.1,60.24091558940431,2024-12-05 17h15.50.833231 +0100,
43,150,30,65,None,24,24,0,True,left,1.6733840640081326,None,,,,,,,,0,24,24,24,,,,,,,,,242.75804432699806,,,,,,,,,,,,,,,,,,,,,,,,,,,,,,,,,,,,,,242.74780695099616,242.75804432699806,243.759039837998,244.75779744199826,244.75779744199826,244.75779744199826,246.4424186799879,left,1.6733840640081326,None,,,,,,,,,,,,,,,,,,,,,,,,,,,,,,,,,,,,,,,,,,,111000,001,2024-12-05_17h14.01.585,Test,2024.2.1,60.24091558940431,2024-12-05 17h15.50.833231 +0100,
48,150,60,25,None,25,25,0,True,right,0.9533929669996724,None,,,,,,,,0,25,25,25,,,,,,,,,246.45771373799653,,,,,,,,,,,,,,,,,,,,,,,,,,,,,,,,,,,,,,246.4475030439935,246.45771373799653,247.4587105549872,248.4427719469968,248.4427719469968,248.4427719469968,249.41043907299172,right,0.9533929669996724,None,,,,,,,,,,,,,,,,,,,,,,,,,,,,,,,,,,,,,,,,,,,111000,001,2024-12-05_17h14.01.585,Test,2024.2.1,60.24091558940431,2024-12-05 17h15.50.833231 +0100,
31,150,180,67,None,26,26,0,False,left,1.4967325729958247,None,,,,,,,,0,26,26,26,,,,,,,,,249.42530618999444,,,,,,,,,,,,,,,,,,,,,,,,,,,,,,,,,,,,,,249.41471900198667,249.42530618999444,250.42557128499902,251.42563369798881,251.42563369798881,251.42563369798881,252.9276015409996,left,1.4967325729958247,None,,,,,,,,,,,,,,,,,,,,,,,,,,,,,,,,,,,,,,,,,,,111000,001,2024-12-05_17h14.01.585,Test,2024.2.1,60.24091558940431,2024-12-05 17h15.50.833231 +0100,
13,150,60,2,None,27,27,0,False,left,10.553456341003766,None,,,,,,,,0,27,27,27,,,,,,,,,252.9424684179976,,,,,,,,,,,,,,,,,,,,,,,,,,,,,,,,,,,,,,252.93222356800106,252.9424684179976,253.94200643598742,254.94247666299634,254.94247666299634,254.94247666299634,265.51081901,left,10.553456341003766,None,257.94254786599777,257.94254786599777,257.94254786599777,,,,,,,,,,,,,,,,,,,,,,,,,,,,,,,,,,,,,,,,111000,001,2024-12-05_17h14.01.585,Test,2024.2.1,60.24091558940431,2024-12-05 17h15.50.833231 +0100,
18,150,90,66,None,28,28,0,False,right,0.9073684350005351,None,,,,,,,,0,28,28,28,,,,,,,,,265.5259087949962,,,,,,,,,,,,,,,,,,,,,,,,,,,,,,,,,,,,,,265.51431317698734,265.5259087949962,266.5260854669905,267.5107276799972,267.5107276799972,267.5107276799972,268.4280817819963,right,0.9073684350005351,None,,,,,,,,,,,,,,,,,,,,,,,,,,,,,,,,,,,,,,,,,,,111000,001,2024-12-05_17h14.01.585,Test,2024.2.1,60.24091558940431,2024-12-05 17h15.50.833231 +0100,
50,150,60,61,None,29,29,0,True,left,1.591191848012386,None,,,,,,,,0,29,29,29,,,,,,,,,268.44285058698733,,,,,,,,,,,,,,,,,,,,,,,,,,,,,,,,,,,,,,268.4338221849903,268.44285058698733,269.4441054149938,270.44330678098777,270.44330678098777,270.44330678098777,272.04437073599547,left,1.591191848012386,None,,,,,,,,,,,,,,,,,,,,,,,,,,,,,,,,,,,,,,,,,,,111000,001,2024-12-05_17h14.01.585,Test,2024.2.1,60.24091558940431,2024-12-05 17h15.50.833231 +0100,
4,150,0,56,None,30,30,0,False,right,0.5757591379951918,None,,,,,,,,0,30,30,30,,,,,,,,,272.06031995599915,,,,,,,,,,,,,,,,,,,,,,,,,,,,,,,,,,,,,,272.0478365539893,272.06031995599915,273.0599581879942,274.0442179859965,274.0442179859965,274.0442179859965,274.6279682729946,right,0.5757591379951918,None,,,,,,,,,,,,,,,,,,,,,,,,,,,,,,,,,,,,,,,,,,,111000,001,2024-12-05_17h14.01.585,Test,2024.2.1,60.24091558940431,2024-12-05 17h15.50.833231 +0100,
12,150,60,22,None,31,31,0,False,left,0.704726194991963,None,,,,,,,,0,31,31,31,,,,,,,,,274.64387161898776,,,,,,,,,,,,,,,,,,,,,,,,,,,,,,,,,,,,,,274.6314936919953,274.64387161898776,275.64446423099434,276.644065237997,276.644065237997,276.644065237997,277.3623234209954,left,0.704726194991963,None,,,,,,,,,,,,,,,,,,,,,,,,,,,,,,,,,,,,,,,,,,,111000,001,2024-12-05_17h14.01.585,Test,2024.2.1,60.24091558940431,2024-12-05 17h15.50.833231 +0100,
9,150,30,16,None,32,32,0,False,left,0.7915167370083509,None,,,,,,,,0,32,32,32,,,,,,,,,277.37721429098747,,,,,,,,,,,,,,,,,,,,,,,,,,,,,,,,,,,,,,277.36570561199915,277.37721429098747,278.37744489699253,279.37790860098903,279.37790860098903,279.37790860098903,280.1812393559958,left,0.7915167370083509,None,,,,,,,,,,,,,,,,,,,,,,,,,,,,,,,,,,,,,,,,,,,111000,001,2024-12-05_17h14.01.585,Test,2024.2.1,60.24091558940431,2024-12-05 17h15.50.833231 +0100,
19,150,90,3,None,33,33,0,False,right,1.4076127979933517,None,,,,,,,,0,33,33,33,,,,,,,,,280.19705453499046,,,,,,,,,,,,,,,,,,,,,,,,,,,,,,,,,,,,,,280.18764548499894,280.19705453499046,281.21137302499847,282.19403030000103,282.19403030000103,282.19403030000103,283.61201551799604,right,1.4076127979933517,None,,,,,,,,,,,,,,,,,,,,,,,,,,,,,,,,,,,,,,,,,,,111000,001,2024-12-05_17h14.01.585,Test,2024.2.1,60.24091558940431,2024-12-05 17h15.50.833231 +0100,
6,150,30,38,None,34,34,0,False,left,0.8177948800002923,None,,,,,,,,0,34,34,34,,,,,,,,,283.62685294399853,,,,,,,,,,,,,,,,,,,,,,,,,,,,,,,,,,,,,,283.61621825399925,283.62685294399853,284.62739003798924,285.6276460499939,285.6276460499939,285.6276460499939,286.46187140699476,left,0.8177948800002923,None,,,,,,,,,,,,,,,,,,,,,,,,,,,,,,,,,,,,,,,,,,,111000,001,2024-12-05_17h14.01.585,Test,2024.2.1,60.24091558940431,2024-12-05 17h15.50.833231 +0100,
8,150,30,23,None,35,35,0,False,left,1.5268504510022467,None,,,,,,,,0,35,35,35,,,,,,,,,286.47802599699935,,,,,,,,,,,,,,,,,,,,,,,,,,,,,,,,,,,,,,286.4657780939888,286.47802599699935,287.4780348669883,288.4776441099966,288.4776441099966,288.4776441099966,290.0146966629982,left,1.5268504510022467,None,,,,,,,,,,,,,,,,,,,,,,,,,,,,,,,,,,,,,,,,,,,111000,001,2024-12-05_17h14.01.585,Test,2024.2.1,60.24091558940431,2024-12-05 17h15.50.833231 +0100,
21,150,120,24,None,36,36,0,False,left,0.8835475200030487,None,,,,,,,,0,36,36,36,,,,,,,,,290.02783767499204,,,,,,,,,,,,,,,,,,,,,,,,,,,,,,,,,,,,,,290.01858583599096,290.02783767499204,291.02874027699,292.0291512679978,292.0291512679978,292.0291512679978,292.9176516969892,left,0.8835475200030487,None,,,,,,,,,,,,,,,,,,,,,,,,,,,,,,,,,,,,,,,,,,,111000,001,2024-12-05_17h14.01.585,Test,2024.2.1,60.24091558940431,2024-12-05 17h15.50.833231 +0100,
33,150,180,1,None,37,37,0,False,left,0.9938084470049944,None,,,,,,,,0,37,37,37,,,,,,,,,292.9333983279939,,,,,,,,,,,,,,,,,,,,,,,,,,,,,,,,,,,,,,292.9237059989973,292.9333983279939,293.94555025099544,294.92904472399096,294.92904472399096,294.92904472399096,295.9298784989951,left,0.9938084470049944,None,,,,,,,,,,,,,,,,,,,,,,,,,,,,,,,,,,,,,,,,,,,111000,001,2024-12-05_17h14.01.585,Test,2024.2.1,60.24091558940431,2024-12-05 17h15.50.833231 +0100,
56,150,120,9,None,38,38,0,True,left,1.3012945730006322,None,,,,,,,,0,38,38,38,,,,,,,,,295.94488162899506,,,,,,,,,,,,,,,,,,,,,,,,,,,,,,,,,,,,,,295.9360745539889,295.94488162899506,296.94491669599665,297.9451416709926,297.9451416709926,297.9451416709926,299.26365540998813,left,1.3012945730006322,None,,,,,,,,,,,,,,,,,,,,,,,,,,,,,,,,,,,,,,,,,,,111000,001,2024-12-05_17h14.01.585,Test,2024.2.1,60.24091558940431,2024-12-05 17h15.50.833231 +0100,
37,150,0,35,None,39,39,0,True,left,1.480706279995502,None,,,,,,,,0,39,39,39,,,,,,,,,299.27828618900094,,,,,,,,,,,,,,,,,,,,,,,,,,,,,,,,,,,,,,299.2692216899886,299.27828618900094,300.27874274099304,301.2631495599926,301.2631495599926,301.2631495599926,302.7481827199954,left,1.480706279995502,None,,,,,,,,,,,,,,,,,,,,,,,,,,,,,,,,,,,,,,,,,,,111000,001,2024-12-05_17h14.01.585,Test,2024.2.1,60.24091558940431,2024-12-05 17h15.50.833231 +0100,
1,150,0,12,None,40,40,0,False,left,1.918086053992738,None,,,,,,,,0,40,40,40,,,,,,,,,302.76204465799674,,,,,,,,,,,,,,,,,,,,,,,,,,,,,,,,,,,,,,302.7527107319911,302.76204465799674,303.76326458099356,304.76234443498834,304.76234443498834,304.76234443498834,306.6842692709906,left,1.918086053992738,None,,,,,,,,,,,,,,,,,,,,,,,,,,,,,,,,,,,,,,,,,,,111000,001,2024-12-05_17h14.01.585,Test,2024.2.1,60.24091558940431,2024-12-05 17h15.50.833231 +0100,
14,150,60,37,None,41,41,0,False,left,0.8304764549975516,None,,,,,,,,0,41,41,41,,,,,,,,,306.696433730991,,,,,,,,,,,,,,,,,,,,,,,,,,,,,,,,,,,,,,306.6880851629976,306.696433730991,307.69704783399357,308.6967427179916,308.6967427179916,308.6967427179916,309.5312773170008,left,0.8304764549975516,None,,,,,,,,,,,,,,,,,,,,,,,,,,,,,,,,,,,,,,,,,,,111000,001,2024-12-05_17h14.01.585,Test,2024.2.1,60.24091558940431,2024-12-05 17h15.50.833231 +0100,
58,150,120,14,None,42,42,0,True,left,1.9858889979950618,None,,,,,,,,0,42,42,42,,,,,,,,,309.54693590798706,,,,,,,,,,,,,,,,,,,,,,,,,,,,,,,,,,,,,,309.53846474298916,309.54693590798706,310.5467796659941,311.54639103799127,311.54639103799127,311.54639103799127,313.5479834359867,left,1.9858889979950618,None,,,,,,,,,,,,,,,,,,,,,,,,,,,,,,,,,,,,,,,,,,,111000,001,2024-12-05_17h14.01.585,Test,2024.2.1,60.24091558940431,2024-12-05 17h15.50.833231 +0100,
26,150,150,46,None,43,43,0,False,left,1.0570986660022754,None,,,,,,,,0,43,43,43,,,,,,,,,313.5630964819866,,,,,,,,,,,,,,,,,,,,,,,,,,,,,,,,,,,,,,313.55225833298755,313.5630964819866,314.56317351599864,315.5640073129907,315.5640073129907,315.5640073129907,316.6306747579947,left,1.0570986660022754,None,,,,,,,,,,,,,,,,,,,,,,,,,,,,,,,,,,,,,,,,,,,111000,001,2024-12-05_17h14.01.585,Test,2024.2.1,60.24091558940431,2024-12-05 17h15.50.833231 +0100,
2,150,0,7,None,44,44,0,False,left,1.3384550350019708,None,,,,,,,,0,44,44,44,,,,,,,,,316.64602607898996,,,,,,,,,,,,,,,,,,,,,,,,,,,,,,,,,,,,,,316.6340905939869,316.64602607898996,317.64706239898806,318.64635731499584,318.64635731499584,318.64635731499584,319.99874269298743,left,1.3384550350019708,None,,,,,,,,,,,,,,,,,,,,,,,,,,,,,,,,,,,,,,,,,,,111000,001,2024-12-05_17h14.01.585,Test,2024.2.1,60.24091558940431,2024-12-05 17h15.50.833231 +0100,
59,150,120,62,None,45,45,0,True,left,0.8636025890009478,None,,,,,,,,0,45,45,45,,,,,,,,,320.01525939699786,,,,,,,,,,,,,,,,,,,,,,,,,,,,,,,,,,,,,,320.0063807419938,320.01525939699786,321.0307020009932,322.0137994999968,322.0137994999968,322.0137994999968,322.88239807299396,left,0.8636025890009478,None,,,,,,,,,,,,,,,,,,,,,,,,,,,,,,,,,,,,,,,,,,,111000,001,2024-12-05_17h14.01.585,Test,2024.2.1,60.24091558940431,2024-12-05 17h15.50.833231 +0100,
52,150,90,20,None,46,46,0,True,left,1.2003865239967126,None,,,,,,,,0,46,46,46,,,,,,,,,322.89917923198664,,,,,,,,,,,,,,,,,,,,,,,,,,,,,,,,,,,,,,322.89006010399316,322.89917923198664,323.9138355299947,324.8979748649872,324.8979748649872,324.8979748649872,326.115507547991,left,1.2003865239967126,None,,,,,,,,,,,,,,,,,,,,,,,,,,,,,,,,,,,,,,,,,,,111000,001,2024-12-05_17h14.01.585,Test,2024.2.1,60.24091558940431,2024-12-05 17h15.50.833231 +0100,
24,150,120,42,None,47,47,0,False,left,0.7346665799996117,None,,,,,,,,0,47,47,47,,,,,,,,,326.12992019800004,,,,,,,,,,,,,,,,,,,,,,,,,,,,,,,,,,,,,,326.1189249979943,326.12992019800004,327.1311067200004,328.13043496799946,328.13043496799946,328.13043496799946,328.88210139899456,left,0.7346665799996117,None,,,,,,,,,,,,,,,,,,,,,,,,,,,,,,,,,,,,,,,,,,,111000,001,2024-12-05_17h14.01.585,Test,2024.2.1,60.24091558940431,2024-12-05 17h15.50.833231 +0100,
17,150,90,43,None,48,48,0,False,right,0.9006182129960507,None,,,,,,,,0,48,48,48,,,,,,,,,328.8972939529922,,,,,,,,,,,,,,,,,,,,,,,,,,,,,,,,,,,,,,328.8855413949932,328.8972939529922,329.8975705389894,330.88158821199613,330.88158821199613,330.88158821199613,331.79874901799485,right,0.9006182129960507,None,,,,,,,,,,,,,,,,,,,,,,,,,,,,,,,,,,,,,,,,,,,111000,001,2024-12-05_17h14.01.585,Test,2024.2.1,60.24091558940431,2024-12-05 17h15.50.833231 +0100,
38,150,0,63,None,49,49,0,True,left,1.4637334869912593,None,,,,,,,,0,49,49,49,,,,,,,,,331.8141002969933,,,,,,,,,,,,,,,,,,,,,,,,,,,,,,,,,,,,,,331.8040379249869,331.8141002969933,332.8150037089945,333.8146612599958,333.8146612599958,333.8146612599958,335.2831522310007,left,1.4637334869912593,None,,,,,,,,,,,,,,,,,,,,,,,,,,,,,,,,,,,,,,,,,,,111000,001,2024-12-05_17h14.01.585,Test,2024.2.1,60.24091558940431,2024-12-05 17h15.50.833231 +0100,
10,150,30,68,None,50,50,0,False,left,2.1244197850028286,None,,,,,,,,0,50,50,50,,,,,,,,,335.2972258230002,,,,,,,,,,,,,,,,,,,,,,,,,,,,,,,,,,,,,,335.28662273299415,335.2972258230002,336.298514419992,337.2982764069893,337.2982764069893,337.2982764069893,339.4343909649906,left,2.1244197850028286,None,,,,,,,,,,,,,,,,,,,,,,,,,,,,,,,,,,,,,,,,,,,111000,001,2024-12-05_17h14.01.585,Test,2024.2.1,60.24091558940431,2024-12-05 17h15.50.833231 +0100,
45,150,30,8,None,51,51,0,True,left,0.8668616220093099,None,,,,,,,,0,51,51,51,,,,,,,,,339.451393809999,,,,,,,,,,,,,,,,,,,,,,,,,,,,,,,,,,,,,,339.4422491000005,339.451393809999,340.4651170329889,341.44819151099364,341.44819151099364,341.44819151099364,342.31746267298877,left,0.8668616220093099,None,,,,,,,,,,,,,,,,,,,,,,,,,,,,,,,,,,,,,,,,,,,111000,001,2024-12-05_17h14.01.585,Test,2024.2.1,60.24091558940431,2024-12-05 17h15.50.833231 +0100,
46,150,60,48,None,52,52,0,True,left,0.8840156000078423,None,,,,,,,,0,52,52,52,,,,,,,,,342.33240733799175,,,,,,,,,,,,,,,,,,,,,,,,,,,,,,,,,,,,,,342.32316164499207,342.33240733799175,343.33142939099343,344.33186471099907,344.33186471099907,344.33186471099907,345.23266161599895,left,0.8840156000078423,None,,,,,,,,,,,,,,,,,,,,,,,,,,,,,,,,,,,,,,,,,,,111000,001,2024-12-05_17h14.01.585,Test,2024.2.1,60.24091558940431,2024-12-05 17h15.50.833231 +0100,
47,150,60,69,None,53,53,0,True,right,1.0245408170012524,None,,,,,,,,0,53,53,53,,,,,,,,,345.2485770659987,,,,,,,,,,,,,,,,,,,,,,,,,,,,,,,,,,,,,,345.23875293099263,345.2485770659987,346.2491802729928,347.23300338498666,347.23300338498666,347.23300338498666,348.26609053499124,right,1.0245408170012524,None,,,,,,,,,,,,,,,,,,,,,,,,,,,,,,,,,,,,,,,,,,,111000,001,2024-12-05_17h14.01.585,Test,2024.2.1,60.24091558940431,2024-12-05 17h15.50.833231 +0100,
34,150,180,34,None,54,54,0,False,right,1.1277110500086565,None,,,,,,,,0,54,54,54,,,,,,,,,348.2820713779947,,,,,,,,,,,,,,,,,,,,,,,,,,,,,,,,,,,,,,348.27166842999577,348.2820713779947,349.28336047199264,350.2657713469962,350.2657713469962,350.2657713469962,351.4029615009931,right,1.1277110500086565,None,,,,,,,,,,,,,,,,,,,,,,,,,,,,,,,,,,,,,,,,,,,111000,001,2024-12-05_17h14.01.585,Test,2024.2.1,60.24091558940431,2024-12-05 17h15.50.833231 +0100,
41,150,30,21,None,55,55,0,True,left,0.787495120006497,None,,,,,,,,0,55,55,55,,,,,,,,,351.4205119309918,,,,,,,,,,,,,,,,,,,,,,,,,,,,,,,,,,,,,,351.41278437699657,351.4205119309918,352.43208936699375,353.41619709299994,353.41619709299994,353.41619709299994,354.21730232999835,left,0.787495120006497,None,,,,,,,,,,,,,,,,,,,,,,,,,,,,,,,,,,,,,,,,,,,111000,001,2024-12-05_17h14.01.585,Test,2024.2.1,60.24091558940431,2024-12-05 17h15.50.833231 +0100,
51,150,90,59,None,56,56,0,True,left,0.8349722259881673,None,,,,,,,,0,56,56,56,,,,,,,,,354.2325258799974,,,,,,,,,,,,,,,,,,,,,,,,,,,,,,,,,,,,,,354.22340317899943,354.2325258799974,355.2328808299935,356.2323238969984,356.2323238969984,356.2323238969984,357.08415763798985,left,0.8349722259881673,None,,,,,,,,,,,,,,,,,,,,,,,,,,,,,,,,,,,,,,,,,,,111000,001,2024-12-05_17h14.01.585,Test,2024.2.1,60.24091558940431,2024-12-05 17h15.50.833231 +0100,
65,150,150,55,None,57,57,0,True,left,0.6925015169981634,None,,,,,,,,0,57,57,57,,,,,,,,,357.0991873629973,,,,,,,,,,,,,,,,,,,,,,,,,,,,,,,,,,,,,,357.09004414798983,357.0991873629973,358.09915197799273,359.09884407899517,359.09884407899517,359.09884407899517,359.80279665999115,left,0.6925015169981634,None,,,,,,,,,,,,,,,,,,,,,,,,,,,,,,,,,,,,,,,,,,,111000,001,2024-12-05_17h14.01.585,Test,2024.2.1,60.24091558940431,2024-12-05 17h15.50.833231 +0100,
30,150,150,11,None,58,58,0,False,left,1.6833644080033991,None,,,,,,,,0,58,58,58,,,,,,,,,359.8161171299871,,,,,,,,,,,,,,,,,,,,,,,,,,,,,,,,,,,,,,359.80720293999184,359.8161171299871,360.81681370799197,361.8161672799906,361.8161672799906,361.8161672799906,363.50213807799446,left,1.6833644080033991,None,,,,,,,,,,,,,,,,,,,,,,,,,,,,,,,,,,,,,,,,,,,111000,001,2024-12-05_17h14.01.585,Test,2024.2.1,60.24091558940431,2024-12-05 17h15.50.833231 +0100,
35,150,180,31,None,59,59,0,False,right,1.39139219300705,None,,,,,,,,0,59,59,59,,,,,,,,,363.51624465298664,,,,,,,,,,,,,,,,,,,,,,,,,,,,,,,,,,,,,,363.5067177989986,363.51624465298664,364.51612833800027,365.5177629249956,365.5177629249956,365.5177629249956,366.9176503560011,right,1.39139219300705,None,,,,,,,,,,,,,,,,,,,,,,,,,,,,,,,,,,,,,,,,,,,111000,001,2024-12-05_17h14.01.585,Test,2024.2.1,60.24091558940431,2024-12-05 17h15.50.833231 +0100,
60,150,120,17,None,60,60,0,True,left,0.784338375000516,None,,,,,,,,0,60,60,60,,,,,,,,,366.9342868419917,,,,,,,,,,,,,,,,,,,,,,,,,,,,,,,,,,,,,,366.9249334060005,366.9342868419917,367.9500524489995,368.9333351059904,368.9333351059904,368.9333351059904,369.73542137899494,left,0.784338375000516,None,,,,,,,,,,,,,,,,,,,,,,,,,,,,,,,,,,,,,,,,,,,111000,001,2024-12-05_17h14.01.585,Test,2024.2.1,60.24091558940431,2024-12-05 17h15.50.833231 +0100,
44,150,30,40,None,61,61,0,True,left,1.427348579003592,None,,,,,,,,0,61,61,61,,,,,,,,,369.7507517810009,,,,,,,,,,,,,,,,,,,,,,,,,,,,,,,,,,,,,,369.7411859119893,369.7507517810009,370.75016524500097,371.7501940989896,371.7501940989896,371.7501940989896,373.18524982300005,left,1.427348579003592,None,,,,,,,,,,,,,,,,,,,,,,,,,,,,,,,,,,,,,,,,,,,111000,001,2024-12-05_17h14.01.585,Test,2024.2.1,60.24091558940431,2024-12-05 17h15.50.833231 +0100,
32,150,180,39,None,62,62,0,False,left,0.9616506550082704,None,,,,,,,,0,62,62,62,,,,,,,,,373.1999146689923,,,,,,,,,,,,,,,,,,,,,,,,,,,,,,,,,,,,,,373.189816588987,373.1999146689923,374.1996340069891,375.2001519669866,375.2001519669866,375.2001519669866,376.16877488899627,left,0.9616506550082704,None,,,,,,,,,,,,,,,,,,,,,,,,,,,,,,,,,,,,,,,,,,,111000,001,2024-12-05_17h14.01.585,Test,2024.2.1,60.24091558940431,2024-12-05 17h15.50.833231 +0100,
29,150,150,54,None,63,63,0,False,left,1.689031600006274,None,,,,,,,,0,63,63,63,,,,,,,,,376.18366001299,,,,,,,,,,,,,,,,,,,,,,,,,,,,,,,,,,,,,,376.17223381999065,376.18366001299,377.18363432098704,378.1838703409885,378.1838703409885,378.1838703409885,379.8865809859999,left,1.689031600006274,None,,,,,,,,,,,,,,,,,,,,,,,,,,,,,,,,,,,,,,,,,,,111000,001,2024-12-05_17h14.01.585,Test,2024.2.1,60.24091558940431,2024-12-05 17h15.50.833231 +0100,
40,150,0,47,None,64,64,0,True,left,2.3677881019975757,None,,,,,,,,0,64,64,64,,,,,,,,,379.9022309809952,,,,,,,,,,,,,,,,,,,,,,,,,,,,,,,,,,,,,,379.8926225479954,379.9022309809952,380.9179795609962,381.9003402579983,381.9003402579983,381.9003402579983,384.27089794499625,left,2.3677881019975757,None,,,,,,,,,,,,,,,,,,,,,,,,,,,,,,,,,,,,,,,,,,,111000,001,2024-12-05_17h14.01.585,Test,2024.2.1,60.24091558940431,2024-12-05 17h15.50.833231 +0100,
69,150,180,52,None,65,65,0,True,right,1.0421049970027525,None,,,,,,,,0,65,65,65,,,,,,,,,384.2849024129973,,,,,,,,,,,,,,,,,,,,,,,,,,,,,,,,,,,,,,384.2763671219873,384.2849024129973,385.3010610229976,386.28551307998714,386.28551307998714,386.28551307998714,387.33570654600044,right,1.0421049970027525,None,,,,,,,,,,,,,,,,,,,,,,,,,,,,,,,,,,,,,,,,,,,111000,001,2024-12-05_17h14.01.585,Test,2024.2.1,60.24091558940431,2024-12-05 17h15.50.833231 +0100,
15,150,60,51,None,66,66,0,False,right,0.9389440329978243,None,,,,,,,,0,66,66,66,,,,,,,,,387.35124529698805,,,,,,,,,,,,,,,,,,,,,,,,,,,,,,,,,,,,,,387.3391549069929,387.35124529698805,388.3517264569964,389.33543241200096,389.33543241200096,389.33543241200096,390.2864178299933,right,0.9389440329978243,None,,,,,,,,,,,,,,,,,,,,,,,,,,,,,,,,,,,,,,,,,,,111000,001,2024-12-05_17h14.01.585,Test,2024.2.1,60.24091558940431,2024-12-05 17h15.50.833231 +0100,
49,150,60,49,None,67,67,0,True,left,1.6906737159879413,None,,,,,,,,0,67,67,67,,,,,,,,,390.30103821599914,,,,,,,,,,,,,,,,,,,,,,,,,,,,,,,,,,,,,,390.292012676,390.30103821599914,391.30219496699283,392.30209441999614,392.30209441999614,392.30209441999614,394.00362778299314,left,1.6906737159879413,None,,,,,,,,,,,,,,,,,,,,,,,,,,,,,,,,,,,,,,,,,,,111000,001,2024-12-05_17h14.01.585,Test,2024.2.1,60.24091558940431,2024-12-05 17h15.50.833231 +0100,
70,150,180,15,None,68,68,0,True,left,1.4298160760081373,None,,,,,,,,0,68,68,68,,,,,,,,,394.01848030999827,,,,,,,,,,,,,,,,,,,,,,,,,,,,,,,,,,,,,,394.0093443299993,394.01848030999827,395.01874908099126,396.00277364499925,396.00277364499925,396.00277364499925,397.4373603109998,left,1.4298160760081373,None,,,,,,,,,,,,,,,,,,,,,,,,,,,,,,,,,,,,,,,,,,,111000,001,2024-12-05_17h14.01.585,Test,2024.2.1,60.24091558940431,2024-12-05 17h15.50.833231 +0100,
3,150,0,13,None,69,69,0,False,left,1.3098306320025586,None,,,,,,,,0,69,69,69,,,,,,,,,397.4518494459917,,,,,,,,,,,,,,,,,,,,,,,,,,,,,,,,,,,,,,397.4407310849929,397.4518494459917,398.4528678929928,399.452218542996,399.452218542996,399.452218542996,400.7708174859872,left,1.3098306320025586,None,,,,,,,,,,,,,,,,,,,,,,,,,,,,,,,,,,,,,,,,,,,111000,001,2024-12-05_17h14.01.585,Test,2024.2.1,60.24091558940431,2024-12-05 17h15.50.833231 +0100,
,,,,,,,,,,,,,,,,,,,,,,,,,,,,,,,,,,,,,,,,,,,,,,,,,,,,,,,,,,,,,,,,,,,,,,,,,,,,,,,,,,400.77103057398926,400.78549635599484,400.78549635599484,404.27036044499255,space,3.473393178996048,None,,,,,,,,,,,,,,,,,,,,,,,,,,,,,,,,,111000,001,2024-12-05_17h14.01.585,Test,2024.2.1,60.24091558940431,2024-12-05 17h15.50.833231 +0100,
16,150,90,57,None,0,0,0,,,,,,,,,,,,,,,,0,0,0,15,,,,,404.29371182199975,,,,,,,,,,,,,,,,,,,,,,,,,,,,,,,,,,,,,,,,,,,,,,,,,,,,,,,,,,404.28501361698727,404.29371182199975,404.48627982399194,404.48627982399194,404.5021754059999,406.1855176789977,406.1855176789977,406.16978181999,,,,,,,,,,,,,,,,,,,,,,,,,111000,001,2024-12-05_17h14.01.585,Test,2024.2.1,60.24091558940431,2024-12-05 17h15.50.833231 +0100,
15,150,60,51,None,1,1,0,,,,,,,,,,,,,,,,0,1,1,14,,,,,406.1855176789977,,,,,,,,,,,,,,,,,,,,,,,,,,,,,,,,,,,,,,,,,,,,,,,,,,,,,,,,,,406.1760728329973,406.1855176789977,406.3702078380011,406.3702078380011,406.3868712229887,408.0724644539878,408.0724644539878,408.0545692569867,,,,,,,,,,,,,,,,,,,,,,,,,111000,001,2024-12-05_17h14.01.585,Test,2024.2.1,60.24091558940431,2024-12-05 17h15.50.833231 +0100,
1,150,0,12,None,2,2,0,,,,,,,,,,,,,,,,0,2,2,0,,,,,408.0724644539878,,,,,,,,,,,,,,,,,,,,,,,,,,,,,,,,,,,,,,,,,,,,,,,,,,,,,,,,,,408.064159024987,408.0724644539878,408.2701372129959,408.2701372129959,408.2868824039906,409.9688718299876,409.9688718299876,409.9539243429899,,,,,,,,,,,,,,,,,,,,,,,,,111000,001,2024-12-05_17h14.01.585,Test,2024.2.1,60.24091558940431,2024-12-05 17h15.50.833231 +0100,
21,150,120,24,None,3,3,0,,,,,,,,,,,,,,,,0,3,3,20,,,,,409.9688718299876,,,,,,,,,,,,,,,,,,,,,,,,,,,,,,,,,,,,,,,,,,,,,,,,,,,,,,,,,,409.95989920299326,409.9688718299876,410.16938536999805,410.16938536999805,410.16938536999805,411.8701275779895,411.8701275779895,411.85366741499456,,,,,,,,,,,,,,,,,,,,,,,,,111000,001,2024-12-05_17h14.01.585,Test,2024.2.1,60.24091558940431,2024-12-05 17h15.50.833231 +0100,
10,150,30,68,None,4,4,0,,,,,,,,,,,,,,,,0,4,4,9,,,,,411.8701275779895,,,,,,,,,,,,,,,,,,,,,,,,,,,,,,,,,,,,,,,,,,,,,,,,,,,,,,,,,,411.86126406199764,411.8701275779895,412.06994927198684,412.06994927198684,412.06994927198684,413.7691609399917,413.7691609399917,413.7536557579879,,,,,,,,,,,,,,,,,,,,,,,,,111000,001,2024-12-05_17h14.01.585,Test,2024.2.1,60.24091558940431,2024-12-05 17h15.50.833231 +0100,
11,150,60,6,None,5,5,0,,,,,,,,,,,,,,,,0,5,5,10,,,,,413.7691609399917,,,,,,,,,,,,,,,,,,,,,,,,,,,,,,,,,,,,,,,,,,,,,,,,,,,,,,,,,,413.759482458001,413.7691609399917,413.97021313499135,413.97021313499135,413.97021313499135,415.66965402598726,415.66965402598726,415.6537354100001,,,,,,,,,,,,,,,,,,,,,,,,,111000,001,2024-12-05_17h14.01.585,Test,2024.2.1,60.24091558940431,2024-12-05 17h15.50.833231 +0100,
3,150,0,13,None,6,6,0,,,,,,,,,,,,,,,,0,6,6,2,,,,,415.66965402598726,,,,,,,,,,,,,,,,,,,,,,,,,,,,,,,,,,,,,,,,,,,,,,,,,,,,,,,,,,415.65956032100075,415.66965402598726,415.8694181789906,415.8694181789906,415.8694181789906,417.5697475079942,417.5697475079942,417.55460220099485,,,,,,,,,,,,,,,,,,,,,,,,,111000,001,2024-12-05_17h14.01.585,Test,2024.2.1,60.24091558940431,2024-12-05 17h15.50.833231 +0100,
12,150,60,22,None,7,7,0,,,,,,,,,,,,,,,,0,7,7,11,,,,,417.5697475079942,,,,,,,,,,,,,,,,,,,,,,,,,,,,,,,,,,,,,,,,,,,,,,,,,,,,,,,,,,417.5607930129918,417.5697475079942,417.7696689079894,417.7696689079894,417.7696689079894,419.4695237049891,419.4695237049891,419.45420000399463,,,,,,,,,,,,,,,,,,,,,,,,,111000,001,2024-12-05_17h14.01.585,Test,2024.2.1,60.24091558940431,2024-12-05 17h15.50.833231 +0100,
23,150,120,29,None,8,8,0,,,,,,,,,,,,,,,,0,8,8,22,,,,,419.4695237049891,,,,,,,,,,,,,,,,,,,,,,,,,,,,,,,,,,,,,,,,,,,,,,,,,,,,,,,,,,419.46072517099674,419.4695237049891,419.67007273298805,419.67007273298805,419.67007273298805,421.36966706799285,421.36966706799285,421.3540732919937,,,,,,,,,,,,,,,,,,,,,,,,,111000,001,2024-12-05_17h14.01.585,Test,2024.2.1,60.24091558940431,2024-12-05 17h15.50.833231 +0100,
8,150,30,23,None,9,9,0,,,,,,,,,,,,,,,,0,9,9,7,,,,,421.36966706799285,,,,,,,,,,,,,,,,,,,,,,,,,,,,,,,,,,,,,,,,,,,,,,,,,,,,,,,,,,421.36021400999743,421.36966706799285,421.57060077099595,421.57060077099595,421.57060077099595,423.2701261889888,423.2701261889888,423.25470016899635,,,,,,,,,,,,,,,,,,,,,,,,,111000,001,2024-12-05_17h14.01.585,Test,2024.2.1,60.24091558940431,2024-12-05 17h15.50.833231 +0100,
20,150,90,32,None,10,10,0,,,,,,,,,,,,,,,,0,10,10,19,,,,,423.2701261889888,,,,,,,,,,,,,,,,,,,,,,,,,,,,,,,,,,,,,,,,,,,,,,,,,,,,,,,,,,423.2603731369891,423.2701261889888,423.4707695489924,423.4707695489924,423.4707695489924,425.1737824640004,425.1737824640004,425.1556701399968,,,,,,,,,,,,,,,,,,,,,,,,,111000,001,2024-12-05_17h14.01.585,Test,2024.2.1,60.24091558940431,2024-12-05 17h15.50.833231 +0100,
35,150,180,31,None,11,11,0,,,,,,,,,,,,,,,,0,11,11,34,,,,,425.1737824640004,,,,,,,,,,,,,,,,,,,,,,,,,,,,,,,,,,,,,,,,,,,,,,,,,,,,,,,,,,425.16513140399184,425.1737824640004,425.3716679559875,425.3716679559875,425.38835879799444,427.07404593899264,427.07404593899264,427.0559938660008,,,,,,,,,,,,,,,,,,,,,,,,,111000,001,2024-12-05_17h14.01.585,Test,2024.2.1,60.24091558940431,2024-12-05 17h15.50.833231 +0100,
14,150,60,37,None,12,12,0,,,,,,,,,,,,,,,,0,12,12,13,,,,,427.07404593899264,,,,,,,,,,,,,,,,,,,,,,,,,,,,,,,,,,,,,,,,,,,,,,,,,,,,,,,,,,427.06565882399445,427.07404593899264,427.2705258719943,427.2705258719943,427.2873006169975,428.97430253299535,428.97430253299535,428.95609223899373,,,,,,,,,,,,,,,,,,,,,,,,,111000,001,2024-12-05_17h14.01.585,Test,2024.2.1,60.24091558940431,2024-12-05 17h15.50.833231 +0100,
27,150,150,45,None,13,13,0,,,,,,,,,,,,,,,,0,13,13,26,,,,,428.97430253299535,,,,,,,,,,,,,,,,,,,,,,,,,,,,,,,,,,,,,,,,,,,,,,,,,,,,,,,,,,428.9661931509909,428.97430253299535,429.17205754898896,429.17205754898896,429.1880134929961,430.8707953999983,430.8707953999983,430.8552074429899,,,,,,,,,,,,,,,,,,,,,,,,,111000,001,2024-12-05_17h14.01.585,Test,2024.2.1,60.24091558940431,2024-12-05 17h15.50.833231 +0100,
18,150,90,66,None,14,14,0,,,,,,,,,,,,,,,,0,14,14,17,,,,,430.8707953999983,,,,,,,,,,,,,,,,,,,,,,,,,,,,,,,,,,,,,,,,,,,,,,,,,,,,,,,,,,430.8607751620002,430.8707953999983,431.07213587399747,431.07213587399747,431.07213587399747,432.77085611199436,432.77085611199436,432.7553490809951,,,,,,,,,,,,,,,,,,,,,,,,,111000,001,2024-12-05_17h14.01.585,Test,2024.2.1,60.24091558940431,2024-12-05 17h15.50.833231 +0100,
33,150,180,1,None,15,15,0,,,,,,,,,,,,,,,,0,15,15,32,,,,,432.77085611199436,,,,,,,,,,,,,,,,,,,,,,,,,,,,,,,,,,,,,,,,,,,,,,,,,,,,,,,,,,432.76142752300075,432.77085611199436,432.97180053898774,432.97180053898774,432.97180053898774,434.67600407099235,434.67600407099235,434.65680554699793,,,,,,,,,,,,,,,,,,,,,,,,,111000,001,2024-12-05_17h14.01.585,Test,2024.2.1,60.24091558940431,2024-12-05 17h15.50.833231 +0100,
4,150,0,56,None,16,16,0,,,,,,,,,,,,,,,,0,16,16,3,,,,,434.67600407099235,,,,,,,,,,,,,,,,,,,,,,,,,,,,,,,,,,,,,,,,,,,,,,,,,,,,,,,,,,434.66665337298764,434.67600407099235,434.8716295810009,434.8716295810009,434.88769824799965,436.57078045699745,436.57078045699745,436.5555631899915,,,,,,,,,,,,,,,,,,,,,,,,,111000,001,2024-12-05_17h14.01.585,Test,2024.2.1,60.24091558940431,2024-12-05 17h15.50.833231 +0100,
2,150,0,7,None,17,17,0,,,,,,,,,,,,,,,,0,17,17,1,,,,,436.57078045699745,,,,,,,,,,,,,,,,,,,,,,,,,,,,,,,,,,,,,,,,,,,,,,,,,,,,,,,,,,436.5620197449898,436.57078045699745,436.7721030429966,436.7721030429966,436.7721030429966,438.47432750200096,438.47432750200096,438.4565483799961,,,,,,,,,,,,,,,,,,,,,,,,,111000,001,2024-12-05_17h14.01.585,Test,2024.2.1,60.24091558940431,2024-12-05 17h15.50.833231 +0100,
31,150,180,67,None,18,18,0,,,,,,,,,,,,,,,,0,18,18,30,,,,,438.47432750200096,,,,,,,,,,,,,,,,,,,,,,,,,,,,,,,,,,,,,,,,,,,,,,,,,,,,,,,,,,438.46587266999995,438.47432750200096,438.67137895099586,438.67137895099586,438.68842799100094,440.3754046959948,440.3754046959948,440.3570816309948,,,,,,,,,,,,,,,,,,,,,,,,,111000,001,2024-12-05_17h14.01.585,Test,2024.2.1,60.24091558940431,2024-12-05 17h15.50.833231 +0100,
32,150,180,39,None,19,19,0,,,,,,,,,,,,,,,,0,19,19,31,,,,,440.3754046959948,,,,,,,,,,,,,,,,,,,,,,,,,,,,,,,,,,,,,,,,,,,,,,,,,,,,,,,,,,440.3665426009975,440.3754046959948,440.5720845619944,440.5720845619944,440.58839869798976,442.2719157249958,442.2719157249958,442.25628514199343,,,,,,,,,,,,,,,,,,,,,,,,,111000,001,2024-12-05_17h14.01.585,Test,2024.2.1,60.24091558940431,2024-12-05 17h15.50.833231 +0100,
30,150,150,11,None,20,20,0,,,,,,,,,,,,,,,,0,20,20,29,,,,,442.2719157249958,,,,,,,,,,,,,,,,,,,,,,,,,,,,,,,,,,,,,,,,,,,,,,,,,,,,,,,,,,442.2632868219953,442.2719157249958,442.47239287498815,442.47239287498815,442.47239287498815,444.1761145019991,444.1761145019991,444.1569633249892,,,,,,,,,,,,,,,,,,,,,,,,,111000,001,2024-12-05_17h14.01.585,Test,2024.2.1,60.24091558940431,2024-12-05 17h15.50.833231 +0100,
19,150,90,3,None,21,21,0,,,,,,,,,,,,,,,,0,21,21,18,,,,,444.1761145019991,,,,,,,,,,,,,,,,,,,,,,,,,,,,,,,,,,,,,,,,,,,,,,,,,,,,,,,,,,444.16947480999806,444.1761145019991,444.37165583699243,444.37165583699243,444.3883531699976,446.07127984799445,446.07127984799445,446.05511252798897,,,,,,,,,,,,,,,,,,,,,,,,,111000,001,2024-12-05_17h14.01.585,Test,2024.2.1,60.24091558940431,2024-12-05 17h15.50.833231 +0100,
26,150,150,46,None,22,22,0,,,,,,,,,,,,,,,,0,22,22,25,,,,,446.07127984799445,,,,,,,,,,,,,,,,,,,,,,,,,,,,,,,,,,,,,,,,,,,,,,,,,,,,,,,,,,446.0600457479886,446.07127984799445,446.27245500199206,446.27245500199206,446.27245500199206,447.97601207699336,447.97601207699336,447.957508003994,,,,,,,,,,,,,,,,,,,,,,,,,111000,001,2024-12-05_17h14.01.585,Test,2024.2.1,60.24091558940431,2024-12-05 17h15.50.833231 +0100,
24,150,120,42,None,23,23,0,,,,,,,,,,,,,,,,0,23,23,23,,,,,447.97601207699336,,,,,,,,,,,,,,,,,,,,,,,,,,,,,,,,,,,,,,,,,,,,,,,,,,,,,,,,,,447.9672789469914,447.97601207699336,448.17254794199835,448.17254794199835,448.1887571469997,449.87493438099045,449.87493438099045,449.85739189598826,,,,,,,,,,,,,,,,,,,,,,,,,111000,001,2024-12-05_17h14.01.585,Test,2024.2.1,60.24091558940431,2024-12-05 17h15.50.833231 +0100,
34,150,180,34,None,24,24,0,,,,,,,,,,,,,,,,0,24,24,33,,,,,449.87493438099045,,,,,,,,,,,,,,,,,,,,,,,,,,,,,,,,,,,,,,,,,,,,,,,,,,,,,,,,,,449.8667946029891,449.87493438099045,450.0730904509983,450.0730904509983,450.08963668999786,451.77237007798976,451.77237007798976,451.75673698099854,,,,,,,,,,,,,,,,,,,,,,,,,111000,001,2024-12-05_17h14.01.585,Test,2024.2.1,60.24091558940431,2024-12-05 17h15.50.833231 +0100,
25,150,120,33,None,25,25,0,,,,,,,,,,,,,,,,0,25,25,24,,,,,451.77237007798976,,,,,,,,,,,,,,,,,,,,,,,,,,,,,,,,,,,,,,,,,,,,,,,,,,,,,,,,,,451.762889627993,451.77237007798976,451.97221255699696,451.97221255699696,451.97221255699696,453.67226662900066,453.67226662900066,453.6565409689938,,,,,,,,,,,,,,,,,,,,,,,,,111000,001,2024-12-05_17h14.01.585,Test,2024.2.1,60.24091558940431,2024-12-05 17h15.50.833231 +0100,
7,150,30,58,None,26,26,0,,,,,,,,,,,,,,,,0,26,26,6,,,,,453.67226662900066,,,,,,,,,,,,,,,,,,,,,,,,,,,,,,,,,,,,,,,,,,,,,,,,,,,,,,,,,,453.66434303899587,453.67226662900066,453.8734374399937,453.8734374399937,453.8734374399937,455.57253471799777,455.57253471799777,455.5570931830007,,,,,,,,,,,,,,,,,,,,,,,,,111000,001,2024-12-05_17h14.01.585,Test,2024.2.1,60.24091558940431,2024-12-05 17h15.50.833231 +0100,
13,150,60,2,None,27,27,0,,,,,,,,,,,,,,,,0,27,27,12,,,,,455.57253471799777,,,,,,,,,,,,,,,,,,,,,,,,,,,,,,,,,,,,,,,,,,,,,,,,,,,,,,,,,,455.5631595599989,455.57253471799777,455.7728870139981,455.7728870139981,455.7728870139981,457.47213894499873,457.47213894499873,457.45724462099315,,,,,,,,,,,,,,,,,,,,,,,,,111000,001,2024-12-05_17h14.01.585,Test,2024.2.1,60.24091558940431,2024-12-05 17h15.50.833231 +0100,
6,150,30,38,None,28,28,0,,,,,,,,,,,,,,,,0,28,28,5,,,,,457.47213894499873,,,,,,,,,,,,,,,,,,,,,,,,,,,,,,,,,,,,,,,,,,,,,,,,,,,,,,,,,,457.4631814319873,457.47213894499873,457.67310255799384,457.67310255799384,457.67310255799384,459.3766903689975,459.3766903689975,459.3581494839891,,,,,,,,,,,,,,,,,,,,,,,,,111000,001,2024-12-05_17h14.01.585,Test,2024.2.1,60.24091558940431,2024-12-05 17h15.50.833231 +0100,
28,150,150,36,None,29,29,0,,,,,,,,,,,,,,,,0,29,29,27,,,,,459.3766903689975,,,,,,,,,,,,,,,,,,,,,,,,,,,,,,,,,,,,,,,,,,,,,,,,,,,,,,,,,,459.3677336709952,459.3766903689975,459.57373164799355,459.57373164799355,459.5905317249999,461.2731531459867,461.2731531459867,461.2577207899885,,,,,,,,,,,,,,,,,,,,,,,,,111000,001,2024-12-05_17h14.01.585,Test,2024.2.1,60.24091558940431,2024-12-05 17h15.50.833231 +0100,
22,150,120,30,None,30,30,0,,,,,,,,,,,,,,,,0,30,30,21,,,,,461.2731531459867,,,,,,,,,,,,,,,,,,,,,,,,,,,,,,,,,,,,,,,,,,,,,,,,,,,,,,,,,,461.26513099399745,461.2731531459867,461.4729116039962,461.4729116039962,461.4729116039962,463.1730387949938,463.1730387949938,463.1570702769968,,,,,,,,,,,,,,,,,,,,,,,,,111000,001,2024-12-05_17h14.01.585,Test,2024.2.1,60.24091558940431,2024-12-05 17h15.50.833231 +0100,
9,150,30,16,None,31,31,0,,,,,,,,,,,,,,,,0,31,31,8,,,,,463.1730387949938,,,,,,,,,,,,,,,,,,,,,,,,,,,,,,,,,,,,,,,,,,,,,,,,,,,,,,,,,,463.1632052359928,463.1730387949938,463.3730862449884,463.3730862449884,463.3730862449884,465.077162689995,465.077162689995,465.0583361609897,,,,,,,,,,,,,,,,,,,,,,,,,111000,001,2024-12-05_17h14.01.585,Test,2024.2.1,60.24091558940431,2024-12-05 17h15.50.833231 +0100,
29,150,150,54,None,32,32,0,,,,,,,,,,,,,,,,0,32,32,28,,,,,465.077162689995,,,,,,,,,,,,,,,,,,,,,,,,,,,,,,,,,,,,,,,,,,,,,,,,,,,,,,,,,,465.06803659998695,465.077162689995,465.27344351999636,465.27344351999636,465.290323342997,466.9734311459906,466.9734311459906,466.9578120879887,,,,,,,,,,,,,,,,,,,,,,,,,111000,001,2024-12-05_17h14.01.585,Test,2024.2.1,60.24091558940431,2024-12-05 17h15.50.833231 +0100,
5,150,0,5,None,33,33,0,,,,,,,,,,,,,,,,0,33,33,4,,,,,466.9734311459906,,,,,,,,,,,,,,,,,,,,,,,,,,,,,,,,,,,,,,,,,,,,,,,,,,,,,,,,,,466.9635333149927,466.9734311459906,467.1751207829948,467.1751207829948,467.1751207829948,468.8768384559953,468.8768384559953,468.85885559899907,,,,,,,,,,,,,,,,,,,,,,,,,111000,001,2024-12-05_17h14.01.585,Test,2024.2.1,60.24091558940431,2024-12-05 17h15.50.833231 +0100,
17,150,90,43,None,34,34,0,,,,,,,,,,,,,,,,0,34,34,16,,,,,468.8768384559953,,,,,,,,,,,,,,,,,,,,,,,,,,,,,,,,,,,,,,,,,,,,,,,,,,,,,,,,,,468.86839313698874,468.8768384559953,469.07354787799704,469.07354787799704,469.09042514598696,470.77374550398963,470.77374550398963,470.75828047299,,,,,,,,,,,,,,,,,,,,,,,,,111000,001,2024-12-05_17h14.01.585,Test,2024.2.1,60.24091558940431,2024-12-05 17h15.50.833231 +0100,
,,,,,,,,,,,,,,,,,,,,,,,,,,,,,,,,,,,,,,,,,,,,,,,,,,,,,,,,,,,,,,,,,,,,,,,,,,,,,,,,,,,,,,,,,,,,,,,,,470.7584717849968,470.77374550398963,470.77374550398963,477.7604308579903,space,6.9838044960051775,None,,,,,,,,,,,,,,,,,,111000,001,2024-12-05_17h14.01.585,Test,2024.2.1,60.24091558940431,2024-12-05 17h15.50.833231 +0100,
23,150,120,29,None,0,0,0,False,,,,left,0.9171413230069447,None,,,,,,,,,,,,,0,0,0,0,477.7854158939881,,,,,,,,,,,,,,,,,,,,,,,,,,,,,,,,,,,,,,,,,,,,,,,,,,,,,,,,,,,,,,,,,,,,,,,,,477.7764163739921,477.7854158939881,478.7906319199974,479.7751044619945,479.7751044619945,479.7751044619945,480.70959429399227,left,0.9171413230069447,None,,,,,,,,111000,001,2024-12-05_17h14.01.585,Test,2024.2.1,60.24091558940431,2024-12-05 17h15.50.833231 +0100,
42,150,30,41,None,1,1,0,True,,,,left,1.5856202889990527,None,,,,,,,,,,,,,0,1,1,1,480.7252342899883,,,,,,,,,,,,,,,,,,,,,,,,,,,,,,,,,,,,,,,,,,,,,,,,,,,,,,,,,,,,,,,,,,,,,,,,,480.71584267899743,480.7252342899883,481.74143669600016,482.72553207298915,482.72553207298915,482.72553207298915,484.3263709079911,left,1.5856202889990527,None,,,,,,,,111000,001,2024-12-05_17h14.01.585,Test,2024.2.1,60.24091558940431,2024-12-05 17h15.50.833231 +0100,
68,150,180,53,None,2,2,0,True,,,,left,1.1032280350045767,None,,,,,,,,,,,,,0,2,2,2,484.34147820298676,,,,,,,,,,,,,,,,,,,,,,,,,,,,,,,,,,,,,,,,,,,,,,,,,,,,,,,,,,,,,,,,,,,,,,,,,484.33209945299313,484.34147820298676,485.3420112199965,486.34140547100105,486.34140547100105,486.34140547100105,487.46042480599135,left,1.1032280350045767,None,,,,,,,,111000,001,2024-12-05_17h14.01.585,Test,2024.2.1,60.24091558940431,2024-12-05 17h15.50.833231 +0100,
28,150,150,36,None,3,3,0,False,,,,right,0.9905845119938022,None,,,,,,,,,,,,,0,3,3,3,487.47475882800063,,,,,,,,,,,,,,,,,,,,,,,,,,,,,,,,,,,,,,,,,,,,,,,,,,,,,,,,,,,,,,,,,,,,,,,,,487.4640406760009,487.47475882800063,488.4758263689873,489.47611796199635,489.47611796199635,489.47611796199635,490.47786640099366,right,0.9905845119938022,None,,,,,,,,111000,001,2024-12-05_17h14.01.585,Test,2024.2.1,60.24091558940431,2024-12-05 17h15.50.833231 +0100,
54,150,90,19,None,4,4,0,True,,,,right,1.1241543060023105,None,,,,,,,,,,,,,0,4,4,4,490.49456430898863,,,,,,,,,,,,,,,,,,,,,,,,,,,,,,,,,,,,,,,,,,,,,,,,,,,,,,,,,,,,,,,,,,,,,,,,,490.48564649799664,490.49456430898863,491.5086481759936,492.49279439399834,492.49279439399834,492.49279439399834,493.6283110539953,right,1.1241543060023105,None,,,,,,,,111000,001,2024-12-05_17h14.01.585,Test,2024.2.1,60.24091558940431,2024-12-05 17h15.50.833231 +0100,
16,150,90,57,None,5,5,0,False,,,,left,1.0574150180036668,None,,,,,,,,,,,,,0,5,5,5,493.6425399719883,,,,,,,,,,,,,,,,,,,,,,,,,,,,,,,,,,,,,,,,,,,,,,,,,,,,,,,,,,,,,,,,,,,,,,,,,493.63288106599066,493.6425399719883,494.64196506899316,495.6427790949965,495.6427790949965,495.6427790949965,496.7097704959888,left,1.0574150180036668,None,,,,,,,,111000,001,2024-12-05_17h14.01.585,Test,2024.2.1,60.24091558940431,2024-12-05 17h15.50.833231 +0100,
22,150,120,30,None,6,6,0,False,,,,right,1.151047183011542,None,,,,,,,,,,,,,0,6,6,6,496.72464925498934,,,,,,,,,,,,,,,,,,,,,,,,,,,,,,,,,,,,,,,,,,,,,,,,,,,,,,,,,,,,,,,,,,,,,,,,,496.7135916989937,496.72464925498934,497.72603441699175,498.7261939149903,498.7261939149903,498.7261939149903,499.89390342599654,right,1.151047183011542,None,,,,,,,,111000,001,2024-12-05_17h14.01.585,Test,2024.2.1,60.24091558940431,2024-12-05 17h15.50.833231 +0100,
55,150,90,28,None,7,7,0,True,,,,left,0.9591745390061988,None,,,,,,,,,,,,,0,7,7,7,499.9104356109892,,,,,,,,,,,,,,,,,,,,,,,,,,,,,,,,,,,,,,,,,,,,,,,,,,,,,,,,,,,,,,,,,,,,,,,,,499.9009480199893,499.9104356109892,500.92566051699396,501.9095843929972,501.9095843929972,501.9095843929972,502.8795359020005,left,0.9591745390061988,None,,,,,,,,111000,001,2024-12-05_17h14.01.585,Test,2024.2.1,60.24091558940431,2024-12-05 17h15.50.833231 +0100,
67,150,180,60,None,8,8,0,True,,,,left,1.182956397999078,None,,,,,,,,,,,,,0,8,8,8,502.89553483299096,,,,,,,,,,,,,,,,,,,,,,,,,,,,,,,,,,,,,,,,,,,,,,,,,,,,,,,,,,,,,,,,,,,,,,,,,502.8866904339957,502.89553483299096,503.91000602599524,504.89306018799834,504.89306018799834,504.89306018799834,506.0818434459943,left,1.182956397999078,None,,,,,,,,111000,001,2024-12-05_17h14.01.585,Test,2024.2.1,60.24091558940431,2024-12-05 17h15.50.833231 +0100,
53,150,90,27,None,9,9,0,True,,,,right,0.8876770430069882,None,,,,,,,,,,,,,0,9,9,9,506.09645953099243,,,,,,,,,,,,,,,,,,,,,,,,,,,,,,,,,,,,,,,,,,,,,,,,,,,,,,,,,,,,,,,,,,,,,,,,,506.08795969799394,506.09645953099243,507.1093596259889,508.09411627298687,508.09411627298687,508.09411627298687,508.9945741729898,right,0.8876770430069882,None,,,,,,,,111000,001,2024-12-05_17h14.01.585,Test,2024.2.1,60.24091558940431,2024-12-05 17h15.50.833231 +0100,
63,150,150,64,None,10,10,0,True,,,,left,0.8137463669991121,None,,,,,,,,,,,,,0,10,10,10,509.0099453039875,,,,,,,,,,,,,,,,,,,,,,,,,,,,,,,,,,,,,,,,,,,,,,,,,,,,,,,,,,,,,,,,,,,,,,,,,509.0006094769924,509.0099453039875,510.0096924089885,510.9939446359931,510.9939446359931,510.9939446359931,511.81201416299155,left,0.8137463669991121,None,,,,,,,,111000,001,2024-12-05_17h14.01.585,Test,2024.2.1,60.24091558940431,2024-12-05 17h15.50.833231 +0100,
27,150,150,45,None,11,11,0,False,,,,left,0.7919702060025884,None,,,,,,,,,,,,,0,11,11,11,511.82621647899214,,,,,,,,,,,,,,,,,,,,,,,,,,,,,,,,,,,,,,,,,,,,,,,,,,,,,,,,,,,,,,,,,,,,,,,,,511.81552656799613,511.82621647899214,512.8265270289994,513.8275799459952,513.8275799459952,513.8275799459952,514.6293979719921,left,0.7919702060025884,None,,,,,,,,111000,001,2024-12-05_17h14.01.585,Test,2024.2.1,60.24091558940431,2024-12-05 17h15.50.833231 +0100,
25,150,120,33,None,12,12,0,False,,,,right,1.2058696449967101,None,,,,,,,,,,,,,0,12,12,12,514.6426963239937,,,,,,,,,,,,,,,,,,,,,,,,,,,,,,,,,,,,,,,,,,,,,,,,,,,,,,,,,,,,,,,,,,,,,,,,,514.6330105439993,514.6426963239937,515.6446106499934,516.6444558559888,516.6444558559888,516.6444558559888,517.8620425529953,right,1.2058696449967101,None,,,,,,,,111000,001,2024-12-05_17h14.01.585,Test,2024.2.1,60.24091558940431,2024-12-05 17h15.50.833231 +0100,
36,150,0,44,None,13,13,0,True,,,,left,1.3406197949952912,None,,,,,,,,,,,,,0,13,13,13,517.8770279819873,,,,,,,,,,,,,,,,,,,,,,,,,,,,,,,,,,,,,,,,,,,,,,,,,,,,,,,,,,,,,,,,,,,,,,,,,517.8681629679922,517.8770279819873,518.8769322799926,519.8772950629937,519.8772950629937,519.8772950629937,521.2285987149953,left,1.3406197949952912,None,,,,,,,,111000,001,2024-12-05_17h14.01.585,Test,2024.2.1,60.24091558940431,2024-12-05 17h15.50.833231 +0100,
61,150,150,26,None,14,14,0,True,,,,right,0.7845616109989351,None,,,,,,,,,,,,,0,14,14,14,521.2432674329903,,,,,,,,,,,,,,,,,,,,,,,,,,,,,,,,,,,,,,,,,,,,,,,,,,,,,,,,,,,,,,,,,,,,,,,,,521.2343587099895,521.2432674329903,522.2443702079909,523.2438721309882,523.2438721309882,523.2438721309882,524.0456307290005,right,0.7845616109989351,None,,,,,,,,111000,001,2024-12-05_17h14.01.585,Test,2024.2.1,60.24091558940431,2024-12-05 17h15.50.833231 +0100,
66,150,180,50,None,15,15,0,True,,,,left,2.439241835003486,None,,,,,,,,,,,,,0,15,15,15,524.0613495489961,,,,,,,,,,,,,,,,,,,,,,,,,,,,,,,,,,,,,,,,,,,,,,,,,,,,,,,,,,,,,,,,,,,,,,,,,524.0513810289995,524.0613495489961,525.0618087409966,526.0449396109907,526.0449396109907,526.0449396109907,528.4960890489892,left,2.439241835003486,None,,,,,,,,111000,001,2024-12-05_17h14.01.585,Test,2024.2.1,60.24091558940431,2024-12-05 17h15.50.833231 +0100,
11,150,60,6,None,16,16,0,False,,,,right,1.5089934010029538,None,,,,,,,,,,,,,0,16,16,16,528.510829670995,,,,,,,,,,,,,,,,,,,,,,,,,,,,,,,,,,,,,,,,,,,,,,,,,,,,,,,,,,,,,,,,,,,,,,,,,528.4996395509952,528.510829670995,529.5122492529918,530.4954838639969,530.4954838639969,530.4954838639969,532.0132599989884,right,1.5089934010029538,None,,,,,,,,111000,001,2024-12-05_17h14.01.585,Test,2024.2.1,60.24091558940431,2024-12-05 17h15.50.833231 +0100,
62,150,150,10,None,17,17,0,True,,,,left,1.3020687460084446,None,,,,,,,,,,,,,0,17,17,17,532.028489349992,,,,,,,,,,,,,,,,,,,,,,,,,,,,,,,,,,,,,,,,,,,,,,,,,,,,,,,,,,,,,,,,,,,,,,,,,532.019061613988,532.028489349992,533.0287082529976,534.028952402994,534.028952402994,534.028952402994,535.3460470499995,left,1.3020687460084446,None,,,,,,,,111000,001,2024-12-05_17h14.01.585,Test,2024.2.1,60.24091558940431,2024-12-05 17h15.50.833231 +0100,
7,150,30,58,None,18,18,0,False,,,,right,0.9054133319878019,None,,,,,,,,,,,,,0,18,18,18,535.3613819769962,,,,,,,,,,,,,,,,,,,,,,,,,,,,,,,,,,,,,,,,,,,,,,,,,,,,,,,,,,,,,,,,,,,,,,,,,535.3501817569922,535.3613819769962,536.3617313469877,537.3612617939943,537.3612617939943,537.3612617939943,538.279030204998,right,0.9054133319878019,None,,,,,,,,111000,001,2024-12-05_17h14.01.585,Test,2024.2.1,60.24091558940431,2024-12-05 17h15.50.833231 +0100,
57,150,120,70,None,19,19,0,True,,,,left,2.6261937899980694,None,,,,,,,,,,,,,0,19,19,19,538.2943040709943,,,,,,,,,,,,,,,,,,,,,,,,,,,,,,,,,,,,,,,,,,,,,,,,,,,,,,,,,,,,,,,,,,,,,,,,,538.2843012579979,538.2943040709943,539.2944881000003,540.2951773899986,540.2951773899986,540.2951773899986,542.9306259439909,left,2.6261937899980694,None,,,,,,,,111000,001,2024-12-05_17h14.01.585,Test,2024.2.1,60.24091558940431,2024-12-05 17h15.50.833231 +0100,
20,150,90,32,None,20,20,0,False,,,,right,1.683857120005996,None,,,,,,,,,,,,,0,20,20,20,542.9453615469974,,,,,,,,,,,,,,,,,,,,,,,,,,,,,,,,,,,,,,,,,,,,,,,,,,,,,,,,,,,,,,,,,,,,,,,,,542.935626387989,542.9453615469974,543.9457315479958,544.945514948995,544.945514948995,544.945514948995,546.6461047989869,right,1.683857120005996,None,,,,,,,,111000,001,2024-12-05_17h14.01.585,Test,2024.2.1,60.24091558940431,2024-12-05 17h15.50.833231 +0100,
64,150,150,18,None,21,21,0,True,,,,right,0.9257626629987499,None,,,,,,,,,,,,,0,21,21,21,546.6617635129951,,,,,,,,,,,,,,,,,,,,,,,,,,,,,,,,,,,,,,,,,,,,,,,,,,,,,,,,,,,,,,,,,,,,,,,,,546.651437116001,546.6617635129951,547.6621943429927,548.6456275989913,548.6456275989913,548.6456275989913,549.5810957989888,right,0.9257626629987499,None,,,,,,,,111000,001,2024-12-05_17h14.01.585,Test,2024.2.1,60.24091558940431,2024-12-05 17h15.50.833231 +0100,
39,150,0,4,None,22,22,0,True,,,,left,0.6570030590082752,None,,,,,,,,,,,,,0,22,22,22,549.5999262189871,,,,,,,,,,,,,,,,,,,,,,,,,,,,,,,,,,,,,,,,,,,,,,,,,,,,,,,,,,,,,,,,,,,,,,,,,549.5909974009992,549.5999262189871,550.6126954209903,551.5951888669952,551.5951888669952,551.5951888669952,552.265141093987,left,0.6570030590082752,None,,,,,,,,111000,001,2024-12-05_17h14.01.585,Test,2024.2.1,60.24091558940431,2024-12-05 17h15.50.833231 +0100,
5,150,0,5,None,23,23,0,False,,,,right,0.8247929880017182,None,,,,,,,,,,,,,0,23,23,23,552.2798615840002,,,,,,,,,,,,,,,,,,,,,,,,,,,,,,,,,,,,,,,,,,,,,,,,,,,,,,,,,,,,,,,,,,,,,,,,,552.2702240219951,552.2798615840002,553.2790471879998,554.2793882619881,554.2793882619881,554.2793882619881,555.1141363619972,right,0.8247929880017182,None,,,,,,,,111000,001,2024-12-05_17h14.01.585,Test,2024.2.1,60.24091558940431,2024-12-05 17h15.50.833231 +0100,
43,150,30,65,None,24,24,0,True,,,,left,0.7649337450129678,None,,,,,,,,,,,,,0,24,24,24,555.1294184699946,,,,,,,,,,,,,,,,,,,,,,,,,,,,,,,,,,,,,,,,,,,,,,,,,,,,,,,,,,,,,,,,,,,,,,,,,555.1198099100002,555.1294184699946,556.1291991469916,557.1290585759998,557.1290585759998,557.1290585759998,557.8990979719965,left,0.7649337450129678,None,,,,,,,,111000,001,2024-12-05_17h14.01.585,Test,2024.2.1,60.24091558940431,2024-12-05 17h15.50.833231 +0100,
48,150,60,25,None,25,25,0,True,,,,left,1.1660856490052538,None,,,,,,,,,,,,,0,25,25,25,557.9161289499898,,,,,,,,,,,,,,,,,,,,,,,,,,,,,,,,,,,,,,,,,,,,,,,,,,,,,,,,,,,,,,,,,,,,,,,,,557.907676221992,557.9161289499898,558.9299618399964,559.9128637529939,559.9128637529939,559.9128637529939,561.0820571079967,left,1.1660856490052538,None,,,,,,,,111000,001,2024-12-05_17h14.01.585,Test,2024.2.1,60.24091558940431,2024-12-05 17h15.50.833231 +0100,
31,150,180,67,None,26,26,0,False,,,,right,1.3587484290037537,None,,,,,,,,,,,,,0,26,26,26,561.0962844799942,,,,,,,,,,,,,,,,,,,,,,,,,,,,,,,,,,,,,,,,,,,,,,,,,,,,,,,,,,,,,,,,,,,,,,,,,561.0856451009895,561.0962844799942,562.0962368409964,563.0963718989951,563.0963718989951,563.0963718989951,564.465488442991,right,1.3587484290037537,None,,,,,,,,111000,001,2024-12-05_17h14.01.585,Test,2024.2.1,60.24091558940431,2024-12-05 17h15.50.833231 +0100,
13,150,60,2,None,27,27,0,False,,,,left,0.6563632680044975,None,,,,,,,,,,,,,0,27,27,27,564.480491260998,,,,,,,,,,,,,,,,,,,,,,,,,,,,,,,,,,,,,,,,,,,,,,,,,,,,,,,,,,,,,,,,,,,,,,,,,564.4689365279919,564.480491260998,565.4809324969974,566.480185501001,566.480185501001,566.480185501001,567.1478732129908,left,0.6563632680044975,None,,,,,,,,111000,001,2024-12-05_17h14.01.585,Test,2024.2.1,60.24091558940431,2024-12-05 17h15.50.833231 +0100,
18,150,90,66,None,28,28,0,False,,,,left,1.8800387309893267,None,,,,,,,,,,,,,0,28,28,28,567.1639482079918,,,,,,,,,,,,,,,,,,,,,,,,,,,,,,,,,,,,,,,,,,,,,,,,,,,,,,,,,,,,,,,,,,,,,,,,,567.1512959469983,567.1639482079918,568.1635071950004,569.1478299449955,569.1478299449955,569.1478299449955,571.0327412019979,left,1.8800387309893267,None,,,,,,,,111000,001,2024-12-05_17h14.01.585,Test,2024.2.1,60.24091558940431,2024-12-05 17h15.50.833231 +0100,
50,150,60,61,None,29,29,0,True,,,,left,0.8678322500054492,None,,,,,,,,,,,,,0,29,29,29,571.0491040429915,,,,,,,,,,,,,,,,,,,,,,,,,,,,,,,,,,,,,,,,,,,,,,,,,,,,,,,,,,,,,,,,,,,,,,,,,571.0401021569996,571.0491040429915,572.064920727993,573.0477392030007,573.0477392030007,573.0477392030007,573.9194129379903,left,0.8678322500054492,None,,,,,,,,111000,001,2024-12-05_17h14.01.585,Test,2024.2.1,60.24091558940431,2024-12-05 17h15.50.833231 +0100,
4,150,0,56,None,30,30,0,False,,,,right,0.763826356997015,None,,,,,,,,,,,,,0,30,30,30,573.9326477399882,,,,,,,,,,,,,,,,,,,,,,,,,,,,,,,,,,,,,,,,,,,,,,,,,,,,,,,,,,,,,,,,,,,,,,,,,573.9238944069948,573.9326477399882,574.9485512989922,575.9317159739876,575.9317159739876,575.9317159739876,576.6997810169996,right,0.763826356997015,None,,,,,,,,111000,001,2024-12-05_17h14.01.585,Test,2024.2.1,60.24091558940431,2024-12-05 17h15.50.833231 +0100,
12,150,60,22,None,31,31,0,False,,,,left,2.5264623789989855,None,,,,,,,,,,,,,0,31,31,31,576.713681312991,,,,,,,,,,,,,,,,,,,,,,,,,,,,,,,,,,,,,,,,,,,,,,,,,,,,,,,,,,,,,,,,,,,,,,,,,576.7033383209928,576.713681312991,577.7141518739954,578.7154086559894,578.7154086559894,578.7154086559894,581.2507501739892,left,2.5264623789989855,None,,,,,,,,111000,001,2024-12-05_17h14.01.585,Test,2024.2.1,60.24091558940431,2024-12-05 17h15.50.833231 +0100,
9,150,30,16,None,32,32,0,False,,,,left,0.688613295002142,None,,,,,,,,,,,,,0,32,32,32,581.2639878810005,,,,,,,,,,,,,,,,,,,,,,,,,,,,,,,,,,,,,,,,,,,,,,,,,,,,,,,,,,,,,,,,,,,,,,,,,581.2542941579886,581.2639878810005,582.2654605939897,583.265725773992,583.265725773992,583.265725773992,583.9671138169942,left,0.688613295002142,None,,,,,,,,111000,001,2024-12-05_17h14.01.585,Test,2024.2.1,60.24091558940431,2024-12-05 17h15.50.833231 +0100,
19,150,90,3,None,33,33,0,False,,,,right,2.5922016669937875,None,,,,,,,,,,,,,0,33,33,33,583.9814293189993,,,,,,,,,,,,,,,,,,,,,,,,,,,,,,,,,,,,,,,,,,,,,,,,,,,,,,,,,,,,,,,,,,,,,,,,,583.9705788099964,583.9814293189993,584.9825539839949,585.9818213589897,585.9818213589897,585.9818213589897,588.583677194998,right,2.5922016669937875,None,,,,,,,,111000,001,2024-12-05_17h14.01.585,Test,2024.2.1,60.24091558940431,2024-12-05 17h15.50.833231 +0100,
6,150,30,38,None,34,34,0,False,,,,right,0.9338162099884357,None,,,,,,,,,,,,,0,34,34,34,588.5983432149951,,,,,,,,,,,,,,,,,,,,,,,,,,,,,,,,,,,,,,,,,,,,,,,,,,,,,,,,,,,,,,,,,,,,,,,,,588.5872861940006,588.5983432149951,589.5985834979947,590.5988694379921,590.5988694379921,590.5988694379921,591.5502174349967,right,0.9338162099884357,None,,,,,,,,111000,001,2024-12-05_17h14.01.585,Test,2024.2.1,60.24091558940431,2024-12-05 17h15.50.833231 +0100,
8,150,30,23,None,35,35,0,False,,,,left,0.6883639770094305,None,,,,,,,,,,,,,0,35,35,35,591.5651896549971,,,,,,,,,,,,,,,,,,,,,,,,,,,,,,,,,,,,,,,,,,,,,,,,,,,,,,,,,,,,,,,,,,,,,,,,,591.5539878019918,591.5651896549971,592.5655595579883,593.5654347909876,593.5654347909876,593.5654347909876,594.2673874309985,left,0.6883639770094305,None,,,,,,,,111000,001,2024-12-05_17h14.01.585,Test,2024.2.1,60.24091558940431,2024-12-05 17h15.50.833231 +0100,
21,150,120,24,None,36,36,0,False,,,,left,2.8210075500101084,None,,,,,,,,,,,,,0,36,36,36,594.2824492549989,,,,,,,,,,,,,,,,,,,,,,,,,,,,,,,,,,,,,,,,,,,,,,,,,,,,,,,,,,,,,,,,,,,,,,,,,594.2711099959997,594.2824492549989,595.2826524179982,596.2823564379942,596.2823564379942,596.2823564379942,599.117964346995,left,2.8210075500101084,None,,,,,,,,111000,001,2024-12-05_17h14.01.585,Test,2024.2.1,60.24091558940431,2024-12-05 17h15.50.833231 +0100,
33,150,180,1,None,37,37,0,False,,,,left,2.8640381559962407,None,,,,,,,,,,,,,0,37,37,37,599.132556956989,,,,,,,,,,,,,,,,,,,,,,,,,,,,,,,,,,,,,,,,,,,,,,,,,,,,,,,,,,,,,,,,,,,,,,,,,599.1215625309997,599.132556956989,600.1328031969897,601.1174927819957,601.1174927819957,601.1174927819957,603.9851913009916,left,2.8640381559962407,None,,,,,,,,111000,001,2024-12-05_17h14.01.585,Test,2024.2.1,60.24091558940431,2024-12-05 17h15.50.833231 +0100,
56,150,120,9,None,38,38,0,True,,,,left,1.6392808449891163,None,,,,,,,,,,,,,0,38,38,38,604.0018731019954,,,,,,,,,,,,,,,,,,,,,,,,,,,,,,,,,,,,,,,,,,,,,,,,,,,,,,,,,,,,,,,,,,,,,,,,,603.9925859869982,604.0018731019954,605.0172296719975,606.0007025789964,606.0007025789964,606.0007025789964,607.6507050729997,left,1.6392808449891163,None,,,,,,,,111000,001,2024-12-05_17h14.01.585,Test,2024.2.1,60.24091558940431,2024-12-05 17h15.50.833231 +0100,
37,150,0,35,None,39,39,0,True,,,,left,1.3336550850071944,None,,,,,,,,,,,,,0,39,39,39,607.6662495219934,,,,,,,,,,,,,,,,,,,,,,,,,,,,,,,,,,,,,,,,,,,,,,,,,,,,,,,,,,,,,,,,,,,,,,,,,607.6560891959962,607.6662495219934,608.6664008769876,609.6507098430011,609.6507098430011,609.6507098430011,611.0020865349943,left,1.3336550850071944,None,,,,,,,,111000,001,2024-12-05_17h14.01.585,Test,2024.2.1,60.24091558940431,2024-12-05 17h15.50.833231 +0100,
1,150,0,12,None,40,40,0,False,,,,right,1.788931881004828,None,,,,,,,,,,,,,0,40,40,40,611.0160294689995,,,,,,,,,,,,,,,,,,,,,,,,,,,,,,,,,,,,,,,,,,,,,,,,,,,,,,,,,,,,,,,,,,,,,,,,,611.0056974670006,611.0160294689995,612.0176507529977,613.0173880179937,613.0173880179937,613.0173880179937,614.8188078620005,right,1.788931881004828,None,,,,,,,,111000,001,2024-12-05_17h14.01.585,Test,2024.2.1,60.24091558940431,2024-12-05 17h15.50.833231 +0100,
14,150,60,37,None,41,41,0,False,,,,right,0.8932518890069332,None,,,,,,,,,,,,,0,41,41,41,614.8333364589926,,,,,,,,,,,,,,,,,,,,,,,,,,,,,,,,,,,,,,,,,,,,,,,,,,,,,,,,,,,,,,,,,,,,,,,,,614.8221338899893,614.8333364589926,615.833960250995,616.8334680489934,616.8334680489934,616.8334680489934,617.7356829019991,right,0.8932518890069332,None,,,,,,,,111000,001,2024-12-05_17h14.01.585,Test,2024.2.1,60.24091558940431,2024-12-05 17h15.50.833231 +0100,
58,150,120,14,None,42,42,0,True,,,,right,2.9166328800056363,None,,,,,,,,,,,,,0,42,42,42,617.7502330069983,,,,,,,,,,,,,,,,,,,,,,,,,,,,,,,,,,,,,,,,,,,,,,,,,,,,,,,,,,,,,,,,,,,,,,,,,617.7411301760003,617.7502330069983,618.7507669289917,619.7346955589892,619.7346955589892,619.7346955589892,622.6537782449886,right,2.9166328800056363,None,,,,,,,,111000,001,2024-12-05_17h14.01.585,Test,2024.2.1,60.24091558940431,2024-12-05 17h15.50.833231 +0100,
26,150,150,46,None,43,43,0,False,,,,left,1.2679871669970453,None,,,,,,,,,,,,,0,43,43,43,622.6669742579979,,,,,,,,,,,,,,,,,,,,,,,,,,,,,,,,,,,,,,,,,,,,,,,,,,,,,,,,,,,,,,,,,,,,,,,,,622.6572400989971,622.6669742579979,623.667789649,624.6675956429972,624.6675956429972,624.6675956429972,625.9532532819867,left,1.2679871669970453,None,,,,,,,,111000,001,2024-12-05_17h14.01.585,Test,2024.2.1,60.24091558940431,2024-12-05 17h15.50.833231 +0100,
2,150,0,7,None,44,44,0,False,,,,right,0.6909558330080472,None,,,,,,,,,,,,,0,44,44,44,625.9674111559871,,,,,,,,,,,,,,,,,,,,,,,,,,,,,,,,,,,,,,,,,,,,,,,,,,,,,,,,,,,,,,,,,,,,,,,,,625.9569616429944,625.9674111559871,626.9677362219954,627.9681839679979,627.9681839679979,627.9681839679979,628.66979213999,right,0.6909558330080472,None,,,,,,,,111000,001,2024-12-05_17h14.01.585,Test,2024.2.1,60.24091558940431,2024-12-05 17h15.50.833231 +0100,
59,150,120,62,None,45,45,0,True,,,,right,0.8552537170035066,None,,,,,,,,,,,,,0,45,45,45,628.6882139909867,,,,,,,,,,,,,,,,,,,,,,,,,,,,,,,,,,,,,,,,,,,,,,,,,,,,,,,,,,,,,,,,,,,,,,,,,628.6776687499951,628.6882139909867,629.7018979479908,630.6690095419908,630.6690095419908,630.6690095419908,631.5359300239943,right,0.8552537170035066,None,,,,,,,,111000,001,2024-12-05_17h14.01.585,Test,2024.2.1,60.24091558940431,2024-12-05 17h15.50.833231 +0100,
52,150,90,20,None,46,46,0,True,,,,left,2.4569261480064597,None,,,,,,,,,,,,,0,46,46,46,631.5524509359966,,,,,,,,,,,,,,,,,,,,,,,,,,,,,,,,,,,,,,,,,,,,,,,,,,,,,,,,,,,,,,,,,,,,,,,,,631.5430926929985,631.5524509359966,632.5523209019884,633.5356179539958,633.5356179539958,633.5356179539958,636.0040765539889,left,2.4569261480064597,None,,,,,,,,111000,001,2024-12-05_17h14.01.585,Test,2024.2.1,60.24091558940431,2024-12-05 17h15.50.833231 +0100,
24,150,120,42,None,47,47,0,False,,,,right,0.8181262330035679,None,,,,,,,,,,,,,0,47,47,47,636.0183873239876,,,,,,,,,,,,,,,,,,,,,,,,,,,,,,,,,,,,,,,,,,,,,,,,,,,,,,,,,,,,,,,,,,,,,,,,,636.0077883449994,636.0183873239876,637.0192979359999,638.0193308309972,638.0193308309972,638.0193308309972,638.8532983099867,right,0.8181262330035679,None,,,,,,,,111000,001,2024-12-05_17h14.01.585,Test,2024.2.1,60.24091558940431,2024-12-05 17h15.50.833231 +0100,
17,150,90,43,None,48,48,0,False,,,,right,0.6375355679920176,None,,,,,,,,,,,,,0,48,48,48,638.868063048998,,,,,,,,,,,,,,,,,,,,,,,,,,,,,,,,,,,,,,,,,,,,,,,,,,,,,,,,,,,,,,,,,,,,,,,,,638.856787503988,638.868063048998,639.8697216399887,640.8528588729969,640.8528588729969,640.8528588729969,641.5041480239888,right,0.6375355679920176,None,,,,,,,,111000,001,2024-12-05_17h14.01.585,Test,2024.2.1,60.24091558940431,2024-12-05 17h15.50.833231 +0100,
38,150,0,63,None,49,49,0,True,,,,left,0.7921481349912938,None,,,,,,,,,,,,,0,49,49,49,641.5191658569966,,,,,,,,,,,,,,,,,,,,,,,,,,,,,,,,,,,,,,,,,,,,,,,,,,,,,,,,,,,,,,,,,,,,,,,,,641.509989993996,641.5191658569966,642.5187422579911,643.5197519649955,643.5197519649955,643.5197519649955,644.3209972979967,left,0.7921481349912938,None,,,,,,,,111000,001,2024-12-05_17h14.01.585,Test,2024.2.1,60.24091558940431,2024-12-05 17h15.50.833231 +0100,
10,150,30,68,None,50,50,0,False,,,,right,0.8417753050016472,None,,,,,,,,,,,,,0,50,50,50,644.3351422849955,,,,,,,,,,,,,,,,,,,,,,,,,,,,,,,,,,,,,,,,,,,,,,,,,,,,,,,,,,,,,,,,,,,,,,,,,644.3242774129903,644.3351422849955,645.336506407999,646.3361864129984,646.3361864129984,646.3361864129984,647.1867062259989,right,0.8417753050016472,None,,,,,,,,111000,001,2024-12-05_17h14.01.585,Test,2024.2.1,60.24091558940431,2024-12-05 17h15.50.833231 +0100,
45,150,30,8,None,51,51,0,True,,,,left,1.5996474669955205,None,,,,,,,,,,,,,0,51,51,51,647.2019613029988,,,,,,,,,,,,,,,,,,,,,,,,,,,,,,,,,,,,,,,,,,,,,,,,,,,,,,,,,,,,,,,,,,,,,,,,,647.1924507069925,647.2019613029988,648.203048505995,649.1869163029914,649.1869163029914,649.1869163029914,650.7892121929908,left,1.5996474669955205,None,,,,,,,,111000,001,2024-12-05_17h14.01.585,Test,2024.2.1,60.24091558940431,2024-12-05 17h15.50.833231 +0100,
46,150,60,48,None,52,52,0,True,,,,left,1.1184658279962605,None,,,,,,,,,,,,,0,52,52,52,650.8043942309887,,,,,,,,,,,,,,,,,,,,,,,,,,,,,,,,,,,,,,,,,,,,,,,,,,,,,,,,,,,,,,,,,,,,,,,,,650.795613957991,650.8043942309887,651.8037583019905,652.8032206739881,652.8032206739881,652.8032206739881,653.9373417059978,left,1.1184658279962605,None,,,,,,,,111000,001,2024-12-05_17h14.01.585,Test,2024.2.1,60.24091558940431,2024-12-05 17h15.50.833231 +0100,
47,150,60,69,None,53,53,0,True,,,,left,1.673932795994915,None,,,,,,,,,,,,,0,53,53,53,653.953030728997,,,,,,,,,,,,,,,,,,,,,,,,,,,,,,,,,,,,,,,,,,,,,,,,,,,,,,,,,,,,,,,,,,,,,,,,,653.9430609109986,653.953030728997,654.9541368669888,655.9533035679924,655.9533035679924,655.9533035679924,657.6383307639917,left,1.673932795994915,None,,,,,,,,111000,001,2024-12-05_17h14.01.585,Test,2024.2.1,60.24091558940431,2024-12-05 17h15.50.833231 +0100,
34,150,180,34,None,54,54,0,False,,,,right,1.1485851030010963,None,,,,,,,,,,,,,0,54,54,54,657.6526817369886,,,,,,,,,,,,,,,,,,,,,,,,,,,,,,,,,,,,,,,,,,,,,,,,,,,,,,,,,,,,,,,,,,,,,,,,,657.6418686099933,657.6526817369886,658.6529719249957,659.6539404649957,659.6539404649957,659.6539404649957,660.805985753992,right,1.1485851030010963,None,,,,,,,,111000,001,2024-12-05_17h14.01.585,Test,2024.2.1,60.24091558940431,2024-12-05 17h15.50.833231 +0100,
41,150,30,21,None,55,55,0,True,,,,left,0.7940511839988176,None,,,,,,,,,,,,,0,55,55,55,660.822990346991,,,,,,,,,,,,,,,,,,,,,,,,,,,,,,,,,,,,,,,,,,,,,,,,,,,,,,,,,,,,,,,,,,,,,,,,,660.8136239879968,660.822990346991,661.837830243996,662.8209445379907,662.8209445379907,662.8209445379907,663.6223126979894,left,0.7940511839988176,None,,,,,,,,111000,001,2024-12-05_17h14.01.585,Test,2024.2.1,60.24091558940431,2024-12-05 17h15.50.833231 +0100,
51,150,90,59,None,56,56,0,True,,,,left,0.5839198239991674,None,,,,,,,,,,,,,0,56,56,56,663.6399582399899,,,,,,,,,,,,,,,,,,,,,,,,,,,,,,,,,,,,,,,,,,,,,,,,,,,,,,,,,,,,,,,,,,,,,,,,,663.6302365859883,663.6399582399899,664.6544117879967,665.6371671050001,665.6371671050001,665.6371671050001,666.2234492360003,left,0.5839198239991674,None,,,,,,,,111000,001,2024-12-05_17h14.01.585,Test,2024.2.1,60.24091558940431,2024-12-05 17h15.50.833231 +0100,
65,150,150,55,None,57,57,0,True,,,,left,1.6832852340012323,None,,,,,,,,,,,,,0,57,57,57,666.2394772529951,,,,,,,,,,,,,,,,,,,,,,,,,,,,,,,,,,,,,,,,,,,,,,,,,,,,,,,,,,,,,,,,,,,,,,,,,666.2303358209901,666.2394772529951,667.2537737389939,668.2385456329939,668.2385456329939,668.2385456329939,669.9390912679955,left,1.6832852340012323,None,,,,,,,,111000,001,2024-12-05_17h14.01.585,Test,2024.2.1,60.24091558940431,2024-12-05 17h15.50.833231 +0100,
30,150,150,11,None,58,58,0,False,,,,right,1.3357265410013497,None,,,,,,,,,,,,,0,58,58,58,669.9541066689999,,,,,,,,,,,,,,,,,,,,,,,,,,,,,,,,,,,,,,,,,,,,,,,,,,,,,,,,,,,,,,,,,,,,,,,,,669.9437904599909,669.9541066689999,670.9540093309915,671.9385492269939,671.9385492269939,671.9385492269939,673.2890530609875,right,1.3357265410013497,None,,,,,,,,111000,001,2024-12-05_17h14.01.585,Test,2024.2.1,60.24091558940431,2024-12-05 17h15.50.833231 +0100,
35,150,180,31,None,59,59,0,False,,,,left,0.8997882439871319,None,,,,,,,,,,,,,0,59,59,59,673.303992946996,,,,,,,,,,,,,,,,,,,,,,,,,,,,,,,,,,,,,,,,,,,,,,,,,,,,,,,,,,,,,,,,,,,,,,,,,673.2944260369986,673.303992946996,674.3041558429977,675.2876632049883,675.2876632049883,675.2876632049883,676.192758027988,left,0.8997882439871319,None,,,,,,,,111000,001,2024-12-05_17h14.01.585,Test,2024.2.1,60.24091558940431,2024-12-05 17h15.50.833231 +0100,
60,150,120,17,None,60,60,0,True,,,,left,1.4893700889952015,None,,,,,,,,,,,,,0,60,60,60,676.2096589379944,,,,,,,,,,,,,,,,,,,,,,,,,,,,,,,,,,,,,,,,,,,,,,,,,,,,,,,,,,,,,,,,,,,,,,,,,676.2019479869923,676.2096589379944,677.222158530989,678.2040935799887,678.2040935799887,678.2040935799887,679.7066127779981,left,1.4893700889952015,None,,,,,,,,111000,001,2024-12-05_17h14.01.585,Test,2024.2.1,60.24091558940431,2024-12-05 17h15.50.833231 +0100,
44,150,30,40,None,61,61,0,True,,,,left,0.8846291520021623,None,,,,,,,,,,,,,0,61,61,61,679.7217663099873,,,,,,,,,,,,,,,,,,,,,,,,,,,,,,,,,,,,,,,,,,,,,,,,,,,,,,,,,,,,,,,,,,,,,,,,,679.7127570609882,679.7217663099873,680.722221456992,681.7060257689882,681.7060257689882,681.7060257689882,682.6057159729971,left,0.8846291520021623,None,,,,,,,,111000,001,2024-12-05_17h14.01.585,Test,2024.2.1,60.24091558940431,2024-12-05 17h15.50.833231 +0100,
32,150,180,39,None,62,62,0,False,,,,right,0.7598329070024192,None,,,,,,,,,,,,,0,62,62,62,682.6210642759979,,,,,,,,,,,,,,,,,,,,,,,,,,,,,,,,,,,,,,,,,,,,,,,,,,,,,,,,,,,,,,,,,,,,,,,,,682.6092052629974,682.6210642759979,683.6219860349956,684.6058245359891,684.6058245359891,684.6058245359891,685.3735392259987,right,0.7598329070024192,None,,,,,,,,111000,001,2024-12-05_17h14.01.585,Test,2024.2.1,60.24091558940431,2024-12-05 17h15.50.833231 +0100,
29,150,150,54,None,63,63,0,False,,,,left,1.3384508229937637,None,,,,,,,,,,,,,0,63,63,63,685.3886146289879,,,,,,,,,,,,,,,,,,,,,,,,,,,,,,,,,,,,,,,,,,,,,,,,,,,,,,,,,,,,,,,,,,,,,,,,,685.3769513909938,685.3886146289879,686.3884864029969,687.372783756,687.372783756,687.372783756,688.7231054859876,left,1.3384508229937637,None,,,,,,,,111000,001,2024-12-05_17h14.01.585,Test,2024.2.1,60.24091558940431,2024-12-05 17h15.50.833231 +0100,
40,150,0,47,None,64,64,0,True,,,,left,0.8758471269975416,None,,,,,,,,,,,,,0,64,64,64,688.7380742879905,,,,,,,,,,,,,,,,,,,,,,,,,,,,,,,,,,,,,,,,,,,,,,,,,,,,,,,,,,,,,,,,,,,,,,,,,688.7280592039897,688.7380742879905,689.7385931319877,690.7218870239885,690.7218870239885,690.7218870239885,691.6089185939927,left,0.8758471269975416,None,,,,,,,,111000,001,2024-12-05_17h14.01.585,Test,2024.2.1,60.24091558940431,2024-12-05 17h15.50.833231 +0100,
69,150,180,52,None,65,65,0,True,,,,right,1.9191358770040097,None,,,,,,,,,,,,,0,65,65,65,691.6265352359915,,,,,,,,,,,,,,,,,,,,,,,,,,,,,,,,,,,,,,,,,,,,,,,,,,,,,,,,,,,,,,,,,,,,,,,,,691.6174884089996,691.6265352359915,692.6401183169946,693.6232194389886,693.6232194389886,693.6232194389886,695.5572311449941,right,1.9191358770040097,None,,,,,,,,111000,001,2024-12-05_17h14.01.585,Test,2024.2.1,60.24091558940431,2024-12-05 17h15.50.833231 +0100,
15,150,60,51,None,66,66,0,False,,,,left,1.8540894430043409,None,,,,,,,,,,,,,0,66,66,66,695.572099151992,,,,,,,,,,,,,,,,,,,,,,,,,,,,,,,,,,,,,,,,,,,,,,,,,,,,,,,,,,,,,,,,,,,,,,,,,695.5606213339925,695.572099151992,696.5733335689874,697.5727575019991,697.5727575019991,697.5727575019991,699.4417107509944,left,1.8540894430043409,None,,,,,,,,111000,001,2024-12-05_17h14.01.585,Test,2024.2.1,60.24091558940431,2024-12-05 17h15.50.833231 +0100,
49,150,60,49,None,67,67,0,True,,,,left,0.784010445990134,None,,,,,,,,,,,,,0,67,67,67,699.4568005229958,,,,,,,,,,,,,,,,,,,,,,,,,,,,,,,,,,,,,,,,,,,,,,,,,,,,,,,,,,,,,,,,,,,,,,,,,699.44777174099,699.4568005229958,700.4569522039965,701.4572827049997,701.4572827049997,701.4572827049997,702.2580156279873,left,0.784010445990134,None,,,,,,,,111000,001,2024-12-05_17h14.01.585,Test,2024.2.1,60.24091558940431,2024-12-05 17h15.50.833231 +0100,
70,150,180,15,None,68,68,0,True,,,,left,1.9859016000118572,None,,,,,,,,,,,,,0,68,68,68,702.272698042987,,,,,,,,,,,,,,,,,,,,,,,,,,,,,,,,,,,,,,,,,,,,,,,,,,,,,,,,,,,,,,,,,,,,,,,,,702.2635147189867,702.272698042987,703.2729501229915,704.2729602809995,704.2729602809995,704.2729602809995,706.2745388729963,left,1.9859016000118572,None,,,,,,,,111000,001,2024-12-05_17h14.01.585,Test,2024.2.1,60.24091558940431,2024-12-05 17h15.50.833231 +0100,
3,150,0,13,None,69,69,0,False,,,,left,1.168689814992831,None,,,,,,,,,,,,,0,69,69,69,706.2903402779921,,,,,,,,,,,,,,,,,,,,,,,,,,,,,,,,,,,,,,,,,,,,,,,,,,,,,,,,,,,,,,,,,,,,,,,,,706.2779685599962,706.2903402779921,707.290694351992,708.289894660993,708.289894660993,708.289894660993,709.4746286489972,left,1.168689814992831,None,,,,,,,,111000,001,2024-12-05_17h14.01.585,Test,2024.2.1,60.24091558940431,2024-12-05 17h15.50.833231 +0100,
,,,,,,,,,,,,,,,,,,,,,,,,,,,,,,,,,,,,,,,,,,,,,,,,,,,,,,,,,,,,,,,,,,,,,,,,,,,,,,,,,,,,,,,,,,,,,,,,,,,,,,,,,,,,,,,,,,709.4748368639994,709.4898134619871,709.4898134619871,711.5760262149997,space,2.0690770580113167,None,111000,001,2024-12-05_17h14.01.585,Test,2024.2.1,60.24091558940431,2024-12-05 17h15.50.833231 +0100,
