Trial_Number,Exposure_Duration,Displacement_Angle,Stimulus,Response,thisN,thisTrialN,thisRepN,Is_Distractor,key_resp_3.keys,key_resp_3.rt,key_resp_3.duration,key_resp_7.keys,key_resp_7.rt,key_resp_7.duration,trials.thisRepN,trials.thisTrialN,trials.thisN,trials.thisIndex,trials_2.thisRepN,trials_2.thisTrialN,trials_2.thisN,trials_2.thisIndex,trials_3.thisRepN,trials_3.thisTrialN,trials_3.thisN,trials_3.thisIndex,trials_4.thisRepN,trials_4.thisTrialN,trials_4.thisN,trials_4.thisIndex,thisRow.t,notes,Intro_to_experiment.started,important1_2.started,key_resp_8.started,Intro_to_experiment.stopped,key_resp_8.keys,key_resp_8.rt,key_resp_8.duration,important.started,important1.started,key_resp_4.started,important.stopped,key_resp_4.keys,key_resp_4.rt,key_resp_4.duration,instruction.started,text_7.started,key_resp_9.started,instruction.stopped,key_resp_9.keys,key_resp_9.rt,key_resp_9.duration,training_trial.started,cross.started,image.started,aperture.started,cross.stopped,image.stopped,aperture.stopped,training_trial.stopped,New_instruction.started,text.started,key_resp_2.started,New_instruction.stopped,key_resp_2.keys,key_resp_2.rt,key_resp_2.duration,test_trial.started,cross2.started,cross2.stopped,image_2.started,key_resp_3.started,aperture_2.started,test_trial.stopped,trials_2.key_resp_3.keys,trials_2.key_resp_3.rt,trials_2.key_resp_3.duration,image_2.stopped,text_3.started,aperture_2.stopped,start_blok_2.started,key_resp_5.started,text_4.started,start_blok_2.stopped,key_resp_5.keys,key_resp_5.rt,key_resp_5.duration,training_2.started,cross_2.started,image_3.started,aperture_3.started,cross_2.stopped,image_3.stopped,aperture_3.stopped,training_2.stopped,nyeste_instruks.started,text_5.started,key_resp_6.started,nyeste_instruks.stopped,key_resp_6.keys,key_resp_6.rt,key_resp_6.duration,test_2.started,cross2_2.started,cross2_2.stopped,image_4.started,key_resp_7.started,aperture_4.started,test_2.stopped,trials_4.key_resp_7.keys,trials_4.key_resp_7.rt,trials_4.key_resp_7.duration,image_4.stopped,aperture_4.stopped,text_6.started,Instruction1.started,Instruktion.started,key_resp.started,Instruction1.stopped,key_resp.keys,key_resp.rt,key_resp.duration,participant,session,date,expName,psychopyVersion,frameRate,expStart,
,,,,,,,,,,,,,,,,,,,,,,,,,,,,,,,,,0.013993661996209994,0.03187276699463837,0.03187276699463837,27.45844615799433,space,27.383396232005907,None,,,,,,,,,,,,,,,,,,,,,,,,,,,,,,,,,,,,,,,,,,,,,,,,,,,,,,,,,,,,,,,,,,,,,,,,,,,,,,,,,,,,,138014,001,2024-12-02_18h50.21.412,Test,2024.2.1,59.111100744435305,2024-12-02 18h50.39.568630 +0100,
,,,,,,,,,,,,,,,,,,,,,,,,,,,,,,,,,,,,,,,,27.458515566999267,27.47826412699942,27.47826412699942,50.01033408499643,space,22.521174762994633,None,,,,,,,,,,,,,,,,,,,,,,,,,,,,,,,,,,,,,,,,,,,,,,,,,,,,,,,,,,,,,,,,,,,,,,,,,,,,,,138014,001,2024-12-02_18h50.21.412,Test,2024.2.1,59.111100744435305,2024-12-02 18h50.39.568630 +0100,
,,,,,,,,,,,,,,,,,,,,,,,,,,,,,,,,,,,,,,,,,,,,,,,50.01040197000111,50.02507722299924,50.02507722299924,58.92927031900035,space,8.9021329610041,None,,,,,,,,,,,,,,,,,,,,,,,,,,,,,,,,,,,,,,,,,,,,,,,,,,,,,,,,,,,,,,,,,,,,,,,138014,001,2024-12-02_18h50.21.412,Test,2024.2.1,59.111100744435305,2024-12-02 18h50.39.568630 +0100,
5,150,0,40,None,0,0,0,,,,,,,,0,0,0,4,,,,,,,,,,,,,59.02179309100029,,,,,,,,,,,,,,,,,,,,,,,59.00993775900133,59.02179309100029,59.14273582500027,59.14273582500027,59.226364627000294,60.84373652199429,60.84373652199429,60.82732957999542,,,,,,,,,,,,,,,,,,,,,,,,,,,,,,,,,,,,,,,,,,,,,,,,,,,,,,,,,,,,,,,138014,001,2024-12-02_18h50.21.412,Test,2024.2.1,59.111100744435305,2024-12-02 18h50.39.568630 +0100,
7,150,30,59,None,1,1,0,,,,,,,,0,1,1,6,,,,,,,,,,,,,60.84373652199429,,,,,,,,,,,,,,,,,,,,,,,60.834998644000734,60.84373652199429,61.04312770699471,61.04312770699471,61.04312770699471,62.743766897998285,62.743766897998285,62.727232885001285,,,,,,,,,,,,,,,,,,,,,,,,,,,,,,,,,,,,,,,,,,,,,,,,,,,,,,,,,,,,,,,138014,001,2024-12-02_18h50.21.412,Test,2024.2.1,59.111100744435305,2024-12-02 18h50.39.568630 +0100,
2,150,0,64,None,2,2,0,,,,,,,,0,2,2,1,,,,,,,,,,,,,62.743766897998285,,,,,,,,,,,,,,,,,,,,,,,62.73330954999983,62.743766897998285,62.9437144600015,62.9437144600015,62.9437144600015,64.64329488499789,64.64329488499789,64.62774619099946,,,,,,,,,,,,,,,,,,,,,,,,,,,,,,,,,,,,,,,,,,,,,,,,,,,,,,,,,,,,,,,138014,001,2024-12-02_18h50.21.412,Test,2024.2.1,59.111100744435305,2024-12-02 18h50.39.568630 +0100,
15,150,60,6,None,3,3,0,,,,,,,,0,3,3,14,,,,,,,,,,,,,64.64329488499789,,,,,,,,,,,,,,,,,,,,,,,64.63468165999802,64.64329488499789,64.84338833999936,64.84338833999936,64.84338833999936,66.54295908399945,66.54295908399945,66.52765392099536,,,,,,,,,,,,,,,,,,,,,,,,,,,,,,,,,,,,,,,,,,,,,,,,,,,,,,,,,,,,,,,138014,001,2024-12-02_18h50.21.412,Test,2024.2.1,59.111100744435305,2024-12-02 18h50.39.568630 +0100,
14,150,60,49,None,4,4,0,,,,,,,,0,4,4,13,,,,,,,,,,,,,66.54295908399945,,,,,,,,,,,,,,,,,,,,,,,66.53351684800145,66.54295908399945,66.74318069600122,66.74318069600122,66.74318069600122,68.44310314999893,68.44310314999893,68.42755246899469,,,,,,,,,,,,,,,,,,,,,,,,,,,,,,,,,,,,,,,,,,,,,,,,,,,,,,,,,,,,,,,138014,001,2024-12-02_18h50.21.412,Test,2024.2.1,59.111100744435305,2024-12-02 18h50.39.568630 +0100,
9,150,30,5,None,5,5,0,,,,,,,,0,5,5,8,,,,,,,,,,,,,68.44310314999893,,,,,,,,,,,,,,,,,,,,,,,68.43394498099951,68.44310314999893,68.64383882599941,68.64383882599941,68.64383882599941,70.34418346899474,70.34418346899474,70.32782869899529,,,,,,,,,,,,,,,,,,,,,,,,,,,,,,,,,,,,,,,,,,,,,,,,,,,,,,,,,,,,,,,138014,001,2024-12-02_18h50.21.412,Test,2024.2.1,59.111100744435305,2024-12-02 18h50.39.568630 +0100,
16,150,90,56,None,6,6,0,,,,,,,,0,6,6,15,,,,,,,,,,,,,70.34418346899474,,,,,,,,,,,,,,,,,,,,,,,70.33613475099992,70.34418346899474,70.54376691599464,70.54376691599464,70.56032818400126,72.24348176700005,72.24348176700005,72.22790542699659,,,,,,,,,,,,,,,,,,,,,,,,,,,,,,,,,,,,,,,,,,,,,,,,,,,,,,,,,,,,,,,138014,001,2024-12-02_18h50.21.412,Test,2024.2.1,59.111100744435305,2024-12-02 18h50.39.568630 +0100,
3,150,0,30,None,7,7,0,,,,,,,,0,7,7,2,,,,,,,,,,,,,72.24348176700005,,,,,,,,,,,,,,,,,,,,,,,72.23367019600119,72.24348176700005,72.44387701099913,72.44387701099913,72.44387701099913,74.14418658999784,74.14418658999784,74.12837468499492,,,,,,,,,,,,,,,,,,,,,,,,,,,,,,,,,,,,,,,,,,,,,,,,,,,,,,,,,,,,,,,138014,001,2024-12-02_18h50.21.412,Test,2024.2.1,59.111100744435305,2024-12-02 18h50.39.568630 +0100,
11,150,60,8,None,8,8,0,,,,,,,,0,8,8,10,,,,,,,,,,,,,74.14418658999784,,,,,,,,,,,,,,,,,,,,,,,74.1350475559957,74.14418658999784,74.34413588699681,74.34413588699681,74.34413588699681,76.04415804900054,76.04415804900054,76.02806567999505,,,,,,,,,,,,,,,,,,,,,,,,,,,,,,,,,,,,,,,,,,,,,,,,,,,,,,,,,,,,,,,138014,001,2024-12-02_18h50.21.412,Test,2024.2.1,59.111100744435305,2024-12-02 18h50.39.568630 +0100,
33,150,180,60,None,9,9,0,,,,,,,,0,9,9,32,,,,,,,,,,,,,76.04415804900054,,,,,,,,,,,,,,,,,,,,,,,76.03371704500023,76.04415804900054,76.2441059049961,76.2441059049961,76.2441059049961,77.94442197700118,77.94442197700118,77.92854645999614,,,,,,,,,,,,,,,,,,,,,,,,,,,,,,,,,,,,,,,,,,,,,,,,,,,,,,,,,,,,,,,138014,001,2024-12-02_18h50.21.412,Test,2024.2.1,59.111100744435305,2024-12-02 18h50.39.568630 +0100,
27,150,150,31,None,10,10,0,,,,,,,,0,10,10,26,,,,,,,,,,,,,77.94442197700118,,,,,,,,,,,,,,,,,,,,,,,77.93451721200108,77.94442197700118,78.14477705599711,78.14477705599711,78.14477705599711,79.84386528499454,79.84386528499454,79.82906206999905,,,,,,,,,,,,,,,,,,,,,,,,,,,,,,,,,,,,,,,,,,,,,,,,,,,,,,,,,,,,,,,138014,001,2024-12-02_18h50.21.412,Test,2024.2.1,59.111100744435305,2024-12-02 18h50.39.568630 +0100,
18,150,90,7,None,11,11,0,,,,,,,,0,11,11,17,,,,,,,,,,,,,79.84386528499454,,,,,,,,,,,,,,,,,,,,,,,79.83475853900018,79.84386528499454,80.04507395299879,80.04507395299879,80.04507395299879,81.74459556800139,81.74459556800139,81.72901693300082,,,,,,,,,,,,,,,,,,,,,,,,,,,,,,,,,,,,,,,,,,,,,,,,,,,,,,,,,,,,,,,138014,001,2024-12-02_18h50.21.412,Test,2024.2.1,59.111100744435305,2024-12-02 18h50.39.568630 +0100,
24,150,120,26,None,12,12,0,,,,,,,,0,12,12,23,,,,,,,,,,,,,81.74459556800139,,,,,,,,,,,,,,,,,,,,,,,81.73469681799907,81.74459556800139,81.92879702999926,81.92879702999926,81.94529937599873,83.62817792599526,83.62817792599526,83.611968969999,,,,,,,,,,,,,,,,,,,,,,,,,,,,,,,,,,,,,,,,,,,,,,,,,,,,,,,,,,,,,,,138014,001,2024-12-02_18h50.21.412,Test,2024.2.1,59.111100744435305,2024-12-02 18h50.39.568630 +0100,
25,150,120,38,None,13,13,0,,,,,,,,0,13,13,24,,,,,,,,,,,,,83.62817792599526,,,,,,,,,,,,,,,,,,,,,,,83.61756649499875,83.6451157249976,83.82889074999548,83.82889074999548,83.84547284699511,85.52744870299648,85.52744870299648,85.51244769799814,,,,,,,,,,,,,,,,,,,,,,,,,,,,,,,,,,,,,,,,,,,,,,,,,,,,,,,,,,,,,,,138014,001,2024-12-02_18h50.21.412,Test,2024.2.1,59.111100744435305,2024-12-02 18h50.39.568630 +0100,
17,150,90,17,None,14,14,0,,,,,,,,0,14,14,16,,,,,,,,,,,,,85.52744870299648,,,,,,,,,,,,,,,,,,,,,,,85.51850030299829,85.52744870299648,85.74470858299901,85.74470858299901,85.72797026299668,87.44447773700085,87.44447773700085,87.42927986399445,,,,,,,,,,,,,,,,,,,,,,,,,,,,,,,,,,,,,,,,,,,,,,,,,,,,,,,,,,,,,,,138014,001,2024-12-02_18h50.21.412,Test,2024.2.1,59.111100744435305,2024-12-02 18h50.39.568630 +0100,
34,150,180,12,None,15,15,0,,,,,,,,0,15,15,33,,,,,,,,,,,,,87.44447773700085,,,,,,,,,,,,,,,,,,,,,,,87.43547484799637,87.44447773700085,87.62912323299679,87.62912323299679,87.64489219900133,89.32789869499538,89.32789869499538,89.31238297600066,,,,,,,,,,,,,,,,,,,,,,,,,,,,,,,,,,,,,,,,,,,,,,,,,,,,,,,,,,,,,,,138014,001,2024-12-02_18h50.21.412,Test,2024.2.1,59.111100744435305,2024-12-02 18h50.39.568630 +0100,
4,150,0,57,None,16,16,0,,,,,,,,0,16,16,3,,,,,,,,,,,,,89.32789869499538,,,,,,,,,,,,,,,,,,,,,,,89.3183902729943,89.34621184099524,89.52961459499784,89.52961459499784,89.54605440299929,,,91.24422999400122,,,,,,,,,,,,,,,,,,,,,,,,,,,,,,,,,,,,,,,,,,,,,,,,,,,,,,,,,,,,,,,138014,001,2024-12-02_18h50.21.412,Test,2024.2.1,59.111100744435305,2024-12-02 18h50.39.568630 +0100,
31,150,180,58,None,17,17,0,,,,,,,,0,17,17,30,,,,,,,,,,,,,91.2941714119952,,,,,,,,,,,,,,,,,,,,,,,91.25181707299635,91.2941714119952,91.4473175499952,91.4473175499952,91.49510749500041,,,93.14599319699482,,,,,,,,,,,,,,,,,,,,,,,,,,,,,,,,,,,,,,,,,,,,,,,,,,,,,,,,,,,,,,,138014,001,2024-12-02_18h50.21.412,Test,2024.2.1,59.111100744435305,2024-12-02 18h50.39.568630 +0100,
23,150,120,70,None,18,18,0,,,,,,,,0,18,18,22,,,,,,,,,,,,,93.16170275199693,,,,,,,,,,,,,,,,,,,,,,,93.15204034199996,93.16170275199693,93.32873018499959,93.32873018499959,93.36244583499501,95.02883806799946,95.02883806799946,95.01289015200018,,,,,,,,,,,,,,,,,,,,,,,,,,,,,,,,,,,,,,,,,,,,,,,,,,,,,,,,,,,,,,,138014,001,2024-12-02_18h50.21.412,Test,2024.2.1,59.111100744435305,2024-12-02 18h50.39.568630 +0100,
20,150,90,24,None,19,19,0,,,,,,,,0,19,19,19,,,,,,,,,,,,,95.02883806799946,,,,,,,,,,,,,,,,,,,,,,,95.01901741599431,95.02883806799946,95.22873275199527,95.22873275199527,95.22873275199527,96.92848604699975,96.92848604699975,96.91304166799819,,,,,,,,,,,,,,,,,,,,,,,,,,,,,,,,,,,,,,,,,,,,,,,,,,,,,,,,,,,,,,,138014,001,2024-12-02_18h50.21.412,Test,2024.2.1,59.111100744435305,2024-12-02 18h50.39.568630 +0100,
30,150,150,67,None,20,20,0,,,,,,,,0,20,20,29,,,,,,,,,,,,,96.92848604699975,,,,,,,,,,,,,,,,,,,,,,,96.91931656799716,96.92848604699975,97.1291498119972,97.1291498119972,97.1291498119972,98.8295534179997,98.8295534179997,98.81384856799559,,,,,,,,,,,,,,,,,,,,,,,,,,,,,,,,,,,,,,,,,,,,,,,,,,,,,,,,,,,,,,,138014,001,2024-12-02_18h50.21.412,Test,2024.2.1,59.111100744435305,2024-12-02 18h50.39.568630 +0100,
12,150,60,44,None,21,21,0,,,,,,,,0,21,21,11,,,,,,,,,,,,,98.8295534179997,,,,,,,,,,,,,,,,,,,,,,,98.82184132299881,98.8295534179997,99.02927305499907,99.02927305499907,99.02927305499907,100.72838498200144,100.72838498200144,100.71319093499915,,,,,,,,,,,,,,,,,,,,,,,,,,,,,,,,,,,,,,,,,,,,,,,,,,,,,,,,,,,,,,,138014,001,2024-12-02_18h50.21.412,Test,2024.2.1,59.111100744435305,2024-12-02 18h50.39.568630 +0100,
22,150,120,36,None,22,22,0,,,,,,,,0,22,22,21,,,,,,,,,,,,,100.72838498200144,,,,,,,,,,,,,,,,,,,,,,,100.71897347599588,100.72838498200144,100.93009358099516,100.93009358099516,100.93009358099516,102.63366894299543,102.63366894299543,102.61447018299805,,,,,,,,,,,,,,,,,,,,,,,,,,,,,,,,,,,,,,,,,,,,,,,,,,,,,,,,,,,,,,,138014,001,2024-12-02_18h50.21.412,Test,2024.2.1,59.111100744435305,2024-12-02 18h50.39.568630 +0100,
8,150,30,43,None,23,23,0,,,,,,,,0,23,23,7,,,,,,,,,,,,,102.63366894299543,,,,,,,,,,,,,,,,,,,,,,,102.62662464800087,102.63366894299543,102.8296683410008,102.8296683410008,102.84656745800021,104.52915771400149,104.52915771400149,104.51329992099636,,,,,,,,,,,,,,,,,,,,,,,,,,,,,,,,,,,,,,,,,,,,,,,,,,,,,,,,,,,,,,,138014,001,2024-12-02_18h50.21.412,Test,2024.2.1,59.111100744435305,2024-12-02 18h50.39.568630 +0100,
21,150,120,52,None,24,24,0,,,,,,,,0,24,24,20,,,,,,,,,,,,,104.52915771400149,,,,,,,,,,,,,,,,,,,,,,,104.51918255099736,104.52915771400149,104.72950707799464,104.72950707799464,104.72950707799464,106.43263611599832,106.43263611599832,106.41480885200144,,,,,,,,,,,,,,,,,,,,,,,,,,,,,,,,,,,,,,,,,,,,,,,,,,,,,,,,,,,,,,,138014,001,2024-12-02_18h50.21.412,Test,2024.2.1,59.111100744435305,2024-12-02 18h50.39.568630 +0100,
13,150,60,29,None,25,25,0,,,,,,,,0,25,25,12,,,,,,,,,,,,,106.43263611599832,,,,,,,,,,,,,,,,,,,,,,,106.42476466299559,106.43263611599832,106.63033965399518,106.63033965399518,106.6472130369948,108.3330532339969,108.3330532339969,108.31486082400079,,,,,,,,,,,,,,,,,,,,,,,,,,,,,,,,,,,,,,,,,,,,,,,,,,,,,,,,,,,,,,,138014,001,2024-12-02_18h50.21.412,Test,2024.2.1,59.111100744435305,2024-12-02 18h50.39.568630 +0100,
26,150,150,53,None,26,26,0,,,,,,,,0,26,26,25,,,,,,,,,,,,,108.3330532339969,,,,,,,,,,,,,,,,,,,,,,,108.32481371700123,108.3330532339969,108.53020268399996,108.53020268399996,108.54686769699765,110.22932653399766,110.22932653399766,110.21437651399901,,,,,,,,,,,,,,,,,,,,,,,,,,,,,,,,,,,,,,,,,,,,,,,,,,,,,,,,,,,,,,,138014,001,2024-12-02_18h50.21.412,Test,2024.2.1,59.111100744435305,2024-12-02 18h50.39.568630 +0100,
19,150,90,33,None,27,27,0,,,,,,,,0,27,27,18,,,,,,,,,,,,,110.22932653399766,,,,,,,,,,,,,,,,,,,,,,,110.2202625189966,110.22932653399766,110.43009778399573,110.43009778399573,110.43009778399573,112.12989716999436,112.12989716999436,112.11456398999871,,,,,,,,,,,,,,,,,,,,,,,,,,,,,,,,,,,,,,,,,,,,,,,,,,,,,,,,,,,,,,,138014,001,2024-12-02_18h50.21.412,Test,2024.2.1,59.111100744435305,2024-12-02 18h50.39.568630 +0100,
35,150,180,69,None,28,28,0,,,,,,,,0,28,28,34,,,,,,,,,,,,,112.12989716999436,,,,,,,,,,,,,,,,,,,,,,,112.12174355999741,112.12989716999436,112.33046134699543,112.33046134699543,112.33046134699543,114.02992802299559,114.02992802299559,114.01464065999608,,,,,,,,,,,,,,,,,,,,,,,,,,,,,,,,,,,,,,,,,,,,,,,,,,,,,,,,,,,,,,,138014,001,2024-12-02_18h50.21.412,Test,2024.2.1,59.111100744435305,2024-12-02 18h50.39.568630 +0100,
28,150,150,46,None,29,29,0,,,,,,,,0,29,29,27,,,,,,,,,,,,,114.02992802299559,,,,,,,,,,,,,,,,,,,,,,,114.02163382199797,114.02992802299559,114.23052617199573,114.23052617199573,114.23052617199573,115.93019209199701,115.93019209199701,115.91418151999824,,,,,,,,,,,,,,,,,,,,,,,,,,,,,,,,,,,,,,,,,,,,,,,,,,,,,,,,,,,,,,,138014,001,2024-12-02_18h50.21.412,Test,2024.2.1,59.111100744435305,2024-12-02 18h50.39.568630 +0100,
32,150,180,23,None,30,30,0,,,,,,,,0,30,30,31,,,,,,,,,,,,,115.93019209199701,,,,,,,,,,,,,,,,,,,,,,,115.91913908699644,115.93019209199701,116.13000394499977,116.13000394499977,116.13000394499977,117.82981619099883,117.82981619099883,117.81441546599672,,,,,,,,,,,,,,,,,,,,,,,,,,,,,,,,,,,,,,,,,,,,,,,,,,,,,,,,,,,,,,,138014,001,2024-12-02_18h50.21.412,Test,2024.2.1,59.111100744435305,2024-12-02 18h50.39.568630 +0100,
29,150,150,45,None,31,31,0,,,,,,,,0,31,31,28,,,,,,,,,,,,,117.82981619099883,,,,,,,,,,,,,,,,,,,,,,,117.8204222639979,117.82981619099883,118.03035568099585,118.03035568099585,118.03035568099585,119.73005403600109,119.73005403600109,119.71444585299469,,,,,,,,,,,,,,,,,,,,,,,,,,,,,,,,,,,,,,,,,,,,,,,,,,,,,,,,,,,,,,,138014,001,2024-12-02_18h50.21.412,Test,2024.2.1,59.111100744435305,2024-12-02 18h50.39.568630 +0100,
10,150,30,27,None,32,32,0,,,,,,,,0,32,32,9,,,,,,,,,,,,,119.73005403600109,,,,,,,,,,,,,,,,,,,,,,,119.72131895499479,119.73005403600109,119.93042736400093,119.93042736400093,119.93042736400093,121.63080893699953,121.63080893699953,121.61477593399468,,,,,,,,,,,,,,,,,,,,,,,,,,,,,,,,,,,,,,,,,,,,,,,,,,,,,,,,,,,,,,,138014,001,2024-12-02_18h50.21.412,Test,2024.2.1,59.111100744435305,2024-12-02 18h50.39.568630 +0100,
6,150,30,55,None,33,33,0,,,,,,,,0,33,33,5,,,,,,,,,,,,,121.63080893699953,,,,,,,,,,,,,,,,,,,,,,,121.62281429900031,121.63080893699953,121.8309538359972,121.8309538359972,121.8309538359972,123.53513759599446,123.53513759599446,123.51594632300112,,,,,,,,,,,,,,,,,,,,,,,,,,,,,,,,,,,,,,,,,,,,,,,,,,,,,,,,,,,,,,,138014,001,2024-12-02_18h50.21.412,Test,2024.2.1,59.111100744435305,2024-12-02 18h50.39.568630 +0100,
1,150,0,65,None,34,34,0,,,,,,,,0,34,34,0,,,,,,,,,,,,,123.53513759599446,,,,,,,,,,,,,,,,,,,,,,,123.52740896600153,123.53513759599446,123.73115564700129,123.73115564700129,123.74728778399731,125.43103465400054,125.43103465400054,125.41470734099858,,,,,,,,,,,,,,,,,,,,,,,,,,,,,,,,,,,,,,,,,,,,,,,,,,,,,,,,,,,,,,,138014,001,2024-12-02_18h50.21.412,Test,2024.2.1,59.111100744435305,2024-12-02 18h50.39.568630 +0100,
,,,,,,,,,,,,,,,,,,,,,,,,,,,,,,,,,,,,,,,,,,,,,,,,,,,,,,,,,,,,,,125.41487196600065,125.43103465400054,125.43103465400054,136.81626794999465,space,11.368342579000455,None,,,,,,,,,,,,,,,,,,,,,,,,,,,,,,,,,,,,,,,,,,,,,,,,,,,,,,,,138014,001,2024-12-02_18h50.21.412,Test,2024.2.1,59.111100744435305,2024-12-02 18h50.39.568630 +0100,
42,150,30,48,None,0,0,0,True,left,1.4183290670043789,None,,,,,,,,0,0,0,0,,,,,,,,,136.8440992629985,,,,,,,,,,,,,,,,,,,,,,,,,,,,,,,,,,,,,,136.83648444099526,136.8440992629985,137.84865535100107,138.83197750399995,138.83197750399995,138.83197750399995,140.26738474900048,left,1.4183290670043789,None,,,,,,,,,,,,,,,,,,,,,,,,,,,,,,,,,,,,,,,,,,,,,,138014,001,2024-12-02_18h50.21.412,Test,2024.2.1,59.111100744435305,2024-12-02 18h50.39.568630 +0100,
7,150,30,59,None,1,1,0,False,right,0.9591290870012017,None,,,,,,,,0,1,1,1,,,,,,,,,140.31234554799448,,,,,,,,,,,,,,,,,,,,,,,,,,,,,,,,,,,,,,140.2733681009995,140.31234554799448,141.31540439899982,142.2822487759986,142.2822487759986,142.2822487759986,143.24959889699676,right,0.9591290870012017,None,,,,,,,,,,,,,,,,,,,,,,,,,,,,,,,,,,,,,,,,,,,,,,138014,001,2024-12-02_18h50.21.412,Test,2024.2.1,59.111100744435305,2024-12-02 18h50.39.568630 +0100,
65,150,150,4,None,2,2,0,True,right,0.6553536869978416,None,,,,,,,,0,2,2,2,,,,,,,,,143.2657245570008,,,,,,,,,,,,,,,,,,,,,,,,,,,,,,,,,,,,,,143.25503073699656,143.2657245570008,144.2663157040006,145.2492613899958,145.2492613899958,145.2492613899958,145.91658956799802,right,0.6553536869978416,None,,,,,,,,,,,,,,,,,,,,,,,,,,,,,,,,,,,,,,,,,,,,,,138014,001,2024-12-02_18h50.21.412,Test,2024.2.1,59.111100744435305,2024-12-02 18h50.39.568630 +0100,
14,150,60,49,None,3,3,0,False,right,0.8570415630019852,None,,,,,,,,0,3,3,3,,,,,,,,,145.93243475399504,,,,,,,,,,,,,,,,,,,,,,,,,,,,,,,,,,,,,,145.92224770799658,145.93243475399504,146.93234404199757,147.93242287699832,147.93242287699832,147.93242287699832,148.80124063699623,right,0.8570415630019852,None,,,,,,,,,,,,,,,,,,,,,,,,,,,,,,,,,,,,,,,,,,,,,,138014,001,2024-12-02_18h50.21.412,Test,2024.2.1,59.111100744435305,2024-12-02 18h50.39.568630 +0100,
10,150,30,27,None,4,4,0,False,right,0.7300769279972883,None,,,,,,,,0,4,4,4,,,,,,,,,148.81623577099526,,,,,,,,,,,,,,,,,,,,,,,,,,,,,,,,,,,,,,148.80700575099763,148.81623577099526,149.81579021200014,150.81641788999696,150.81641788999696,150.81641788999696,151.55167497699586,right,0.7300769279972883,None,,,,,,,,,,,,,,,,,,,,,,,,,,,,,,,,,,,,,,,,,,,,,,138014,001,2024-12-02_18h50.21.412,Test,2024.2.1,59.111100744435305,2024-12-02 18h50.39.568630 +0100,
17,150,90,17,None,5,5,0,False,right,1.831729293000535,None,,,,,,,,0,5,5,5,,,,,,,,,151.56617735100008,,,,,,,,,,,,,,,,,,,,,,,,,,,,,,,,,,,,,,151.55767177500093,151.56617735100008,152.56607731899567,153.5664640429968,153.5664640429968,153.5664640429968,155.40243322799506,right,1.831729293000535,None,,,,,,,,,,,,,,,,,,,,,,,,,,,,,,,,,,,,,,,,,,,,,,138014,001,2024-12-02_18h50.21.412,Test,2024.2.1,59.111100744435305,2024-12-02 18h50.39.568630 +0100,
57,150,120,19,None,6,6,0,True,right,2.1746006539979135,None,,,,,,,,0,6,6,6,,,,,,,,,155.41726013000152,,,,,,,,,,,,,,,,,,,,,,,,,,,,,,,,,,,,,,155.40849258600065,155.41726013000152,156.41621461099567,157.41633412100055,157.41633412100055,157.41633412100055,159.60135011500097,right,2.1746006539979135,None,,,,,,,,,,,,,,,,,,,,,,,,,,,,,,,,,,,,,,,,,,,,,,138014,001,2024-12-02_18h50.21.412,Test,2024.2.1,59.111100744435305,2024-12-02 18h50.39.568630 +0100,
16,150,90,56,None,7,7,0,False,right,1.7702714460028801,None,,,,,,,,0,7,7,7,,,,,,,,,159.61808567599655,,,,,,,,,,,,,,,,,,,,,,,,,,,,,,,,,,,,,,159.60858504699718,159.61808567599655,160.63325535100012,161.6160678429951,161.6160678429951,161.6160678429951,163.40235958699486,right,1.7702714460028801,None,,,,,,,,,,,,,,,,,,,,,,,,,,,,,,,,,,,,,,,,,,,,,,138014,001,2024-12-02_18h50.21.412,Test,2024.2.1,59.111100744435305,2024-12-02 18h50.39.568630 +0100,
11,150,60,8,None,8,8,0,False,right,1.2170354109985055,None,,,,,,,,0,8,8,8,,,,,,,,,163.41739998299454,,,,,,,,,,,,,,,,,,,,,,,,,,,,,,,,,,,,,,163.4085758000001,163.41739998299454,164.41707933399448,165.41804545700143,165.41804545700143,165.41804545700143,166.6523119859994,right,1.2170354109985055,None,,,,,,,,,,,,,,,,,,,,,,,,,,,,,,,,,,,,,,,,,,,,,,138014,001,2024-12-02_18h50.21.412,Test,2024.2.1,59.111100744435305,2024-12-02 18h50.39.568630 +0100,
25,150,120,38,None,9,9,0,False,left,1.1582499540018034,None,,,,,,,,0,9,9,9,,,,,,,,,166.66691892100062,,,,,,,,,,,,,,,,,,,,,,,,,,,,,,,,,,,,,,166.65808571499656,166.66691892100062,167.6680228519981,168.66769518699584,168.66769518699584,168.66769518699584,169.8345748089996,left,1.1582499540018034,None,,,,,,,,,,,,,,,,,,,,,,,,,,,,,,,,,,,,,,,,,,,,,,138014,001,2024-12-02_18h50.21.412,Test,2024.2.1,59.111100744435305,2024-12-02 18h50.39.568630 +0100,
53,150,90,41,None,10,10,0,True,left,0.86949858799926,None,,,,,,,,0,10,10,10,,,,,,,,,169.85001063800155,,,,,,,,,,,,,,,,,,,,,,,,,,,,,,,,,,,,,,169.83986520199687,169.85001063800155,170.85103225099738,171.83439141499548,171.83439141499548,171.83439141499548,172.71917300999485,left,0.86949858799926,None,,,,,,,,,,,,,,,,,,,,,,,,,,,,,,,,,,,,,,,,,,,,,,138014,001,2024-12-02_18h50.21.412,Test,2024.2.1,59.111100744435305,2024-12-02 18h50.39.568630 +0100,
26,150,150,53,None,11,11,0,False,left,1.5885188469983405,None,,,,,,,,0,11,11,11,,,,,,,,,172.73412897499657,,,,,,,,,,,,,,,,,,,,,,,,,,,,,,,,,,,,,,172.72483821799688,172.73412897499657,173.73413544399955,174.73483139900054,174.73483139900054,174.73483139900054,176.3364950049945,left,1.5885188469983405,None,,,,,,,,,,,,,,,,,,,,,,,,,,,,,,,,,,,,,,,,,,,,,,138014,001,2024-12-02_18h50.21.412,Test,2024.2.1,59.111100744435305,2024-12-02 18h50.39.568630 +0100,
18,150,90,7,None,12,12,0,False,right,0.7093690620022244,None,,,,,,,,0,12,12,12,,,,,,,,,176.3510073590005,,,,,,,,,,,,,,,,,,,,,,,,,,,,,,,,,,,,,,176.34208870099974,176.3510073590005,177.35101117700106,178.3517311609976,178.3517311609976,178.3517311609976,179.06910922099632,right,0.7093690620022244,None,,,,,,,,,,,,,,,,,,,,,,,,,,,,,,,,,,,,,,,,,,,,,,138014,001,2024-12-02_18h50.21.412,Test,2024.2.1,59.111100744435305,2024-12-02 18h50.39.568630 +0100,
3,150,0,30,None,13,13,0,False,right,0.7011421830029576,None,,,,,,,,0,13,13,13,,,,,,,,,179.08474182299688,,,,,,,,,,,,,,,,,,,,,,,,,,,,,,,,,,,,,,179.07578586999443,179.08474182299688,180.0851761160011,181.06778702399606,181.06778702399606,181.06778702399606,181.78677815699484,right,0.7011421830029576,None,,,,,,,,,,,,,,,,,,,,,,,,,,,,,,,,,,,,,,,,,,,,,,138014,001,2024-12-02_18h50.21.412,Test,2024.2.1,59.111100744435305,2024-12-02 18h50.39.568630 +0100,
40,150,0,22,None,14,14,0,True,left,0.950273237998772,None,,,,,,,,0,14,14,14,,,,,,,,,181.80402455700096,,,,,,,,,,,,,,,,,,,,,,,,,,,,,,,,,,,,,,181.7953048959971,181.80402455700096,182.81810636499722,183.80150719399535,183.80150719399535,183.80150719399535,184.75452104799479,left,0.950273237998772,None,,,,,,,,,,,,,,,,,,,,,,,,,,,,,,,,,,,,,,,,,,,,,,138014,001,2024-12-02_18h50.21.412,Test,2024.2.1,59.111100744435305,2024-12-02 18h50.39.568630 +0100,
28,150,150,46,None,15,15,0,False,right,2.942611673999636,None,,,,,,,,0,15,15,15,,,,,,,,,184.7708599549951,,,,,,,,,,,,,,,,,,,,,,,,,,,,,,,,,,,,,,184.76226574799512,184.7708599549951,185.78495701799693,186.76874936199602,186.76874936199602,186.76874936199602,189.71980154299672,right,2.942611673999636,None,,,,,,,,,,,,,,,,,,,,,,,,,,,,,,,,,,,,,,,,,,,,,,138014,001,2024-12-02_18h50.21.412,Test,2024.2.1,59.111100744435305,2024-12-02 18h50.39.568630 +0100,
29,150,150,45,None,16,16,0,False,left,1.7719412540027406,None,,,,,,,,0,16,16,16,,,,,,,,,189.73480279700016,,,,,,,,,,,,,,,,,,,,,,,,,,,,,,,,,,,,,,189.72548817999632,189.73480279700016,190.73536348299967,191.71897704099683,191.71897704099683,191.71897704099683,193.5060554570009,left,1.7719412540027406,None,,,,,,,,,,,,,,,,,,,,,,,,,,,,,,,,,,,,,,,,,,,,,,138014,001,2024-12-02_18h50.21.412,Test,2024.2.1,59.111100744435305,2024-12-02 18h50.39.568630 +0100,
22,150,120,36,None,17,17,0,False,right,0.9235699929995462,None,,,,,,,,0,17,17,17,,,,,,,,,193.52219364699704,,,,,,,,,,,,,,,,,,,,,,,,,,,,,,,,,,,,,,193.51358832499682,193.52219364699704,194.53594637900096,195.5190918609951,195.5190918609951,195.5190918609951,196.45338980700035,right,0.9235699929995462,None,,,,,,,,,,,,,,,,,,,,,,,,,,,,,,,,,,,,,,,,,,,,,,138014,001,2024-12-02_18h50.21.412,Test,2024.2.1,59.111100744435305,2024-12-02 18h50.39.568630 +0100,
47,150,60,50,None,18,18,0,True,left,1.2518389859978925,None,,,,,,,,0,18,18,18,,,,,,,,,196.468667137,,,,,,,,,,,,,,,,,,,,,,,,,,,,,,,,,,,,,,196.4591210849976,196.468667137,197.46927618599875,198.4688171279995,198.4688171279995,198.4688171279995,199.73787888699735,left,1.2518389859978925,None,,,,,,,,,,,,,,,,,,,,,,,,,,,,,,,,,,,,,,,,,,,,,,138014,001,2024-12-02_18h50.21.412,Test,2024.2.1,59.111100744435305,2024-12-02 18h50.39.568630 +0100,
41,150,30,68,None,19,19,0,True,left,4.409310130999074,None,,,,,,,,0,19,19,19,,,,,,,,,199.7533397820007,,,,,,,,,,,,,,,,,,,,,,,,,,,,,,,,,,,,,,199.74338255899784,199.7533397820007,200.75300838999829,201.75284562199522,201.75284562199522,201.75284562199522,206.1712992709945,left,4.409310130999074,None,204.75312361199758,204.75312361199758,204.75312361199758,,,,,,,,,,,,,,,,,,,,,,,,,,,,,,,,,,,,,,,,,,,138014,001,2024-12-02_18h50.21.412,Test,2024.2.1,59.111100744435305,2024-12-02 18h50.39.568630 +0100,
35,150,180,69,None,20,20,0,False,right,1.3697341910010437,None,,,,,,,,0,20,20,20,,,,,,,,,206.186719350997,,,,,,,,,,,,,,,,,,,,,,,,,,,,,,,,,,,,,,206.17717590100074,206.186719350997,207.18698783099535,208.1888667999956,208.1888667999956,208.1888667999956,209.57154203100072,right,1.3697341910010437,None,,,,,,,,,,,,,,,,,,,,,,,,,,,,,,,,,,,,,,,,,,,,,,138014,001,2024-12-02_18h50.21.412,Test,2024.2.1,59.111100744435305,2024-12-02 18h50.39.568630 +0100,
37,150,0,61,None,21,21,0,True,left,2.0269386270010727,None,,,,,,,,0,21,21,21,,,,,,,,,209.58907432799606,,,,,,,,,,,,,,,,,,,,,,,,,,,,,,,,,,,,,,209.57944885799952,209.58907432799606,210.60333858100057,211.58726643800037,211.58726643800037,211.58726643800037,213.62190361199464,left,2.0269386270010727,None,,,,,,,,,,,,,,,,,,,,,,,,,,,,,,,,,,,,,,,,,,,,,,138014,001,2024-12-02_18h50.21.412,Test,2024.2.1,59.111100744435305,2024-12-02 18h50.39.568630 +0100,
63,150,150,37,None,22,22,0,True,left,1.1183006999999634,None,,,,,,,,0,22,22,22,,,,,,,,,213.63809635600046,,,,,,,,,,,,,,,,,,,,,,,,,,,,,,,,,,,,,,213.6292555359978,213.63809635600046,214.6535594809975,215.6372692119985,215.6372692119985,215.6372692119985,216.77250382399507,left,1.1183006999999634,None,,,,,,,,,,,,,,,,,,,,,,,,,,,,,,,,,,,,,,,,,,,,,,138014,001,2024-12-02_18h50.21.412,Test,2024.2.1,59.111100744435305,2024-12-02 18h50.39.568630 +0100,
13,150,60,29,None,23,23,0,False,right,1.9610282170033315,None,,,,,,,,0,23,23,23,,,,,,,,,216.78681115599466,,,,,,,,,,,,,,,,,,,,,,,,,,,,,,,,,,,,,,216.7778996470006,216.78681115599466,217.78806944900134,218.78791980700043,218.78791980700043,218.78791980700043,220.75617367299856,right,1.9610282170033315,None,,,,,,,,,,,,,,,,,,,,,,,,,,,,,,,,,,,,,,,,,,,,,,138014,001,2024-12-02_18h50.21.412,Test,2024.2.1,59.111100744435305,2024-12-02 18h50.39.568630 +0100,
49,150,60,39,None,24,24,0,True,left,1.0051514500009944,None,,,,,,,,0,24,24,24,,,,,,,,,220.77136727800098,,,,,,,,,,,,,,,,,,,,,,,,,,,,,,,,,,,,,,220.7622337799985,220.77136727800098,221.77070887800073,222.77124644199648,222.77124644199648,222.77124644199648,223.78983904099732,left,1.0051514500009944,None,,,,,,,,,,,,,,,,,,,,,,,,,,,,,,,,,,,,,,,,,,,,,,138014,001,2024-12-02_18h50.21.412,Test,2024.2.1,59.111100744435305,2024-12-02 18h50.39.568630 +0100,
36,150,0,3,None,25,25,0,True,left,1.7502821529997163,None,,,,,,,,0,25,25,25,,,,,,,,,223.80479277500126,,,,,,,,,,,,,,,,,,,,,,,,,,,,,,,,,,,,,,223.79572960500082,223.80479277500126,224.8046415429999,225.80488809500093,225.80488809500093,225.80488809500093,227.55757207599527,left,1.7502821529997163,None,,,,,,,,,,,,,,,,,,,,,,,,,,,,,,,,,,,,,,,,,,,,,,138014,001,2024-12-02_18h50.21.412,Test,2024.2.1,59.111100744435305,2024-12-02 18h50.39.568630 +0100,
60,150,120,34,None,26,26,0,True,right,2.4744791470002383,None,,,,,,,,0,26,26,26,,,,,,,,,227.58086161399842,,,,,,,,,,,,,,,,,,,,,,,,,,,,,,,,,,,,,,227.57175301900133,227.58086161399842,228.58813643799658,229.57270759200037,229.57270759200037,229.57270759200037,232.0569368159995,right,2.4744791470002383,None,,,,,,,,,,,,,,,,,,,,,,,,,,,,,,,,,,,,,,,,,,,,,,138014,001,2024-12-02_18h50.21.412,Test,2024.2.1,59.111100744435305,2024-12-02 18h50.39.568630 +0100,
51,150,90,15,None,27,27,0,True,right,1.1982722279935842,None,,,,,,,,0,27,27,27,,,,,,,,,232.07404790799774,,,,,,,,,,,,,,,,,,,,,,,,,,,,,,,,,,,,,,232.06464859400148,232.07404790799774,233.0887290009996,234.07169234100002,234.07169234100002,234.07169234100002,235.27450739799679,right,1.1982722279935842,None,,,,,,,,,,,,,,,,,,,,,,,,,,,,,,,,,,,,,,,,,,,,,,138014,001,2024-12-02_18h50.21.412,Test,2024.2.1,59.111100744435305,2024-12-02 18h50.39.568630 +0100,
62,150,150,25,None,28,28,0,True,right,1.0563127319983323,None,,,,,,,,0,28,28,28,,,,,,,,,235.28976596499706,,,,,,,,,,,,,,,,,,,,,,,,,,,,,,,,,,,,,,235.2808542069979,235.28976596499706,236.30508457499673,237.28845411899965,237.28845411899965,237.28845411899965,238.35646621100022,right,1.0563127319983323,None,,,,,,,,,,,,,,,,,,,,,,,,,,,,,,,,,,,,,,,,,,,,,,138014,001,2024-12-02_18h50.21.412,Test,2024.2.1,59.111100744435305,2024-12-02 18h50.39.568630 +0100,
27,150,150,31,None,29,29,0,False,left,1.0554678940025042,None,,,,,,,,0,29,29,29,,,,,,,,,238.3713094699997,,,,,,,,,,,,,,,,,,,,,,,,,,,,,,,,,,,,,,238.36193881800136,238.3713094699997,239.3719796919977,240.3720728479966,240.3720728479966,240.3720728479966,241.44149158399523,left,1.0554678940025042,None,,,,,,,,,,,,,,,,,,,,,,,,,,,,,,,,,,,,,,,,,,,,,,138014,001,2024-12-02_18h50.21.412,Test,2024.2.1,59.111100744435305,2024-12-02 18h50.39.568630 +0100,
46,150,60,14,None,30,30,0,True,left,1.023016222003207,None,,,,,,,,0,30,30,30,,,,,,,,,241.4568306000001,,,,,,,,,,,,,,,,,,,,,,,,,,,,,,,,,,,,,,241.44758584699593,241.4568306000001,242.45580987799622,243.4561474259972,243.4561474259972,243.4561474259972,244.49025818600057,left,1.023016222003207,None,,,,,,,,,,,,,,,,,,,,,,,,,,,,,,,,,,,,,,,,,,,,,,138014,001,2024-12-02_18h50.21.412,Test,2024.2.1,59.111100744435305,2024-12-02 18h50.39.568630 +0100,
67,150,180,62,None,31,31,0,True,left,0.9936249989987118,None,,,,,,,,0,31,31,31,,,,,,,,,244.5065147829955,,,,,,,,,,,,,,,,,,,,,,,,,,,,,,,,,,,,,,244.4972326279967,244.5065147829955,245.50579301799735,246.49016767599824,246.49016767599824,246.49016767599824,247.4907480030015,left,0.9936249989987118,None,,,,,,,,,,,,,,,,,,,,,,,,,,,,,,,,,,,,,,,,,,,,,,138014,001,2024-12-02_18h50.21.412,Test,2024.2.1,59.111100744435305,2024-12-02 18h50.39.568630 +0100,
68,150,180,9,None,32,32,0,True,left,0.9166940319992136,None,,,,,,,,0,32,32,32,,,,,,,,,247.50563387999864,,,,,,,,,,,,,,,,,,,,,,,,,,,,,,,,,,,,,,247.49632771199686,247.50563387999864,248.50579220899817,249.50599490699824,249.50599490699824,249.50599490699824,250.425427614995,left,0.9166940319992136,None,,,,,,,,,,,,,,,,,,,,,,,,,,,,,,,,,,,,,,,,,,,,,,138014,001,2024-12-02_18h50.21.412,Test,2024.2.1,59.111100744435305,2024-12-02 18h50.39.568630 +0100,
43,150,30,51,None,33,33,0,True,left,0.7955285529969842,None,,,,,,,,0,33,33,33,,,,,,,,,250.44172418199742,,,,,,,,,,,,,,,,,,,,,,,,,,,,,,,,,,,,,,250.4329661629963,250.44172418199742,251.45588761199906,252.43941617199744,252.43941617199744,252.43941617199744,253.24120910299825,left,0.7955285529969842,None,,,,,,,,,,,,,,,,,,,,,,,,,,,,,,,,,,,,,,,,,,,,,,138014,001,2024-12-02_18h50.21.412,Test,2024.2.1,59.111100744435305,2024-12-02 18h50.39.568630 +0100,
56,150,120,54,None,34,34,0,True,left,1.1763660669967066,None,,,,,,,,0,34,34,34,,,,,,,,,253.25668777900137,,,,,,,,,,,,,,,,,,,,,,,,,,,,,,,,,,,,,,253.24691735899978,253.25668777900137,254.25617831399722,255.25642156699905,255.25642156699905,255.25642156699905,256.44245549499465,left,1.1763660669967066,None,,,,,,,,,,,,,,,,,,,,,,,,,,,,,,,,,,,,,,,,,,,,,,138014,001,2024-12-02_18h50.21.412,Test,2024.2.1,59.111100744435305,2024-12-02 18h50.39.568630 +0100,
38,150,0,21,None,35,35,0,True,right,5.652247874997556,None,,,,,,,,0,35,35,35,,,,,,,,,256.4562417470006,,,,,,,,,,,,,,,,,,,,,,,,,,,,,,,,,,,,,,256.4477172420011,256.4562417470006,257.4560311269961,258.45684070899733,258.45684070899733,258.45684070899733,264.12599770799716,right,5.652247874997556,None,261.4570416829956,261.4570416829956,261.4570416829956,,,,,,,,,,,,,,,,,,,,,,,,,,,,,,,,,,,,,,,,,,,138014,001,2024-12-02_18h50.21.412,Test,2024.2.1,59.111100744435305,2024-12-02 18h50.39.568630 +0100,
59,150,120,47,None,36,36,0,True,right,2.8289530300025945,None,,,,,,,,0,36,36,36,,,,,,,,,264.1553220220012,,,,,,,,,,,,,,,,,,,,,,,,,,,,,,,,,,,,,,264.1332484739978,264.1553220220012,265.15662094800064,266.1401385939971,266.1401385939971,266.1401385939971,268.97613881199504,right,2.8289530300025945,None,,,,,,,,,,,,,,,,,,,,,,,,,,,,,,,,,,,,,,,,,,,,,,138014,001,2024-12-02_18h50.21.412,Test,2024.2.1,59.111100744435305,2024-12-02 18h50.39.568630 +0100,
20,150,90,24,None,37,37,0,False,right,1.0088249949985766,None,,,,,,,,0,37,37,37,,,,,,,,,268.9911008159979,,,,,,,,,,,,,,,,,,,,,,,,,,,,,,,,,,,,,,268.9811576629945,268.9911008159979,269.9903274919998,270.99027711500094,270.99027711500094,270.99027711500094,272.00866285899974,right,1.0088249949985766,None,,,,,,,,,,,,,,,,,,,,,,,,,,,,,,,,,,,,,,,,,,,,,,138014,001,2024-12-02_18h50.21.412,Test,2024.2.1,59.111100744435305,2024-12-02 18h50.39.568630 +0100,
31,150,180,58,None,38,38,0,False,left,2.321424019995902,None,,,,,,,,0,38,38,38,,,,,,,,,272.0238932619977,,,,,,,,,,,,,,,,,,,,,,,,,,,,,,,,,,,,,,272.0141485549975,272.0238932619977,273.0236996189997,274.02404273700085,274.02404273700085,274.02404273700085,276.3592799659964,left,2.321424019995902,None,,,,,,,,,,,,,,,,,,,,,,,,,,,,,,,,,,,,,,,,,,,,,,138014,001,2024-12-02_18h50.21.412,Test,2024.2.1,59.111100744435305,2024-12-02 18h50.39.568630 +0100,
9,150,30,5,None,39,39,0,False,left,1.6697277030034456,None,,,,,,,,0,39,39,39,,,,,,,,,276.3806671899947,,,,,,,,,,,,,,,,,,,,,,,,,,,,,,,,,,,,,,276.37292377699487,276.3806671899947,277.39105021199794,278.35807160999684,278.35807160999684,278.35807160999684,280.04333676299575,left,1.6697277030034456,None,,,,,,,,,,,,,,,,,,,,,,,,,,,,,,,,,,,,,,,,,,,,,,138014,001,2024-12-02_18h50.21.412,Test,2024.2.1,59.111100744435305,2024-12-02 18h50.39.568630 +0100,
8,150,30,43,None,40,40,0,False,right,0.9027215300011449,None,,,,,,,,0,40,40,40,,,,,,,,,280.06731644799584,,,,,,,,,,,,,,,,,,,,,,,,,,,,,,,,,,,,,,280.05965259599907,280.06731644799584,281.0747296010013,282.05803267999727,282.05803267999727,282.05803267999727,282.9766091979982,right,0.9027215300011449,None,,,,,,,,,,,,,,,,,,,,,,,,,,,,,,,,,,,,,,,,,,,,,,138014,001,2024-12-02_18h50.21.412,Test,2024.2.1,59.111100744435305,2024-12-02 18h50.39.568630 +0100,
64,150,150,63,None,41,41,0,True,right,2.0849171610025223,None,,,,,,,,0,41,41,41,,,,,,,,,282.9915133989998,,,,,,,,,,,,,,,,,,,,,,,,,,,,,,,,,,,,,,282.982097701999,282.9915133989998,283.99229707099585,284.9916412339953,284.9916412339953,284.9916412339953,287.0942827639956,right,2.0849171610025223,None,,,,,,,,,,,,,,,,,,,,,,,,,,,,,,,,,,,,,,,,,,,,,,138014,001,2024-12-02_18h50.21.412,Test,2024.2.1,59.111100744435305,2024-12-02 18h50.39.568630 +0100,
21,150,120,52,None,42,42,0,False,right,1.1093524039970362,None,,,,,,,,0,42,42,42,,,,,,,,,287.10931588400126,,,,,,,,,,,,,,,,,,,,,,,,,,,,,,,,,,,,,,287.10019209299935,287.10931588400126,288.1091134819944,289.109227353998,289.109227353998,289.109227353998,290.2271766740014,right,1.1093524039970362,None,,,,,,,,,,,,,,,,,,,,,,,,,,,,,,,,,,,,,,,,,,,,,,138014,001,2024-12-02_18h50.21.412,Test,2024.2.1,59.111100744435305,2024-12-02 18h50.39.568630 +0100,
66,150,180,1,None,43,43,0,True,right,1.1669858960012789,None,,,,,,,,0,43,43,43,,,,,,,,,290.2421040279951,,,,,,,,,,,,,,,,,,,,,,,,,,,,,,,,,,,,,,290.232934474996,290.2421040279951,291.24204802500026,292.2264606069948,292.2264606069948,292.2264606069948,293.4107229509973,right,1.1669858960012789,None,,,,,,,,,,,,,,,,,,,,,,,,,,,,,,,,,,,,,,,,,,,,,,138014,001,2024-12-02_18h50.21.412,Test,2024.2.1,59.111100744435305,2024-12-02 18h50.39.568630 +0100,
2,150,0,64,None,44,44,0,False,right,1.0684684560037567,None,,,,,,,,0,44,44,44,,,,,,,,,293.4256923669964,,,,,,,,,,,,,,,,,,,,,,,,,,,,,,,,,,,,,,293.4165583809954,293.4256923669964,294.4253587819985,295.42634692999854,295.42634692999854,295.42634692999854,296.5106040620012,right,1.0684684560037567,None,,,,,,,,,,,,,,,,,,,,,,,,,,,,,,,,,,,,,,,,,,,,,,138014,001,2024-12-02_18h50.21.412,Test,2024.2.1,59.111100744435305,2024-12-02 18h50.39.568630 +0100,
58,150,120,32,None,45,45,0,True,left,0.9503548259963281,None,,,,,,,,0,45,45,45,,,,,,,,,296.52558208999835,,,,,,,,,,,,,,,,,,,,,,,,,,,,,,,,,,,,,,296.51547108299565,296.52558208999835,297.5263102050012,298.51034281499597,298.51034281499597,298.51034281499597,299.47853596299683,left,0.9503548259963281,None,,,,,,,,,,,,,,,,,,,,,,,,,,,,,,,,,,,,,,,,,,,,,,138014,001,2024-12-02_18h50.21.412,Test,2024.2.1,59.111100744435305,2024-12-02 18h50.39.568630 +0100,
23,150,120,70,None,46,46,0,False,left,2.454624067999248,None,,,,,,,,0,46,46,46,,,,,,,,,299.49318048299756,,,,,,,,,,,,,,,,,,,,,,,,,,,,,,,,,,,,,,299.48468700399826,299.49318048299756,300.4938023559953,301.4934586609961,301.4934586609961,301.4934586609961,303.9617036519994,left,2.454624067999248,None,,,,,,,,,,,,,,,,,,,,,,,,,,,,,,,,,,,,,,,,,,,,,,138014,001,2024-12-02_18h50.21.412,Test,2024.2.1,59.111100744435305,2024-12-02 18h50.39.568630 +0100,
19,150,90,33,None,47,47,0,False,left,0.9878225339998608,None,,,,,,,,0,47,47,47,,,,,,,,,303.9773595070001,,,,,,,,,,,,,,,,,,,,,,,,,,,,,,,,,,,,,,303.96856044499873,303.9773595070001,304.97749744199973,305.9767612259966,305.9767612259966,305.9767612259966,306.97849564399803,left,0.9878225339998608,None,,,,,,,,,,,,,,,,,,,,,,,,,,,,,,,,,,,,,,,,,,,,,,138014,001,2024-12-02_18h50.21.412,Test,2024.2.1,59.111100744435305,2024-12-02 18h50.39.568630 +0100,
12,150,60,44,None,48,48,0,False,right,0.9477685460005887,None,,,,,,,,0,48,48,48,,,,,,,,,306.9929148489973,,,,,,,,,,,,,,,,,,,,,,,,,,,,,,,,,,,,,,306.98369933499634,306.9929148489973,307.99447878299543,308.9936220669988,308.9936220669988,308.9936220669988,309.94558889499604,right,0.9477685460005887,None,,,,,,,,,,,,,,,,,,,,,,,,,,,,,,,,,,,,,,,,,,,,,,138014,001,2024-12-02_18h50.21.412,Test,2024.2.1,59.111100744435305,2024-12-02 18h50.39.568630 +0100,
33,150,180,60,None,49,49,0,False,left,2.9677329390033265,None,,,,,,,,0,49,49,49,,,,,,,,,309.9609168679963,,,,,,,,,,,,,,,,,,,,,,,,,,,,,,,,,,,,,,309.9512751739967,309.9609168679963,310.9607057999965,311.9607068959958,311.9607068959958,311.9607068959958,314.9472474879949,left,2.9677329390033265,None,314.96349630499753,314.96349630499753,314.96349630499753,,,,,,,,,,,,,,,,,,,,,,,,,,,,,,,,,,,,,,,,,,,138014,001,2024-12-02_18h50.21.412,Test,2024.2.1,59.111100744435305,2024-12-02 18h50.39.568630 +0100,
5,150,0,40,None,50,50,0,False,right,0.8941500300061307,None,,,,,,,,0,50,50,50,,,,,,,,,314.96349630499753,,,,,,,,,,,,,,,,,,,,,,,,,,,,,,,,,,,,,,314.9552395819992,314.96349630499753,315.97738762600056,316.9607105429968,316.9607105429968,316.9607105429968,317.8622512039947,right,0.8941500300061307,None,,,,,,,,,,,,,,,,,,,,,,,,,,,,,,,,,,,,,,,,,,,,,,138014,001,2024-12-02_18h50.21.412,Test,2024.2.1,59.111100744435305,2024-12-02 18h50.39.568630 +0100,
55,150,90,42,None,51,51,0,True,left,1.3972214919995167,None,,,,,,,,0,51,51,51,,,,,,,,,317.87765427799604,,,,,,,,,,,,,,,,,,,,,,,,,,,,,,,,,,,,,,317.8679654000007,317.87765427799604,318.87831779899716,319.8618103349945,319.8618103349945,319.8618103349945,321.2635344369992,left,1.3972214919995167,None,,,,,,,,,,,,,,,,,,,,,,,,,,,,,,,,,,,,,,,,,,,,,,138014,001,2024-12-02_18h50.21.412,Test,2024.2.1,59.111100744435305,2024-12-02 18h50.39.568630 +0100,
34,150,180,12,None,52,52,0,False,left,1.1012035770036164,None,,,,,,,,0,52,52,52,,,,,,,,,321.2784925659944,,,,,,,,,,,,,,,,,,,,,,,,,,,,,,,,,,,,,,321.26973342199926,321.2784925659944,322.2787510470007,323.2782842539964,323.2782842539964,323.2782842539964,324.39709371899517,left,1.1012035770036164,None,,,,,,,,,,,,,,,,,,,,,,,,,,,,,,,,,,,,,,,,,,,,,,138014,001,2024-12-02_18h50.21.412,Test,2024.2.1,59.111100744435305,2024-12-02 18h50.39.568630 +0100,
32,150,180,23,None,53,53,0,False,left,2.180788516001485,None,,,,,,,,0,53,53,53,,,,,,,,,324.4118834549954,,,,,,,,,,,,,,,,,,,,,,,,,,,,,,,,,,,,,,324.40302563799924,324.4118834549954,325.41209615099797,326.41248287399503,326.41248287399503,326.41248287399503,328.5972272559957,left,2.180788516001485,None,,,,,,,,,,,,,,,,,,,,,,,,,,,,,,,,,,,,,,,,,,,,,,138014,001,2024-12-02_18h50.21.412,Test,2024.2.1,59.111100744435305,2024-12-02 18h50.39.568630 +0100,
70,150,180,66,None,54,54,0,True,right,1.7283083430011175,None,,,,,,,,0,54,54,54,,,,,,,,,328.6135197619951,,,,,,,,,,,,,,,,,,,,,,,,,,,,,,,,,,,,,,328.60465506699984,328.6135197619951,329.629315006001,330.61147182199784,330.61147182199784,330.61147182199784,332.3465098550005,right,1.7283083430011175,None,,,,,,,,,,,,,,,,,,,,,,,,,,,,,,,,,,,,,,,,,,,,,,138014,001,2024-12-02_18h50.21.412,Test,2024.2.1,59.111100744435305,2024-12-02 18h50.39.568630 +0100,
45,150,30,11,None,55,55,0,True,left,1.8295089390012436,None,,,,,,,,0,55,55,55,,,,,,,,,332.3624354700005,,,,,,,,,,,,,,,,,,,,,,,,,,,,,,,,,,,,,,332.3527333050006,332.3624354700005,333.3624148259987,334.34469220999745,334.34469220999745,334.34469220999745,336.18044126300083,left,1.8295089390012436,None,,,,,,,,,,,,,,,,,,,,,,,,,,,,,,,,,,,,,,,,,,,,,,138014,001,2024-12-02_18h50.21.412,Test,2024.2.1,59.111100744435305,2024-12-02 18h50.39.568630 +0100,
44,150,30,20,None,56,56,0,True,left,2.836631812999258,None,,,,,,,,0,56,56,56,,,,,,,,,336.1953164719962,,,,,,,,,,,,,,,,,,,,,,,,,,,,,,,,,,,,,,336.18613314899994,336.1953164719962,337.1950154809965,338.1788544910014,338.1788544910014,338.1788544910014,341.0303572259945,left,2.836631812999258,None,,,,,,,,,,,,,,,,,,,,,,,,,,,,,,,,,,,,,,,,,,,,,,138014,001,2024-12-02_18h50.21.412,Test,2024.2.1,59.111100744435305,2024-12-02 18h50.39.568630 +0100,
54,150,90,35,None,57,57,0,True,left,0.9824756779999007,None,,,,,,,,0,57,57,57,,,,,,,,,341.0453086419948,,,,,,,,,,,,,,,,,,,,,,,,,,,,,,,,,,,,,,341.03666286199586,341.0453086419948,342.04579915499926,343.0464028540009,343.0464028540009,343.0464028540009,344.0317556519949,left,0.9824756779999007,None,,,,,,,,,,,,,,,,,,,,,,,,,,,,,,,,,,,,,,,,,,,,,,138014,001,2024-12-02_18h50.21.412,Test,2024.2.1,59.111100744435305,2024-12-02 18h50.39.568630 +0100,
48,150,60,16,None,58,58,0,True,left,0.6339824980022968,None,,,,,,,,0,58,58,58,,,,,,,,,344.0462947679989,,,,,,,,,,,,,,,,,,,,,,,,,,,,,,,,,,,,,,344.03725958399446,344.0462947679989,345.04688386999624,346.0460821730012,346.0460821730012,346.0460821730012,346.68229700400116,left,0.6339824980022968,None,,,,,,,,,,,,,,,,,,,,,,,,,,,,,,,,,,,,,,,,,,,,,,138014,001,2024-12-02_18h50.21.412,Test,2024.2.1,59.111100744435305,2024-12-02 18h50.39.568630 +0100,
6,150,30,55,None,59,59,0,False,right,0.8545232020042022,None,,,,,,,,0,59,59,59,,,,,,,,,346.6964905019995,,,,,,,,,,,,,,,,,,,,,,,,,,,,,,,,,,,,,,346.68807157099945,346.6964905019995,347.6967582129946,348.69720289499674,348.69720289499674,348.69720289499674,349.56506001499656,right,0.8545232020042022,None,,,,,,,,,,,,,,,,,,,,,,,,,,,,,,,,,,,,,,,,,,,,,,138014,001,2024-12-02_18h50.21.412,Test,2024.2.1,59.111100744435305,2024-12-02 18h50.39.568630 +0100,
1,150,0,65,None,60,60,0,False,left,0.8337920370031497,None,,,,,,,,0,60,60,60,,,,,,,,,349.5799998079965,,,,,,,,,,,,,,,,,,,,,,,,,,,,,,,,,,,,,,349.570538699998,349.5799998079965,350.5794304250012,351.57980010499887,351.57980010499887,351.57980010499887,352.41598047799926,left,0.8337920370031497,None,,,,,,,,,,,,,,,,,,,,,,,,,,,,,,,,,,,,,,,,,,,,,,138014,001,2024-12-02_18h50.21.412,Test,2024.2.1,59.111100744435305,2024-12-02 18h50.39.568630 +0100,
61,150,150,10,None,61,61,0,True,right,2.0239624830064713,None,,,,,,,,0,61,61,61,,,,,,,,,352.4300136729944,,,,,,,,,,,,,,,,,,,,,,,,,,,,,,,,,,,,,,352.4211692300014,352.4300136729944,353.4300455009943,354.4297269039962,354.4297269039962,354.4297269039962,356.4647630190011,right,2.0239624830064713,None,,,,,,,,,,,,,,,,,,,,,,,,,,,,,,,,,,,,,,,,,,,,,,138014,001,2024-12-02_18h50.21.412,Test,2024.2.1,59.111100744435305,2024-12-02 18h50.39.568630 +0100,
69,150,180,18,None,62,62,0,True,right,1.850971069005027,None,,,,,,,,0,62,62,62,,,,,,,,,356.4799050319998,,,,,,,,,,,,,,,,,,,,,,,,,,,,,,,,,,,,,,356.47035795699776,356.4799050319998,357.4812413510008,358.4636577400015,358.4636577400015,358.4636577400015,360.33200546199805,right,1.850971069005027,None,,,,,,,,,,,,,,,,,,,,,,,,,,,,,,,,,,,,,,,,,,,,,,138014,001,2024-12-02_18h50.21.412,Test,2024.2.1,59.111100744435305,2024-12-02 18h50.39.568630 +0100,
4,150,0,57,None,63,63,0,False,right,1.2679974479979137,None,,,,,,,,0,63,63,63,,,,,,,,,360.3468513569969,,,,,,,,,,,,,,,,,,,,,,,,,,,,,,,,,,,,,,360.33788518199435,360.3468513569969,361.3474480539953,362.34704616999807,362.34704616999807,362.34704616999807,363.63299417199596,right,1.2679974479979137,None,,,,,,,,,,,,,,,,,,,,,,,,,,,,,,,,,,,,,,,,,,,,,,138014,001,2024-12-02_18h50.21.412,Test,2024.2.1,59.111100744435305,2024-12-02 18h50.39.568630 +0100,
39,150,0,13,None,64,64,0,True,left,0.7994653069981723,None,,,,,,,,0,64,64,64,,,,,,,,,363.6475073600013,,,,,,,,,,,,,,,,,,,,,,,,,,,,,,,,,,,,,,363.6386130929968,363.6475073600013,364.64761213699967,365.6485736459945,365.6485736459945,365.6485736459945,366.4501892499975,left,0.7994653069981723,None,,,,,,,,,,,,,,,,,,,,,,,,,,,,,,,,,,,,,,,,,,,,,,138014,001,2024-12-02_18h50.21.412,Test,2024.2.1,59.111100744435305,2024-12-02 18h50.39.568630 +0100,
24,150,120,26,None,65,65,0,False,right,1.1052254809983424,None,,,,,,,,0,65,65,65,,,,,,,,,366.46415522299503,,,,,,,,,,,,,,,,,,,,,,,,,,,,,,,,,,,,,,366.45524826399924,366.46415522299503,367.465144804999,368.4648392759991,368.4648392759991,368.4648392759991,369.58216920599807,right,1.1052254809983424,None,,,,,,,,,,,,,,,,,,,,,,,,,,,,,,,,,,,,,,,,,,,,,,138014,001,2024-12-02_18h50.21.412,Test,2024.2.1,59.111100744435305,2024-12-02 18h50.39.568630 +0100,
50,150,60,28,None,66,66,0,True,right,5.804464102002385,None,,,,,,,,0,66,66,66,,,,,,,,,369.5976945459988,,,,,,,,,,,,,,,,,,,,,,,,,,,,,,,,,,,,,,369.5879877119951,369.5976945459988,370.597757370997,371.58152925600007,371.58152925600007,371.58152925600007,377.400232811,right,5.804464102002385,None,374.58185247399524,374.58185247399524,374.58185247399524,,,,,,,,,,,,,,,,,,,,,,,,,,,,,,,,,,,,,,,,,,,138014,001,2024-12-02_18h50.21.412,Test,2024.2.1,59.111100744435305,2024-12-02 18h50.39.568630 +0100,
30,150,150,67,None,67,67,0,False,right,1.0046598659973824,None,,,,,,,,0,67,67,67,,,,,,,,,377.4153226310009,,,,,,,,,,,,,,,,,,,,,,,,,,,,,,,,,,,,,,377.4057555399995,377.4153226310009,378.4149188299998,379.4145787019952,379.4145787019952,379.4145787019952,380.4333519099964,right,1.0046598659973824,None,,,,,,,,,,,,,,,,,,,,,,,,,,,,,,,,,,,,,,,,,,,,,,138014,001,2024-12-02_18h50.21.412,Test,2024.2.1,59.111100744435305,2024-12-02 18h50.39.568630 +0100,
15,150,60,6,None,68,68,0,False,right,1.0923432749987114,None,,,,,,,,0,68,68,68,,,,,,,,,380.4490213889949,,,,,,,,,,,,,,,,,,,,,,,,,,,,,,,,,,,,,,380.4397375010012,380.4490213889949,381.4490683049953,382.44879462699464,382.44879462699464,382.44879462699464,383.550606634999,right,1.0923432749987114,None,,,,,,,,,,,,,,,,,,,,,,,,,,,,,,,,,,,,,,,,,,,,,,138014,001,2024-12-02_18h50.21.412,Test,2024.2.1,59.111100744435305,2024-12-02 18h50.39.568630 +0100,
52,150,90,2,None,69,69,0,True,left,1.1497874860069714,None,,,,,,,,0,69,69,69,,,,,,,,,383.56550936299755,,,,,,,,,,,,,,,,,,,,,,,,,,,,,,,,,,,,,,383.55655268400005,383.56550936299755,384.5654946319992,385.54973827099457,385.54973827099457,385.54973827099457,386.70195384799445,left,1.1497874860069714,None,,,,,,,,,,,,,,,,,,,,,,,,,,,,,,,,,,,,,,,,,,,,,,138014,001,2024-12-02_18h50.21.412,Test,2024.2.1,59.111100744435305,2024-12-02 18h50.39.568630 +0100,
,,,,,,,,,,,,,,,,,,,,,,,,,,,,,,,,,,,,,,,,,,,,,,,,,,,,,,,,,,,,,,,,,,,,,,,,,,,,,,,,,,386.70215845899656,386.7151495520011,386.7151495520011,401.1847787779989,space,14.461771358000988,None,,,,,,,,,,,,,,,,,,,,,,,,,,,,,,,,,,,,138014,001,2024-12-02_18h50.21.412,Test,2024.2.1,59.111100744435305,2024-12-02 18h50.39.568630 +0100,
31,150,180,58,None,0,0,0,,,,,,,,,,,,,,,,0,0,0,30,,,,,401.2081833379998,,,,,,,,,,,,,,,,,,,,,,,,,,,,,,,,,,,,,,,,,,,,,,,,,,,,,,,,,,401.19935578999866,401.2081833379998,401.4002527650009,401.4002527650009,401.416374845001,403.1007548349953,403.1007548349953,403.08477058499557,,,,,,,,,,,,,,,,,,,,,,,,,,,,138014,001,2024-12-02_18h50.21.412,Test,2024.2.1,59.111100744435305,2024-12-02 18h50.39.568630 +0100,
32,150,180,23,None,1,1,0,,,,,,,,,,,,,,,,0,1,1,31,,,,,403.1007548349953,,,,,,,,,,,,,,,,,,,,,,,,,,,,,,,,,,,,,,,,,,,,,,,,,,,,,,,,,,403.092511842995,403.1007548349953,403.30037351799547,403.30037351799547,403.30037351799547,405.00017593999655,405.00017593999655,404.9842458999992,,,,,,,,,,,,,,,,,,,,,,,,,,,,138014,001,2024-12-02_18h50.21.412,Test,2024.2.1,59.111100744435305,2024-12-02 18h50.39.568630 +0100,
3,150,0,30,None,2,2,0,,,,,,,,,,,,,,,,0,2,2,2,,,,,405.00017593999655,,,,,,,,,,,,,,,,,,,,,,,,,,,,,,,,,,,,,,,,,,,,,,,,,,,,,,,,,,404.99054484599765,405.00017593999655,405.1836229030014,405.1836229030014,405.20001236799726,406.8834474139949,406.8834474139949,406.8676507029959,,,,,,,,,,,,,,,,,,,,,,,,,,,,138014,001,2024-12-02_18h50.21.412,Test,2024.2.1,59.111100744435305,2024-12-02 18h50.39.568630 +0100,
30,150,150,67,None,3,3,0,,,,,,,,,,,,,,,,0,3,3,29,,,,,406.8834474139949,,,,,,,,,,,,,,,,,,,,,,,,,,,,,,,,,,,,,,,,,,,,,,,,,,,,,,,,,,406.8736265319967,406.9006008879951,407.1004051459968,407.1004051459968,407.1004051459968,408.8007592139984,408.8007592139984,408.7851434339973,,,,,,,,,,,,,,,,,,,,,,,,,,,,138014,001,2024-12-02_18h50.21.412,Test,2024.2.1,59.111100744435305,2024-12-02 18h50.39.568630 +0100,
16,150,90,56,None,4,4,0,,,,,,,,,,,,,,,,0,4,4,15,,,,,408.8007592139984,,,,,,,,,,,,,,,,,,,,,,,,,,,,,,,,,,,,,,,,,,,,,,,,,,,,,,,,,,408.79289915799745,408.8007592139984,409.00050286599435,409.00050286599435,409.00050286599435,410.7003364539996,410.7003364539996,410.6852387760009,,,,,,,,,,,,,,,,,,,,,,,,,,,,138014,001,2024-12-02_18h50.21.412,Test,2024.2.1,59.111100744435305,2024-12-02 18h50.39.568630 +0100,
22,150,120,36,None,5,5,0,,,,,,,,,,,,,,,,0,5,5,21,,,,,410.7003364539996,,,,,,,,,,,,,,,,,,,,,,,,,,,,,,,,,,,,,,,,,,,,,,,,,,,,,,,,,,410.69094776799466,410.7003364539996,410.8846572809998,410.8846572809998,410.90052395699604,412.58515103600075,412.58515103600075,412.5686874969979,,,,,,,,,,,,,,,,,,,,,,,,,,,,138014,001,2024-12-02_18h50.21.412,Test,2024.2.1,59.111100744435305,2024-12-02 18h50.39.568630 +0100,
1,150,0,65,None,6,6,0,,,,,,,,,,,,,,,,0,6,6,0,,,,,412.58515103600075,,,,,,,,,,,,,,,,,,,,,,,,,,,,,,,,,,,,,,,,,,,,,,,,,,,,,,,,,,412.5760441739985,412.58515103600075,412.78451258199493,412.78451258199493,412.78451258199493,414.48377466899547,414.48377466899547,414.4682645770008,,,,,,,,,,,,,,,,,,,,,,,,,,,,138014,001,2024-12-02_18h50.21.412,Test,2024.2.1,59.111100744435305,2024-12-02 18h50.39.568630 +0100,
13,150,60,29,None,7,7,0,,,,,,,,,,,,,,,,0,7,7,12,,,,,414.48377466899547,,,,,,,,,,,,,,,,,,,,,,,,,,,,,,,,,,,,,,,,,,,,,,,,,,,,,,,,,,414.4742932539957,414.48377466899547,414.68486726899573,414.68486726899573,414.68486726899573,416.384605747,416.384605747,416.3691178039953,,,,,,,,,,,,,,,,,,,,,,,,,,,,138014,001,2024-12-02_18h50.21.412,Test,2024.2.1,59.111100744435305,2024-12-02 18h50.39.568630 +0100,
7,150,30,59,None,8,8,0,,,,,,,,,,,,,,,,0,8,8,6,,,,,416.384605747,,,,,,,,,,,,,,,,,,,,,,,,,,,,,,,,,,,,,,,,,,,,,,,,,,,,,,,,,,416.3757118239955,416.384605747,416.5845405739965,416.5845405739965,416.5845405739965,418.29032451799867,418.29032451799867,418.27677093899547,,,,,,,,,,,,,,,,,,,,,,,,,,,,138014,001,2024-12-02_18h50.21.412,Test,2024.2.1,59.111100744435305,2024-12-02 18h50.39.568630 +0100,
12,150,60,44,None,9,9,0,,,,,,,,,,,,,,,,0,9,9,11,,,,,418.29032451799867,,,,,,,,,,,,,,,,,,,,,,,,,,,,,,,,,,,,,,,,,,,,,,,,,,,,,,,,,,418.28361546299857,418.29032451799867,418.4842523929983,418.4842523929983,418.5012615779997,420.1848388849976,420.1848388849976,420.16857254500064,,,,,,,,,,,,,,,,,,,,,,,,,,,,138014,001,2024-12-02_18h50.21.412,Test,2024.2.1,59.111100744435305,2024-12-02 18h50.39.568630 +0100,
11,150,60,8,None,10,10,0,,,,,,,,,,,,,,,,0,10,10,10,,,,,420.1848388849976,,,,,,,,,,,,,,,,,,,,,,,,,,,,,,,,,,,,,,,,,,,,,,,,,,,,,,,,,,420.173554682995,420.1848388849976,420.3844902649944,420.3844902649944,420.3844902649944,422.0849472560003,422.0849472560003,422.0695833110003,,,,,,,,,,,,,,,,,,,,,,,,,,,,138014,001,2024-12-02_18h50.21.412,Test,2024.2.1,59.111100744435305,2024-12-02 18h50.39.568630 +0100,
6,150,30,55,None,11,11,0,,,,,,,,,,,,,,,,0,11,11,5,,,,,422.0849472560003,,,,,,,,,,,,,,,,,,,,,,,,,,,,,,,,,,,,,,,,,,,,,,,,,,,,,,,,,,422.0761245649992,422.0849472560003,422.2856416290015,422.2856416290015,422.2856416290015,423.98473613499664,423.98473613499664,423.96925919099886,,,,,,,,,,,,,,,,,,,,,,,,,,,,138014,001,2024-12-02_18h50.21.412,Test,2024.2.1,59.111100744435305,2024-12-02 18h50.39.568630 +0100,
8,150,30,43,None,12,12,0,,,,,,,,,,,,,,,,0,12,12,7,,,,,423.98473613499664,,,,,,,,,,,,,,,,,,,,,,,,,,,,,,,,,,,,,,,,,,,,,,,,,,,,,,,,,,423.9756456459945,423.98473613499664,424.1858840540008,424.1858840540008,424.1858840540008,425.8854425679965,425.8854425679965,425.8695710079992,,,,,,,,,,,,,,,,,,,,,,,,,,,,138014,001,2024-12-02_18h50.21.412,Test,2024.2.1,59.111100744435305,2024-12-02 18h50.39.568630 +0100,
23,150,120,70,None,13,13,0,,,,,,,,,,,,,,,,0,13,13,22,,,,,425.8854425679965,,,,,,,,,,,,,,,,,,,,,,,,,,,,,,,,,,,,,,,,,,,,,,,,,,,,,,,,,,425.87701203300094,425.8854425679965,426.08496114100126,426.08496114100126,426.08496114100126,427.7890154380002,427.7890154380002,427.7706673339999,,,,,,,,,,,,,,,,,,,,,,,,,,,,138014,001,2024-12-02_18h50.21.412,Test,2024.2.1,59.111100744435305,2024-12-02 18h50.39.568630 +0100,
35,150,180,69,None,14,14,0,,,,,,,,,,,,,,,,0,14,14,34,,,,,427.7890154380002,,,,,,,,,,,,,,,,,,,,,,,,,,,,,,,,,,,,,,,,,,,,,,,,,,,,,,,,,,427.78047695799614,427.7890154380002,427.98542825099867,427.98542825099867,428.0020259609955,429.6854505719966,429.6854505719966,429.6696347869947,,,,,,,,,,,,,,,,,,,,,,,,,,,,138014,001,2024-12-02_18h50.21.412,Test,2024.2.1,59.111100744435305,2024-12-02 18h50.39.568630 +0100,
10,150,30,27,None,15,15,0,,,,,,,,,,,,,,,,0,15,15,9,,,,,429.6854505719966,,,,,,,,,,,,,,,,,,,,,,,,,,,,,,,,,,,,,,,,,,,,,,,,,,,,,,,,,,429.67555564199574,429.6854505719966,429.88524445499934,429.88524445499934,429.88524445499934,431.58496121699864,431.58496121699864,431.56945478499983,,,,,,,,,,,,,,,,,,,,,,,,,,,,138014,001,2024-12-02_18h50.21.412,Test,2024.2.1,59.111100744435305,2024-12-02 18h50.39.568630 +0100,
24,150,120,26,None,16,16,0,,,,,,,,,,,,,,,,0,16,16,23,,,,,431.58496121699864,,,,,,,,,,,,,,,,,,,,,,,,,,,,,,,,,,,,,,,,,,,,,,,,,,,,,,,,,,431.57553076899785,431.58496121699864,431.78596622400073,431.78596622400073,431.78596622400073,433.48628360399744,433.48628360399744,433.4702204299974,,,,,,,,,,,,,,,,,,,,,,,,,,,,138014,001,2024-12-02_18h50.21.412,Test,2024.2.1,59.111100744435305,2024-12-02 18h50.39.568630 +0100,
17,150,90,17,None,17,17,0,,,,,,,,,,,,,,,,0,17,17,16,,,,,433.48628360399744,,,,,,,,,,,,,,,,,,,,,,,,,,,,,,,,,,,,,,,,,,,,,,,,,,,,,,,,,,433.4780327539993,433.48628360399744,433.6854861019965,433.6854861019965,433.6854861019965,435.38564813699486,435.38564813699486,435.3699687199987,,,,,,,,,,,,,,,,,,,,,,,,,,,,138014,001,2024-12-02_18h50.21.412,Test,2024.2.1,59.111100744435305,2024-12-02 18h50.39.568630 +0100,
33,150,180,60,None,18,18,0,,,,,,,,,,,,,,,,0,18,18,32,,,,,435.38564813699486,,,,,,,,,,,,,,,,,,,,,,,,,,,,,,,,,,,,,,,,,,,,,,,,,,,,,,,,,,435.3760215689981,435.38564813699486,435.5864323709975,435.5864323709975,435.5864323709975,437.28543089199957,437.28543089199957,437.2703011449994,,,,,,,,,,,,,,,,,,,,,,,,,,,,138014,001,2024-12-02_18h50.21.412,Test,2024.2.1,59.111100744435305,2024-12-02 18h50.39.568630 +0100,
27,150,150,31,None,19,19,0,,,,,,,,,,,,,,,,0,19,19,26,,,,,437.28543089199957,,,,,,,,,,,,,,,,,,,,,,,,,,,,,,,,,,,,,,,,,,,,,,,,,,,,,,,,,,437.27659646100074,437.28543089199957,437.4859024299949,437.4859024299949,437.4859024299949,439.18658476199926,439.18658476199926,439.1703584220013,,,,,,,,,,,,,,,,,,,,,,,,,,,,138014,001,2024-12-02_18h50.21.412,Test,2024.2.1,59.111100744435305,2024-12-02 18h50.39.568630 +0100,
5,150,0,40,None,20,20,0,,,,,,,,,,,,,,,,0,20,20,4,,,,,439.18658476199926,,,,,,,,,,,,,,,,,,,,,,,,,,,,,,,,,,,,,,,,,,,,,,,,,,,,,,,,,,439.1768812250011,439.18658476199926,439.3860606629969,439.3860606629969,439.3860606629969,441.0865387429949,441.0865387429949,441.07041539000056,,,,,,,,,,,,,,,,,,,,,,,,,,,,138014,001,2024-12-02_18h50.21.412,Test,2024.2.1,59.111100744435305,2024-12-02 18h50.39.568630 +0100,
18,150,90,7,None,21,21,0,,,,,,,,,,,,,,,,0,21,21,17,,,,,441.0865387429949,,,,,,,,,,,,,,,,,,,,,,,,,,,,,,,,,,,,,,,,,,,,,,,,,,,,,,,,,,441.0780797599946,441.0865387429949,441.28600580999773,441.28600580999773,441.28600580999773,442.9860725729959,442.9860725729959,442.9703018129949,,,,,,,,,,,,,,,,,,,,,,,,,,,,138014,001,2024-12-02_18h50.21.412,Test,2024.2.1,59.111100744435305,2024-12-02 18h50.39.568630 +0100,
25,150,120,38,None,22,22,0,,,,,,,,,,,,,,,,0,22,22,24,,,,,442.9860725729959,,,,,,,,,,,,,,,,,,,,,,,,,,,,,,,,,,,,,,,,,,,,,,,,,,,,,,,,,,442.97577703099523,442.9860725729959,443.1868912719947,443.1868912719947,443.1868912719947,444.88646489099483,444.88646489099483,444.8703440589961,,,,,,,,,,,,,,,,,,,,,,,,,,,,138014,001,2024-12-02_18h50.21.412,Test,2024.2.1,59.111100744435305,2024-12-02 18h50.39.568630 +0100,
20,150,90,24,None,23,23,0,,,,,,,,,,,,,,,,0,23,23,19,,,,,444.88646489099483,,,,,,,,,,,,,,,,,,,,,,,,,,,,,,,,,,,,,,,,,,,,,,,,,,,,,,,,,,444.8759072249959,444.88646489099483,445.08660493599746,445.08660493599746,445.08660493599746,446.7860688869987,446.7860688869987,446.77089624400105,,,,,,,,,,,,,,,,,,,,,,,,,,,,138014,001,2024-12-02_18h50.21.412,Test,2024.2.1,59.111100744435305,2024-12-02 18h50.39.568630 +0100,
4,150,0,57,None,24,24,0,,,,,,,,,,,,,,,,0,24,24,3,,,,,446.7860688869987,,,,,,,,,,,,,,,,,,,,,,,,,,,,,,,,,,,,,,,,,,,,,,,,,,,,,,,,,,446.7764465559958,446.7860688869987,446.98682937600097,446.98682937600097,446.98682937600097,448.6866290609978,448.6866290609978,448.67089290700096,,,,,,,,,,,,,,,,,,,,,,,,,,,,138014,001,2024-12-02_18h50.21.412,Test,2024.2.1,59.111100744435305,2024-12-02 18h50.39.568630 +0100,
19,150,90,33,None,25,25,0,,,,,,,,,,,,,,,,0,25,25,18,,,,,448.6866290609978,,,,,,,,,,,,,,,,,,,,,,,,,,,,,,,,,,,,,,,,,,,,,,,,,,,,,,,,,,448.6766968910015,448.6866290609978,448.8871929339948,448.8871929339948,448.8871929339948,450.5867581919956,450.5867581919956,450.5705768439948,,,,,,,,,,,,,,,,,,,,,,,,,,,,138014,001,2024-12-02_18h50.21.412,Test,2024.2.1,59.111100744435305,2024-12-02 18h50.39.568630 +0100,
9,150,30,5,None,26,26,0,,,,,,,,,,,,,,,,0,26,26,8,,,,,450.5867581919956,,,,,,,,,,,,,,,,,,,,,,,,,,,,,,,,,,,,,,,,,,,,,,,,,,,,,,,,,,450.5763144859957,450.5867581919956,450.78666634699766,450.78666634699766,450.78666634699766,452.4879084339991,452.4879084339991,452.4718645199973,,,,,,,,,,,,,,,,,,,,,,,,,,,,138014,001,2024-12-02_18h50.21.412,Test,2024.2.1,59.111100744435305,2024-12-02 18h50.39.568630 +0100,
29,150,150,45,None,27,27,0,,,,,,,,,,,,,,,,0,27,27,28,,,,,452.4879084339991,,,,,,,,,,,,,,,,,,,,,,,,,,,,,,,,,,,,,,,,,,,,,,,,,,,,,,,,,,452.4788840689944,452.4879084339991,452.6873054719981,452.6873054719981,452.6873054719981,454.3905737679961,454.3905737679961,454.3721741069967,,,,,,,,,,,,,,,,,,,,,,,,,,,,138014,001,2024-12-02_18h50.21.412,Test,2024.2.1,59.111100744435305,2024-12-02 18h50.39.568630 +0100,
21,150,120,52,None,28,28,0,,,,,,,,,,,,,,,,0,28,28,20,,,,,454.3905737679961,,,,,,,,,,,,,,,,,,,,,,,,,,,,,,,,,,,,,,,,,,,,,,,,,,,,,,,,,,454.3819580549971,454.3905737679961,454.5863808119975,454.5863808119975,454.60388781000074,456.2865457029984,456.2865457029984,456.27063552899926,,,,,,,,,,,,,,,,,,,,,,,,,,,,138014,001,2024-12-02_18h50.21.412,Test,2024.2.1,59.111100744435305,2024-12-02 18h50.39.568630 +0100,
34,150,180,12,None,29,29,0,,,,,,,,,,,,,,,,0,29,29,33,,,,,456.2865457029984,,,,,,,,,,,,,,,,,,,,,,,,,,,,,,,,,,,,,,,,,,,,,,,,,,,,,,,,,,456.2767194849948,456.2865457029984,456.48726395300037,456.48726395300037,456.48726395300037,458.1868269999977,458.1868269999977,458.17106858899933,,,,,,,,,,,,,,,,,,,,,,,,,,,,138014,001,2024-12-02_18h50.21.412,Test,2024.2.1,59.111100744435305,2024-12-02 18h50.39.568630 +0100,
15,150,60,6,None,30,30,0,,,,,,,,,,,,,,,,0,30,30,14,,,,,458.1868269999977,,,,,,,,,,,,,,,,,,,,,,,,,,,,,,,,,,,,,,,,,,,,,,,,,,,,,,,,,,458.17712026400113,458.1868269999977,458.3879650559975,458.3879650559975,458.3879650559975,460.08690014199965,460.08690014199965,460.0713068699988,,,,,,,,,,,,,,,,,,,,,,,,,,,,138014,001,2024-12-02_18h50.21.412,Test,2024.2.1,59.111100744435305,2024-12-02 18h50.39.568630 +0100,
26,150,150,53,None,31,31,0,,,,,,,,,,,,,,,,0,31,31,25,,,,,460.08690014199965,,,,,,,,,,,,,,,,,,,,,,,,,,,,,,,,,,,,,,,,,,,,,,,,,,,,,,,,,,460.07685683699674,460.08690014199965,460.28745158400125,460.28745158400125,460.28745158400125,461.98737668099784,461.98737668099784,461.9713189229951,,,,,,,,,,,,,,,,,,,,,,,,,,,,138014,001,2024-12-02_18h50.21.412,Test,2024.2.1,59.111100744435305,2024-12-02 18h50.39.568630 +0100,
2,150,0,64,None,32,32,0,,,,,,,,,,,,,,,,0,32,32,1,,,,,461.98737668099784,,,,,,,,,,,,,,,,,,,,,,,,,,,,,,,,,,,,,,,,,,,,,,,,,,,,,,,,,,461.9772417610002,461.98737668099784,462.1886084289945,462.1886084289945,462.1886084289945,463.8875355439959,463.8875355439959,463.8720713820003,,,,,,,,,,,,,,,,,,,,,,,,,,,,138014,001,2024-12-02_18h50.21.412,Test,2024.2.1,59.111100744435305,2024-12-02 18h50.39.568630 +0100,
28,150,150,46,None,33,33,0,,,,,,,,,,,,,,,,0,33,33,27,,,,,463.8875355439959,,,,,,,,,,,,,,,,,,,,,,,,,,,,,,,,,,,,,,,,,,,,,,,,,,,,,,,,,,463.8782359649995,463.8875355439959,464.0887960339969,464.0887960339969,464.0887960339969,,,465.7878507139976,,,,,,,,,,,,,,,,,,,,,,,,,,,,138014,001,2024-12-02_18h50.21.412,Test,2024.2.1,59.111100744435305,2024-12-02 18h50.39.568630 +0100,
14,150,60,49,None,34,34,0,,,,,,,,,,,,,,,,0,34,34,13,,,,,465.8044850809965,,,,,,,,,,,,,,,,,,,,,,,,,,,,,,,,,,,,,,,,,,,,,,,,,,,,,,,,,,465.79417050299526,465.8044850809965,465.9876960239999,465.9876960239999,466.00427951199526,467.68800976000057,467.68800976000057,467.6718513169981,,,,,,,,,,,,,,,,,,,,,,,,,,,,138014,001,2024-12-02_18h50.21.412,Test,2024.2.1,59.111100744435305,2024-12-02 18h50.39.568630 +0100,
,,,,,,,,,,,,,,,,,,,,,,,,,,,,,,,,,,,,,,,,,,,,,,,,,,,,,,,,,,,,,,,,,,,,,,,,,,,,,,,,,,,,,,,,,,,,,,,,,467.6720005370007,467.68800976000057,467.68800976000057,509.908687793999,space,42.2118247239996,None,,,,,,,,,,,,,,,,,,,,,138014,001,2024-12-02_18h50.21.412,Test,2024.2.1,59.111100744435305,2024-12-02 18h50.39.568630 +0100,
42,150,30,48,None,0,0,0,True,,,,right,0.857010570995044,None,,,,,,,,,,,,,0,0,0,0,509.94095460699464,,,,,,,,,,,,,,,,,,,,,,,,,,,,,,,,,,,,,,,,,,,,,,,,,,,,,,,,,,,,,,,,,,,,,,,,,509.9277998129983,509.94095460699464,510.9401582299979,511.9246332900002,511.9246332900002,511.9246332900002,512.7926639759971,right,0.857010570995044,None,,,,,,,,,,,138014,001,2024-12-02_18h50.21.412,Test,2024.2.1,59.111100744435305,2024-12-02 18h50.39.568630 +0100,
7,150,30,59,None,1,1,0,False,,,,right,0.706116782996105,None,,,,,,,,,,,,,0,1,1,1,512.8080436629971,,,,,,,,,,,,,,,,,,,,,,,,,,,,,,,,,,,,,,,,,,,,,,,,,,,,,,,,,,,,,,,,,,,,,,,,,512.7984001109944,512.8080436629971,513.8084812300003,514.8077007479951,514.8077007479951,514.8077007479951,515.5265718629962,right,0.706116782996105,None,,,,,,,,,,,138014,001,2024-12-02_18h50.21.412,Test,2024.2.1,59.111100744435305,2024-12-02 18h50.39.568630 +0100,
65,150,150,4,None,2,2,0,True,,,,right,2.15970845099946,None,,,,,,,,,,,,,0,2,2,2,515.5420104020013,,,,,,,,,,,,,,,,,,,,,,,,,,,,,,,,,,,,,,,,,,,,,,,,,,,,,,,,,,,,,,,,,,,,,,,,,515.5332037889966,515.5420104020013,516.5420255349964,517.5412279989978,517.5412279989978,517.5412279989978,519.709716997997,right,2.15970845099946,None,,,,,,,,,,,138014,001,2024-12-02_18h50.21.412,Test,2024.2.1,59.111100744435305,2024-12-02 18h50.39.568630 +0100,
14,150,60,49,None,3,3,0,False,,,,right,2.1435138169981656,None,,,,,,,,,,,,,0,3,3,3,519.7247688399948,,,,,,,,,,,,,,,,,,,,,,,,,,,,,,,,,,,,,,,,,,,,,,,,,,,,,,,,,,,,,,,,,,,,,,,,,519.7159405229977,519.7247688399948,520.7252903889967,521.7251038819959,521.7251038819959,521.7251038819959,523.8763036629971,right,2.1435138169981656,None,,,,,,,,,,,138014,001,2024-12-02_18h50.21.412,Test,2024.2.1,59.111100744435305,2024-12-02 18h50.39.568630 +0100,
10,150,30,27,None,4,4,0,False,,,,left,1.6850365849968512,None,,,,,,,,,,,,,0,4,4,4,523.8929869919957,,,,,,,,,,,,,,,,,,,,,,,,,,,,,,,,,,,,,,,,,,,,,,,,,,,,,,,,,,,,,,,,,,,,,,,,,523.8839795940003,523.8929869919957,524.8914778670005,525.8919899879984,525.8919899879984,525.8919899879984,527.5941954129958,left,1.6850365849968512,None,,,,,,,,,,,138014,001,2024-12-02_18h50.21.412,Test,2024.2.1,59.111100744435305,2024-12-02 18h50.39.568630 +0100,
17,150,90,17,None,5,5,0,False,,,,right,1.1207518330047606,None,,,,,,,,,,,,,0,5,5,5,527.6096190839962,,,,,,,,,,,,,,,,,,,,,,,,,,,,,,,,,,,,,,,,,,,,,,,,,,,,,,,,,,,,,,,,,,,,,,,,,527.6010768019987,527.6096190839962,528.6257684649972,529.6090578359945,529.6090578359945,529.6090578359945,530.7451735849972,right,1.1207518330047606,None,,,,,,,,,,,138014,001,2024-12-02_18h50.21.412,Test,2024.2.1,59.111100744435305,2024-12-02 18h50.39.568630 +0100,
57,150,120,19,None,6,6,0,True,,,,right,1.0339803700044286,None,,,,,,,,,,,,,0,6,6,6,530.7624317480004,,,,,,,,,,,,,,,,,,,,,,,,,,,,,,,,,,,,,,,,,,,,,,,,,,,,,,,,,,,,,,,,,,,,,,,,,530.7533248109976,530.7624317480004,531.7755237359961,532.7588016509981,532.7588016509981,532.7588016509981,533.7949557019965,right,1.0339803700044286,None,,,,,,,,,,,138014,001,2024-12-02_18h50.21.412,Test,2024.2.1,59.111100744435305,2024-12-02 18h50.39.568630 +0100,
16,150,90,56,None,7,7,0,False,,,,left,1.2594806359993527,None,,,,,,,,,,,,,0,7,7,7,533.8094019489945,,,,,,,,,,,,,,,,,,,,,,,,,,,,,,,,,,,,,,,,,,,,,,,,,,,,,,,,,,,,,,,,,,,,,,,,,533.8002447839972,533.8094019489945,534.8094746829956,535.8102982810015,535.8102982810015,535.8102982810015,537.077317325995,left,1.2594806359993527,None,,,,,,,,,,,138014,001,2024-12-02_18h50.21.412,Test,2024.2.1,59.111100744435305,2024-12-02 18h50.39.568630 +0100,
11,150,60,8,None,8,8,0,False,,,,left,1.5682852320023812,None,,,,,,,,,,,,,0,8,8,8,537.0937004839943,,,,,,,,,,,,,,,,,,,,,,,,,,,,,,,,,,,,,,,,,,,,,,,,,,,,,,,,,,,,,,,,,,,,,,,,,537.0843745309976,537.0937004839943,538.0929398669978,539.092771536998,539.092771536998,539.092771536998,540.6782185419943,left,1.5682852320023812,None,,,,,,,,,,,138014,001,2024-12-02_18h50.21.412,Test,2024.2.1,59.111100744435305,2024-12-02 18h50.39.568630 +0100,
25,150,120,38,None,9,9,0,False,,,,left,1.1387924250011565,None,,,,,,,,,,,,,0,9,9,9,540.6933835039963,,,,,,,,,,,,,,,,,,,,,,,,,,,,,,,,,,,,,,,,,,,,,,,,,,,,,,,,,,,,,,,,,,,,,,,,,540.6844739129956,540.6933835039963,541.6927690199955,542.6929746669994,542.6929746669994,542.6929746669994,543.8454287549976,left,1.1387924250011565,None,,,,,,,,,,,138014,001,2024-12-02_18h50.21.412,Test,2024.2.1,59.111100744435305,2024-12-02 18h50.39.568630 +0100,
53,150,90,41,None,10,10,0,True,,,,left,1.0129945790031343,None,,,,,,,,,,,,,0,10,10,10,543.8619229309988,,,,,,,,,,,,,,,,,,,,,,,,,,,,,,,,,,,,,,,,,,,,,,,,,,,,,,,,,,,,,,,,,,,,,,,,,543.8531281379983,543.8619229309988,544.8776135239968,545.8598018669945,545.8598018669945,545.8598018669945,546.8783613959968,left,1.0129945790031343,None,,,,,,,,,,,138014,001,2024-12-02_18h50.21.412,Test,2024.2.1,59.111100744435305,2024-12-02 18h50.39.568630 +0100,
26,150,150,53,None,11,11,0,False,,,,right,1.3409963649974088,None,,,,,,,,,,,,,0,11,11,11,546.8937521359985,,,,,,,,,,,,,,,,,,,,,,,,,,,,,,,,,,,,,,,,,,,,,,,,,,,,,,,,,,,,,,,,,,,,,,,,,546.8844515589954,546.8937521359985,547.8932693539973,548.8935286429987,548.8935286429987,548.8935286429987,550.2446828109969,right,1.3409963649974088,None,,,,,,,,,,,138014,001,2024-12-02_18h50.21.412,Test,2024.2.1,59.111100744435305,2024-12-02 18h50.39.568630 +0100,
18,150,90,7,None,12,12,0,False,,,,right,0.7024043150013313,None,,,,,,,,,,,,,0,12,12,12,550.2597063829962,,,,,,,,,,,,,,,,,,,,,,,,,,,,,,,,,,,,,,,,,,,,,,,,,,,,,,,,,,,,,,,,,,,,,,,,,550.2495145419962,550.2597063829962,551.2612863079994,552.2609161759974,552.2609161759974,552.2609161759974,552.9796862859948,right,0.7024043150013313,None,,,,,,,,,,,138014,001,2024-12-02_18h50.21.412,Test,2024.2.1,59.111100744435305,2024-12-02 18h50.39.568630 +0100,
3,150,0,30,None,13,13,0,False,,,,right,1.62377477499831,None,,,,,,,,,,,,,0,13,13,13,552.9957444210013,,,,,,,,,,,,,,,,,,,,,,,,,,,,,,,,,,,,,,,,,,,,,,,,,,,,,,,,,,,,,,,,,,,,,,,,,552.9869764289979,552.9957444210013,554.0105892809952,554.9937787390008,554.9937787390008,554.9937787390008,556.629469528998,right,1.62377477499831,None,,,,,,,,,,,138014,001,2024-12-02_18h50.21.412,Test,2024.2.1,59.111100744435305,2024-12-02 18h50.39.568630 +0100,
40,150,0,22,None,14,14,0,True,,,,left,1.0942620999994688,None,,,,,,,,,,,,,0,14,14,14,556.6440304489952,,,,,,,,,,,,,,,,,,,,,,,,,,,,,,,,,,,,,,,,,,,,,,,,,,,,,,,,,,,,,,,,,,,,,,,,,556.6346229099945,556.6440304489952,557.6441384589998,558.6445640390011,558.6445640390011,558.6445640390011,559.7457329419994,left,1.0942620999994688,None,,,,,,,,,,,138014,001,2024-12-02_18h50.21.412,Test,2024.2.1,59.111100744435305,2024-12-02 18h50.39.568630 +0100,
28,150,150,46,None,15,15,0,False,,,,right,1.6334440759965219,None,,,,,,,,,,,,,0,15,15,15,559.7604963249978,,,,,,,,,,,,,,,,,,,,,,,,,,,,,,,,,,,,,,,,,,,,,,,,,,,,,,,,,,,,,,,,,,,,,,,,,559.7515522299946,559.7604963249978,560.7616213649962,561.7613085279954,561.7613085279954,561.7613085279954,563.396937118996,right,1.6334440759965219,None,,,,,,,,,,,138014,001,2024-12-02_18h50.21.412,Test,2024.2.1,59.111100744435305,2024-12-02 18h50.39.568630 +0100,
29,150,150,45,None,16,16,0,False,,,,right,1.117001483005879,None,,,,,,,,,,,,,0,16,16,16,563.4133539979957,,,,,,,,,,,,,,,,,,,,,,,,,,,,,,,,,,,,,,,,,,,,,,,,,,,,,,,,,,,,,,,,,,,,,,,,,563.4046739019977,563.4133539979957,564.4284273899975,565.4115829910006,565.4115829910006,565.4115829910006,566.5307541259972,right,1.117001483005879,None,,,,,,,,,,,138014,001,2024-12-02_18h50.21.412,Test,2024.2.1,59.111100744435305,2024-12-02 18h50.39.568630 +0100,
22,150,120,36,None,17,17,0,False,,,,right,1.2106164020005963,None,,,,,,,,,,,,,0,17,17,17,566.5454221409964,,,,,,,,,,,,,,,,,,,,,,,,,,,,,,,,,,,,,,,,,,,,,,,,,,,,,,,,,,,,,,,,,,,,,,,,,566.5364848949976,566.5454221409964,567.5445988889987,568.5445041380008,568.5445041380008,568.5445041380008,569.763597692996,right,1.2106164020005963,None,,,,,,,,,,,138014,001,2024-12-02_18h50.21.412,Test,2024.2.1,59.111100744435305,2024-12-02 18h50.39.568630 +0100,
47,150,60,50,None,18,18,0,True,,,,right,1.6144135450012982,None,,,,,,,,,,,,,0,18,18,18,569.7803387019958,,,,,,,,,,,,,,,,,,,,,,,,,,,,,,,,,,,,,,,,,,,,,,,,,,,,,,,,,,,,,,,,,,,,,,,,,569.7712300899948,569.7803387019958,570.7958735559951,571.7788217919951,571.7788217919951,571.7788217919951,573.3971380779985,right,1.6144135450012982,None,,,,,,,,,,,138014,001,2024-12-02_18h50.21.412,Test,2024.2.1,59.111100744435305,2024-12-02 18h50.39.568630 +0100,
41,150,30,68,None,19,19,0,True,,,,left,2.516527938998479,None,,,,,,,,,,,,,0,19,19,19,573.4126840159952,,,,,,,,,,,,,,,,,,,,,,,,,,,,,,,,,,,,,,,,,,,,,,,,,,,,,,,,,,,,,,,,,,,,,,,,,573.4033763420011,573.4126840159952,574.4125739599986,575.395943522999,575.395943522999,575.395943522999,577.9158105059978,left,2.516527938998479,None,,,,,,,,,,,138014,001,2024-12-02_18h50.21.412,Test,2024.2.1,59.111100744435305,2024-12-02 18h50.39.568630 +0100,
35,150,180,69,None,20,20,0,False,,,,right,1.1939855340024224,None,,,,,,,,,,,,,0,20,20,20,577.9305002869951,,,,,,,,,,,,,,,,,,,,,,,,,,,,,,,,,,,,,,,,,,,,,,,,,,,,,,,,,,,,,,,,,,,,,,,,,577.9218413720009,577.9305002869951,578.9454193669953,579.9296660929976,579.9296660929976,579.9296660929976,581.1308615019952,right,1.1939855340024224,None,,,,,,,,,,,138014,001,2024-12-02_18h50.21.412,Test,2024.2.1,59.111100744435305,2024-12-02 18h50.39.568630 +0100,
37,150,0,61,None,21,21,0,True,,,,left,1.1170151030019042,None,,,,,,,,,,,,,0,21,21,21,581.1500784780001,,,,,,,,,,,,,,,,,,,,,,,,,,,,,,,,,,,,,,,,,,,,,,,,,,,,,,,,,,,,,,,,,,,,,,,,,581.1405438270012,581.1500784780001,582.1628481660009,583.1469914819972,583.1469914819972,583.1469914819972,584.2815885960008,left,1.1170151030019042,None,,,,,,,,,,,138014,001,2024-12-02_18h50.21.412,Test,2024.2.1,59.111100744435305,2024-12-02 18h50.39.568630 +0100,
63,150,150,37,None,22,22,0,True,,,,left,1.5193623230006779,None,,,,,,,,,,,,,0,22,22,22,584.2971006029984,,,,,,,,,,,,,,,,,,,,,,,,,,,,,,,,,,,,,,,,,,,,,,,,,,,,,,,,,,,,,,,,,,,,,,,,,584.2882229339957,584.2971006029984,585.296791722998,586.2960538309999,586.2960538309999,586.2960538309999,587.8311223869969,left,1.5193623230006779,None,,,,,,,,,,,138014,001,2024-12-02_18h50.21.412,Test,2024.2.1,59.111100744435305,2024-12-02 18h50.39.568630 +0100,
13,150,60,29,None,23,23,0,False,,,,left,1.117911326000467,None,,,,,,,,,,,,,0,23,23,23,587.8459309139944,,,,,,,,,,,,,,,,,,,,,,,,,,,,,,,,,,,,,,,,,,,,,,,,,,,,,,,,,,,,,,,,,,,,,,,,,587.8367704129996,587.8459309139944,588.8461315780005,589.8463119119988,589.8463119119988,589.8463119119988,590.9812995210013,left,1.117911326000467,None,,,,,,,,,,,138014,001,2024-12-02_18h50.21.412,Test,2024.2.1,59.111100744435305,2024-12-02 18h50.39.568630 +0100,
49,150,60,39,None,24,24,0,True,,,,right,3.152476138995553,None,,,,,,,,,,,,,0,24,24,24,590.9964564670008,,,,,,,,,,,,,,,,,,,,,,,,,,,,,,,,,,,,,,,,,,,,,,,,,,,,,,,,,,,,,,,,,,,,,,,,,590.9873209029975,590.9964564670008,591.9971164480012,592.9805887969997,592.9805887969997,592.9805887969997,596.2317680619963,right,3.152476138995553,None,595.9799547520015,595.9799547520015,595.9972571219987,,,,,,,,138014,001,2024-12-02_18h50.21.412,Test,2024.2.1,59.111100744435305,2024-12-02 18h50.39.568630 +0100,
36,150,0,3,None,25,25,0,True,,,,left,1.3906480639998335,None,,,,,,,,,,,,,0,25,25,25,596.2506633550001,,,,,,,,,,,,,,,,,,,,,,,,,,,,,,,,,,,,,,,,,,,,,,,,,,,,,,,,,,,,,,,,,,,,,,,,,596.2371913829993,596.2506633550001,597.2633597919994,598.2462904669956,598.2462904669956,598.2462904669956,599.6479673399954,left,1.3906480639998335,None,,,,,,,,,,,138014,001,2024-12-02_18h50.21.412,Test,2024.2.1,59.111100744435305,2024-12-02 18h50.39.568630 +0100,
60,150,120,34,None,26,26,0,True,,,,right,1.088774055999238,None,,,,,,,,,,,,,0,26,26,26,599.6635060379995,,,,,,,,,,,,,,,,,,,,,,,,,,,,,,,,,,,,,,,,,,,,,,,,,,,,,,,,,,,,,,,,,,,,,,,,,599.6530411649946,599.6635060379995,600.6635829389998,601.663493561995,601.663493561995,601.663493561995,602.7658626919947,right,1.088774055999238,None,,,,,,,,,,,138014,001,2024-12-02_18h50.21.412,Test,2024.2.1,59.111100744435305,2024-12-02 18h50.39.568630 +0100,
51,150,90,15,None,27,27,0,True,,,,right,1.4833590159978485,None,,,,,,,,,,,,,0,27,27,27,602.7807925800007,,,,,,,,,,,,,,,,,,,,,,,,,,,,,,,,,,,,,,,,,,,,,,,,,,,,,,,,,,,,,,,,,,,,,,,,,602.7719982019989,602.7807925800007,603.7810046359955,604.7802749979965,604.7802749979965,604.7802749979965,606.2663060139967,right,1.4833590159978485,None,,,,,,,,,,,138014,001,2024-12-02_18h50.21.412,Test,2024.2.1,59.111100744435305,2024-12-02 18h50.39.568630 +0100,
62,150,150,25,None,28,28,0,True,,,,left,1.7988880470002186,None,,,,,,,,,,,,,0,28,28,28,606.2812137309957,,,,,,,,,,,,,,,,,,,,,,,,,,,,,,,,,,,,,,,,,,,,,,,,,,,,,,,,,,,,,,,,,,,,,,,,,606.2718455700015,606.2812137309957,607.2808024769984,608.2811509839958,608.2811509839958,608.2811509839958,610.0830688139977,left,1.7988880470002186,None,,,,,,,,,,,138014,001,2024-12-02_18h50.21.412,Test,2024.2.1,59.111100744435305,2024-12-02 18h50.39.568630 +0100,
27,150,150,31,None,29,29,0,False,,,,right,1.089401953999186,None,,,,,,,,,,,,,0,29,29,29,610.0978350320001,,,,,,,,,,,,,,,,,,,,,,,,,,,,,,,,,,,,,,,,,,,,,,,,,,,,,,,,,,,,,,,,,,,,,,,,,610.0886777240012,610.0978350320001,611.0972727659973,612.0974218389965,612.0974218389965,612.0974218389965,613.1994847479946,right,1.089401953999186,None,,,,,,,,,,,138014,001,2024-12-02_18h50.21.412,Test,2024.2.1,59.111100744435305,2024-12-02 18h50.39.568630 +0100,
46,150,60,14,None,30,30,0,True,,,,left,2.767333203999442,None,,,,,,,,,,,,,0,30,30,30,613.2185112660009,,,,,,,,,,,,,,,,,,,,,,,,,,,,,,,,,,,,,,,,,,,,,,,,,,,,,,,,,,,,,,,,,,,,,,,,,613.2092191990014,613.2185112660009,614.2316691099986,615.2142066499946,615.2142066499946,615.2142066499946,617.9843704449959,left,2.767333203999442,None,,,,,,,,,,,138014,001,2024-12-02_18h50.21.412,Test,2024.2.1,59.111100744435305,2024-12-02 18h50.39.568630 +0100,
67,150,180,62,None,31,31,0,True,,,,left,1.0169700140031637,None,,,,,,,,,,,,,0,31,31,31,618.0107328250015,,,,,,,,,,,,,,,,,,,,,,,,,,,,,,,,,,,,,,,,,,,,,,,,,,,,,,,,,,,,,,,,,,,,,,,,,618.0006572540005,618.0107328250015,619.0148103829997,619.9978272769949,619.9978272769949,619.9978272769949,621.0177541379962,left,1.0169700140031637,None,,,,,,,,,,,138014,001,2024-12-02_18h50.21.412,Test,2024.2.1,59.111100744435305,2024-12-02 18h50.39.568630 +0100,
68,150,180,9,None,32,32,0,True,,,,right,1.3082418650010368,None,,,,,,,,,,,,,0,32,32,32,621.0363009020002,,,,,,,,,,,,,,,,,,,,,,,,,,,,,,,,,,,,,,,,,,,,,,,,,,,,,,,,,,,,,,,,,,,,,,,,,621.028786349998,621.0363009020002,622.0480897929956,623.0316205549971,623.0316205549971,623.0316205549971,624.3499637329951,right,1.3082418650010368,None,,,,,,,,,,,138014,001,2024-12-02_18h50.21.412,Test,2024.2.1,59.111100744435305,2024-12-02 18h50.39.568630 +0100,
43,150,30,51,None,33,33,0,True,,,,left,1.1345259709996753,None,,,,,,,,,,,,,0,33,33,33,624.3736109239981,,,,,,,,,,,,,,,,,,,,,,,,,,,,,,,,,,,,,,,,,,,,,,,,,,,,,,,,,,,,,,,,,,,,,,,,,624.3660918929963,624.3736109239981,625.3821100099958,626.3658804149964,626.3658804149964,626.3658804149964,627.5167821889991,left,1.1345259709996753,None,,,,,,,,,,,138014,001,2024-12-02_18h50.21.412,Test,2024.2.1,59.111100744435305,2024-12-02 18h50.39.568630 +0100,
56,150,120,54,None,34,34,0,True,,,,right,2.6061720119978418,None,,,,,,,,,,,,,0,34,34,34,627.5328120209961,,,,,,,,,,,,,,,,,,,,,,,,,,,,,,,,,,,,,,,,,,,,,,,,,,,,,,,,,,,,,,,,,,,,,,,,,627.5226444660002,627.5328120209961,628.5319311769999,629.5314840579958,629.5314840579958,629.5314840579958,632.150811554995,right,2.6061720119978418,None,,,,,,,,,,,138014,001,2024-12-02_18h50.21.412,Test,2024.2.1,59.111100744435305,2024-12-02 18h50.39.568630 +0100,
38,150,0,21,None,35,35,0,True,,,,left,1.7184421960046166,None,,,,,,,,,,,,,0,35,35,35,632.1668420040005,,,,,,,,,,,,,,,,,,,,,,,,,,,,,,,,,,,,,,,,,,,,,,,,,,,,,,,,,,,,,,,,,,,,,,,,,632.1582629619952,632.1668420040005,633.1828907419986,634.1659689169974,634.1659689169974,634.1659689169974,635.9015907879948,left,1.7184421960046166,None,,,,,,,,,,,138014,001,2024-12-02_18h50.21.412,Test,2024.2.1,59.111100744435305,2024-12-02 18h50.39.568630 +0100,
59,150,120,47,None,36,36,0,True,,,,left,1.185988274999545,None,,,,,,,,,,,,,0,36,36,36,635.9165679009966,,,,,,,,,,,,,,,,,,,,,,,,,,,,,,,,,,,,,,,,,,,,,,,,,,,,,,,,,,,,,,,,,,,,,,,,,635.907695404996,635.9165679009966,636.9161102409998,637.9167022229958,637.9167022229958,637.9167022229958,639.1177728139955,left,1.185988274999545,None,,,,,,,,,,,138014,001,2024-12-02_18h50.21.412,Test,2024.2.1,59.111100744435305,2024-12-02 18h50.39.568630 +0100,
20,150,90,24,None,37,37,0,False,,,,right,2.186631902004592,None,,,,,,,,,,,,,0,37,37,37,639.1329911259963,,,,,,,,,,,,,,,,,,,,,,,,,,,,,,,,,,,,,,,,,,,,,,,,,,,,,,,,,,,,,,,,,,,,,,,,,639.1241408009955,639.1329911259963,640.132884753999,641.1331299759986,641.1331299759986,641.1331299759986,643.3343532899962,right,2.186631902004592,None,,,,,,,,,,,138014,001,2024-12-02_18h50.21.412,Test,2024.2.1,59.111100744435305,2024-12-02 18h50.39.568630 +0100,
31,150,180,58,None,38,38,0,False,,,,right,0.9909906259999843,None,,,,,,,,,,,,,0,38,38,38,643.3500426239989,,,,,,,,,,,,,,,,,,,,,,,,,,,,,,,,,,,,,,,,,,,,,,,,,,,,,,,,,,,,,,,,,,,,,,,,,643.340603740995,643.3500426239989,644.3507436609943,645.3506699509962,645.3506699509962,645.3506699509962,646.3513320279962,right,0.9909906259999843,None,,,,,,,,,,,138014,001,2024-12-02_18h50.21.412,Test,2024.2.1,59.111100744435305,2024-12-02 18h50.39.568630 +0100,
9,150,30,5,None,39,39,0,False,,,,right,2.1768918879970443,None,,,,,,,,,,,,,0,39,39,39,646.3670587369998,,,,,,,,,,,,,,,,,,,,,,,,,,,,,,,,,,,,,,,,,,,,,,,,,,,,,,,,,,,,,,,,,,,,,,,,,646.3571363660012,646.3670587369998,647.3869350140012,648.3503079539951,648.3503079539951,648.3503079539951,650.5352025409957,right,2.1768918879970443,None,,,,,,,,,,,138014,001,2024-12-02_18h50.21.412,Test,2024.2.1,59.111100744435305,2024-12-02 18h50.39.568630 +0100,
8,150,30,43,None,40,40,0,False,,,,right,1.0925372179990518,None,,,,,,,,,,,,,0,40,40,40,650.5504593669975,,,,,,,,,,,,,,,,,,,,,,,,,,,,,,,,,,,,,,,,,,,,,,,,,,,,,,,,,,,,,,,,,,,,,,,,,650.541509470997,650.5504593669975,651.5508856769957,652.550622662995,652.550622662995,652.550622662995,653.6525989959991,right,1.0925372179990518,None,,,,,,,,,,,138014,001,2024-12-02_18h50.21.412,Test,2024.2.1,59.111100744435305,2024-12-02 18h50.39.568630 +0100,
64,150,150,63,None,41,41,0,True,,,,right,0.9784859760038671,None,,,,,,,,,,,,,0,41,41,41,653.668267944995,,,,,,,,,,,,,,,,,,,,,,,,,,,,,,,,,,,,,,,,,,,,,,,,,,,,,,,,,,,,,,,,,,,,,,,,,653.658273889996,653.668267944995,654.6676253920014,655.667738983997,655.667738983997,655.667738983997,656.6529515500006,right,0.9784859760038671,None,,,,,,,,,,,138014,001,2024-12-02_18h50.21.412,Test,2024.2.1,59.111100744435305,2024-12-02 18h50.39.568630 +0100,
21,150,120,52,None,42,42,0,False,,,,right,0.4891262379969703,None,,,,,,,,,,,,,0,42,42,42,656.6691684049947,,,,,,,,,,,,,,,,,,,,,,,,,,,,,,,,,,,,,,,,,,,,,,,,,,,,,,,,,,,,,,,,,,,,,,,,,656.6603313529995,656.6691684049947,657.6845890159966,658.6681646860015,658.6681646860015,658.6681646860015,659.1688917179999,right,0.4891262379969703,None,,,,,,,,,,,138014,001,2024-12-02_18h50.21.412,Test,2024.2.1,59.111100744435305,2024-12-02 18h50.39.568630 +0100,
66,150,180,1,None,43,43,0,True,,,,right,0.7051987790036947,None,,,,,,,,,,,,,0,43,43,43,659.1847158140008,,,,,,,,,,,,,,,,,,,,,,,,,,,,,,,,,,,,,,,,,,,,,,,,,,,,,,,,,,,,,,,,,,,,,,,,,659.1757584769948,659.1847158140008,660.1846585009989,661.1844136360014,661.1844136360014,661.1844136360014,661.902797969,right,0.7051987790036947,None,,,,,,,,,,,138014,001,2024-12-02_18h50.21.412,Test,2024.2.1,59.111100744435305,2024-12-02 18h50.39.568630 +0100,
2,150,0,64,None,44,44,0,False,,,,right,1.750453380998806,None,,,,,,,,,,,,,0,44,44,44,661.9185710609963,,,,,,,,,,,,,,,,,,,,,,,,,,,,,,,,,,,,,,,,,,,,,,,,,,,,,,,,,,,,,,,,,,,,,,,,,661.9096988409947,661.9185710609963,662.918363716999,663.9014838119983,663.9014838119983,663.9014838119983,665.6542340109954,right,1.750453380998806,None,,,,,,,,,,,138014,001,2024-12-02_18h50.21.412,Test,2024.2.1,59.111100744435305,2024-12-02 18h50.39.568630 +0100,
58,150,120,32,None,45,45,0,True,,,,right,1.3723592400056077,None,,,,,,,,,,,,,0,45,45,45,665.6706217949977,,,,,,,,,,,,,,,,,,,,,,,,,,,,,,,,,,,,,,,,,,,,,,,,,,,,,,,,,,,,,,,,,,,,,,,,,665.6616198039992,665.6706217949977,666.6849422199957,667.669195481998,667.669195481998,667.669195481998,669.0541002850005,right,1.3723592400056077,None,,,,,,,,,,,138014,001,2024-12-02_18h50.21.412,Test,2024.2.1,59.111100744435305,2024-12-02 18h50.39.568630 +0100,
23,150,120,70,None,46,46,0,False,,,,right,1.1673396109981695,None,,,,,,,,,,,,,0,46,46,46,669.0689494629987,,,,,,,,,,,,,,,,,,,,,,,,,,,,,,,,,,,,,,,,,,,,,,,,,,,,,,,,,,,,,,,,,,,,,,,,,669.0594790619944,669.0689494629987,670.0684101000006,671.0684476399983,671.0684476399983,671.0684476399983,672.2380914469977,right,1.1673396109981695,None,,,,,,,,,,,138014,001,2024-12-02_18h50.21.412,Test,2024.2.1,59.111100744435305,2024-12-02 18h50.39.568630 +0100,
19,150,90,33,None,47,47,0,False,,,,right,1.1138788319949526,None,,,,,,,,,,,,,0,47,47,47,672.2529469729998,,,,,,,,,,,,,,,,,,,,,,,,,,,,,,,,,,,,,,,,,,,,,,,,,,,,,,,,,,,,,,,,,,,,,,,,,672.2438613970007,672.2529469729998,673.2691056399999,674.2521659330014,674.2521659330014,674.2521659330014,675.3711732459997,right,1.1138788319949526,None,,,,,,,,,,,138014,001,2024-12-02_18h50.21.412,Test,2024.2.1,59.111100744435305,2024-12-02 18h50.39.568630 +0100,
12,150,60,44,None,48,48,0,False,,,,right,2.1367863019986544,None,,,,,,,,,,,,,0,48,48,48,675.3864680129991,,,,,,,,,,,,,,,,,,,,,,,,,,,,,,,,,,,,,,,,,,,,,,,,,,,,,,,,,,,,,,,,,,,,,,,,,675.3770628540005,675.3864680129991,676.3863991690014,677.3854988390012,677.3854988390012,677.3854988390012,679.5383734739953,right,2.1367863019986544,None,,,,,,,,,,,138014,001,2024-12-02_18h50.21.412,Test,2024.2.1,59.111100744435305,2024-12-02 18h50.39.568630 +0100,
33,150,180,60,None,49,49,0,False,,,,right,1.216679896999267,None,,,,,,,,,,,,,0,49,49,49,679.5554317169954,,,,,,,,,,,,,,,,,,,,,,,,,,,,,,,,,,,,,,,,,,,,,,,,,,,,,,,,,,,,,,,,,,,,,,,,,679.5462704979946,679.5554317169954,680.5698809870009,681.5527897889988,681.5527897889988,681.5527897889988,682.7724859949958,right,1.216679896999267,None,,,,,,,,,,,138014,001,2024-12-02_18h50.21.412,Test,2024.2.1,59.111100744435305,2024-12-02 18h50.39.568630 +0100,
5,150,0,40,None,50,50,0,False,,,,left,1.347497378999833,None,,,,,,,,,,,,,0,50,50,50,682.7872797719974,,,,,,,,,,,,,,,,,,,,,,,,,,,,,,,,,,,,,,,,,,,,,,,,,,,,,,,,,,,,,,,,,,,,,,,,,682.778721167997,682.7872797719974,683.7872695429978,684.7859145289985,684.7859145289985,684.7859145289985,686.1382689019956,left,1.347497378999833,None,,,,,,,,,,,138014,001,2024-12-02_18h50.21.412,Test,2024.2.1,59.111100744435305,2024-12-02 18h50.39.568630 +0100,
55,150,90,42,None,51,51,0,True,,,,left,1.2940768519983976,None,,,,,,,,,,,,,0,51,51,51,686.1540401469974,,,,,,,,,,,,,,,,,,,,,,,,,,,,,,,,,,,,,,,,,,,,,,,,,,,,,,,,,,,,,,,,,,,,,,,,,686.144570847995,686.1540401469974,687.1532693729969,688.1873437629984,688.1873437629984,688.1873437629984,689.4882914199989,left,1.2940768519983976,None,,,,,,,,,,,138014,001,2024-12-02_18h50.21.412,Test,2024.2.1,59.111100744435305,2024-12-02 18h50.39.568630 +0100,
34,150,180,12,None,52,52,0,False,,,,right,1.583988282000064,None,,,,,,,,,,,,,0,52,52,52,689.5029947199946,,,,,,,,,,,,,,,,,,,,,,,,,,,,,,,,,,,,,,,,,,,,,,,,,,,,,,,,,,,,,,,,,,,,,,,,,689.4935853399948,689.5029947199946,690.5030336249984,691.5036579259977,691.5036579259977,691.5036579259977,693.0904936590014,right,1.583988282000064,None,,,,,,,,,,,138014,001,2024-12-02_18h50.21.412,Test,2024.2.1,59.111100744435305,2024-12-02 18h50.39.568630 +0100,
32,150,180,23,None,53,53,0,False,,,,right,2.4164178900027764,None,,,,,,,,,,,,,0,53,53,53,693.105327928999,,,,,,,,,,,,,,,,,,,,,,,,,,,,,,,,,,,,,,,,,,,,,,,,,,,,,,,,,,,,,,,,,,,,,,,,,693.0962268869989,693.105327928999,694.1201177609983,695.1034240980007,695.1034240980007,695.1034240980007,697.5228917829954,right,2.4164178900027764,None,,,,,,,,,,,138014,001,2024-12-02_18h50.21.412,Test,2024.2.1,59.111100744435305,2024-12-02 18h50.39.568630 +0100,
70,150,180,66,None,54,54,0,True,,,,right,0.9399830960028339,None,,,,,,,,,,,,,0,54,54,54,697.5375269719952,,,,,,,,,,,,,,,,,,,,,,,,,,,,,,,,,,,,,,,,,,,,,,,,,,,,,,,,,,,,,,,,,,,,,,,,,697.5283891669969,697.5375269719952,698.5373405540013,699.5372713409961,699.5372713409961,699.5372713409961,700.4885795750015,right,0.9399830960028339,None,,,,,,,,,,,138014,001,2024-12-02_18h50.21.412,Test,2024.2.1,59.111100744435305,2024-12-02 18h50.39.568630 +0100,
45,150,30,11,None,55,55,0,True,,,,right,1.1654378579987679,None,,,,,,,,,,,,,0,55,55,55,700.5047731619998,,,,,,,,,,,,,,,,,,,,,,,,,,,,,,,,,,,,,,,,,,,,,,,,,,,,,,,,,,,,,,,,,,,,,,,,,700.4955851679988,700.5047731619998,701.5039992050006,702.5040603769958,702.5040603769958,702.5040603769958,703.6731852579978,right,1.1654378579987679,None,,,,,,,,,,,138014,001,2024-12-02_18h50.21.412,Test,2024.2.1,59.111100744435305,2024-12-02 18h50.39.568630 +0100,
44,150,30,20,None,56,56,0,True,,,,left,1.6284086849991581,None,,,,,,,,,,,,,0,56,56,56,703.6883883269984,,,,,,,,,,,,,,,,,,,,,,,,,,,,,,,,,,,,,,,,,,,,,,,,,,,,,,,,,,,,,,,,,,,,,,,,,703.6799969269996,703.6883883269984,704.6883028009979,705.687622366997,705.687622366997,705.687622366997,707.3238249679998,left,1.6284086849991581,None,,,,,,,,,,,138014,001,2024-12-02_18h50.21.412,Test,2024.2.1,59.111100744435305,2024-12-02 18h50.39.568630 +0100,
54,150,90,35,None,57,57,0,True,,,,right,1.6352132219981286,None,,,,,,,,,,,,,0,57,57,57,707.3388700899959,,,,,,,,,,,,,,,,,,,,,,,,,,,,,,,,,,,,,,,,,,,,,,,,,,,,,,,,,,,,,,,,,,,,,,,,,707.3297025479987,707.3388700899959,708.3544085629983,709.3373721309981,709.3373721309981,709.3373721309981,710.9898988259956,right,1.6352132219981286,None,,,,,,,,,,,138014,001,2024-12-02_18h50.21.412,Test,2024.2.1,59.111100744435305,2024-12-02 18h50.39.568630 +0100,
48,150,60,16,None,58,58,0,True,,,,right,1.218595873004233,None,,,,,,,,,,,,,0,58,58,58,711.0051631179958,,,,,,,,,,,,,,,,,,,,,,,,,,,,,,,,,,,,,,,,,,,,,,,,,,,,,,,,,,,,,,,,,,,,,,,,,710.9961737109988,711.0051631179958,712.0051959729972,713.0049881489977,713.0049881489977,713.0049881489977,714.2269720190016,right,1.218595873004233,None,,,,,,,,,,,138014,001,2024-12-02_18h50.21.412,Test,2024.2.1,59.111100744435305,2024-12-02 18h50.39.568630 +0100,
6,150,30,55,None,59,59,0,False,,,,right,0.9058168799965642,None,,,,,,,,,,,,,0,59,59,59,714.2424412519977,,,,,,,,,,,,,,,,,,,,,,,,,,,,,,,,,,,,,,,,,,,,,,,,,,,,,,,,,,,,,,,,,,,,,,,,,714.2338535819945,714.2424412519977,715.2464998569994,716.2387012609979,716.2387012609979,716.2387012609979,717.1572428869986,right,0.9058168799965642,None,,,,,,,,,,,138014,001,2024-12-02_18h50.21.412,Test,2024.2.1,59.111100744435305,2024-12-02 18h50.39.568630 +0100,
1,150,0,65,None,60,60,0,False,,,,right,2.6499922510047327,None,,,,,,,,,,,,,0,60,60,60,717.1739012539983,,,,,,,,,,,,,,,,,,,,,,,,,,,,,,,,,,,,,,,,,,,,,,,,,,,,,,,,,,,,,,,,,,,,,,,,,717.1645970539976,717.1739012539983,718.188032127,719.1716886659997,719.1716886659997,719.1716886659997,721.8248970999994,right,2.6499922510047327,None,,,,,,,,,,,138014,001,2024-12-02_18h50.21.412,Test,2024.2.1,59.111100744435305,2024-12-02 18h50.39.568630 +0100,
61,150,150,10,None,61,61,0,True,,,,left,1.3585973999943235,None,,,,,,,,,,,,,0,61,61,61,721.8395716259984,,,,,,,,,,,,,,,,,,,,,,,,,,,,,,,,,,,,,,,,,,,,,,,,,,,,,,,,,,,,,,,,,,,,,,,,,721.8308543489984,721.8395716259984,722.838630856997,723.8398693899944,723.8398693899944,723.8398693899944,725.207046992,left,1.3585973999943235,None,,,,,,,,,,,138014,001,2024-12-02_18h50.21.412,Test,2024.2.1,59.111100744435305,2024-12-02 18h50.39.568630 +0100,
69,150,180,18,None,62,62,0,True,,,,right,2.0306649320045835,None,,,,,,,,,,,,,0,62,62,62,725.2222625759969,,,,,,,,,,,,,,,,,,,,,,,,,,,,,,,,,,,,,,,,,,,,,,,,,,,,,,,,,,,,,,,,,,,,,,,,,725.2132334929993,725.2222625759969,726.2231647619992,727.2224063149988,727.2224063149988,727.2224063149988,729.2581171739948,right,2.0306649320045835,None,,,,,,,,,,,138014,001,2024-12-02_18h50.21.412,Test,2024.2.1,59.111100744435305,2024-12-02 18h50.39.568630 +0100,
4,150,0,57,None,63,63,0,False,,,,left,1.0523088300033123,None,,,,,,,,,,,,,0,63,63,63,729.273727558997,,,,,,,,,,,,,,,,,,,,,,,,,,,,,,,,,,,,,,,,,,,,,,,,,,,,,,,,,,,,,,,,,,,,,,,,,729.263892377996,729.273727558997,730.2892426089966,731.2722999839971,731.2722999839971,731.2722999839971,732.3411133189948,left,1.0523088300033123,None,,,,,,,,,,,138014,001,2024-12-02_18h50.21.412,Test,2024.2.1,59.111100744435305,2024-12-02 18h50.39.568630 +0100,
39,150,0,13,None,64,64,0,True,,,,left,1.7726391809992492,None,,,,,,,,,,,,,0,64,64,64,732.3560172759971,,,,,,,,,,,,,,,,,,,,,,,,,,,,,,,,,,,,,,,,,,,,,,,,,,,,,,,,,,,,,,,,,,,,,,,,,732.3467048269958,732.3560172759971,733.3559626360002,734.3561780159944,734.3561780159944,734.3561780159944,736.1415679019992,left,1.7726391809992492,None,,,,,,,,,,,138014,001,2024-12-02_18h50.21.412,Test,2024.2.1,59.111100744435305,2024-12-02 18h50.39.568630 +0100,
24,150,120,26,None,65,65,0,False,,,,left,1.433581906996551,None,,,,,,,,,,,,,0,65,65,65,736.1571178019949,,,,,,,,,,,,,,,,,,,,,,,,,,,,,,,,,,,,,,,,,,,,,,,,,,,,,,,,,,,,,,,,,,,,,,,,,736.1475258579958,736.1571178019949,737.1564160139969,738.1572713739952,738.1572713739952,738.1572713739952,739.5931971129976,left,1.433581906996551,None,,,,,,,,,,,138014,001,2024-12-02_18h50.21.412,Test,2024.2.1,59.111100744435305,2024-12-02 18h50.39.568630 +0100,
50,150,60,28,None,66,66,0,True,,,,left,0.7169898099964485,None,,,,,,,,,,,,,0,66,66,66,739.6080389269991,,,,,,,,,,,,,,,,,,,,,,,,,,,,,,,,,,,,,,,,,,,,,,,,,,,,,,,,,,,,,,,,,,,,,,,,,739.5990484329959,739.6080389269991,740.6231811850012,741.6069357749948,741.6069357749948,741.6069357749948,742.3261965790007,left,0.7169898099964485,None,,,,,,,,,,,138014,001,2024-12-02_18h50.21.412,Test,2024.2.1,59.111100744435305,2024-12-02 18h50.39.568630 +0100,
30,150,150,67,None,67,67,0,False,,,,right,1.9903713449966745,None,,,,,,,,,,,,,0,67,67,67,742.3403226599985,,,,,,,,,,,,,,,,,,,,,,,,,,,,,,,,,,,,,,,,,,,,,,,,,,,,,,,,,,,,,,,,,,,,,,,,,742.3312614349998,742.3403226599985,743.3400626209987,744.3400271179999,744.3400271179999,744.3400271179999,746.3422210809949,right,1.9903713449966745,None,,,,,,,,,,,138014,001,2024-12-02_18h50.21.412,Test,2024.2.1,59.111100744435305,2024-12-02 18h50.39.568630 +0100,
15,150,60,6,None,68,68,0,False,,,,right,3.900848067001789,None,,,,,,,,,,,,,0,68,68,68,746.3590234309959,,,,,,,,,,,,,,,,,,,,,,,,,,,,,,,,,,,,,,,,,,,,,,,,,,,,,,,,,,,,,,,,,,,,,,,,,746.3497144879948,746.3590234309959,747.3743367429997,748.3572291679957,748.3572291679957,748.3572291679957,752.2602889569971,right,3.900848067001789,None,751.3565865259952,751.3565865259952,751.3400444949948,,,,,,,,138014,001,2024-12-02_18h50.21.412,Test,2024.2.1,59.111100744435305,2024-12-02 18h50.39.568630 +0100,
52,150,90,2,None,69,69,0,True,,,,left,3.091871036995144,None,,,,,,,,,,,,,0,69,69,69,752.275216187998,,,,,,,,,,,,,,,,,,,,,,,,,,,,,,,,,,,,,,,,,,,,,,,,,,,,,,,,,,,,,,,,,,,,,,,,,752.2661824120005,752.275216187998,753.2750917449957,754.275070650001,754.275070650001,754.275070650001,757.3756449549983,left,3.091871036995144,None,757.2744942349964,757.2744942349964,757.2744942349964,,,,,,,,138014,001,2024-12-02_18h50.21.412,Test,2024.2.1,59.111100744435305,2024-12-02 18h50.39.568630 +0100,
,,,,,,,,,,,,,,,,,,,,,,,,,,,,,,,,,,,,,,,,,,,,,,,,,,,,,,,,,,,,,,,,,,,,,,,,,,,,,,,,,,,,,,,,,,,,,,,,,,,,,,,,,,,,,,,,,,,,,757.3758117350008,757.3910095499959,757.3910095499959,760.526810147996,space,3.1205030970013468,None,138014,001,2024-12-02_18h50.21.412,Test,2024.2.1,59.111100744435305,2024-12-02 18h50.39.568630 +0100,
