Trial_Number,Exposure_Duration,Displacement_Angle,Stimulus,Response,thisN,thisTrialN,thisRepN,Is_Distractor,key_resp_3.keys,key_resp_3.rt,key_resp_3.duration,key_resp_7.keys,key_resp_7.rt,key_resp_7.duration,trials.thisRepN,trials.thisTrialN,trials.thisN,trials.thisIndex,trials_2.thisRepN,trials_2.thisTrialN,trials_2.thisN,trials_2.thisIndex,trials_3.thisRepN,trials_3.thisTrialN,trials_3.thisN,trials_3.thisIndex,trials_4.thisRepN,trials_4.thisTrialN,trials_4.thisN,trials_4.thisIndex,thisRow.t,notes,Intro_to_experiment.started,important1_2.started,key_resp_8.started,Intro_to_experiment.stopped,key_resp_8.keys,key_resp_8.rt,key_resp_8.duration,important.started,important1.started,key_resp_4.started,important.stopped,key_resp_4.keys,key_resp_4.rt,key_resp_4.duration,training_instruction.started,key_resp_9.started,important1_3.started,training_instruction.stopped,key_resp_9.keys,key_resp_9.rt,key_resp_9.duration,training_trial.started,cross.started,image.started,aperture.started,cross.stopped,image.stopped,aperture.stopped,training_trial.stopped,New_instruction.started,text.started,key_resp_2.started,New_instruction.stopped,key_resp_2.keys,key_resp_2.rt,key_resp_2.duration,test_trial.started,cross2.started,cross2.stopped,image_2.started,key_resp_3.started,aperture_2.started,test_trial.stopped,trials_2.key_resp_3.keys,trials_2.key_resp_3.rt,trials_2.key_resp_3.duration,image_2.stopped,aperture_2.stopped,text_3.started,start_blok_2.started,key_resp_5.started,text_4.started,start_blok_2.stopped,key_resp_5.keys,key_resp_5.rt,key_resp_5.duration,training_2.started,cross_2.started,image_3.started,aperture_3.started,cross_2.stopped,image_3.stopped,aperture_3.stopped,training_2.stopped,nyeste_instruks.started,text_5.started,key_resp_6.started,nyeste_instruks.stopped,key_resp_6.keys,key_resp_6.rt,key_resp_6.duration,test_2.started,cross2_2.started,cross2_2.stopped,image_4.started,key_resp_7.started,aperture_4.started,test_2.stopped,trials_4.key_resp_7.keys,trials_4.key_resp_7.rt,trials_4.key_resp_7.duration,image_4.stopped,aperture_4.stopped,text_6.started,Instruction.started,Instruktion.started,key_resp.started,Instruction.stopped,key_resp.keys,key_resp.rt,key_resp.duration,participant,session,date,expName,psychopyVersion,frameRate,expStart,
,,,,,,,,,,,,,,,,,,,,,,,,,,,,,,,,,0.0063095829682424664,0.022072874999139458,0.022072874999139458,72.30791804095497,space,72.2788040000014,None,,,,,,,,,,,,,,,,,,,,,,,,,,,,,,,,,,,,,,,,,,,,,,,,,,,,,,,,,,,,,,,,,,,,,,,,,,,,,,,,,,,,,205464,001,2024-12-05_13h08.29.969,Test,2024.2.4,None,2024-12-05 13h08.38.083919 +0100,
,,,,,,,,,,,,,,,,,,,,,,,,,,,,,,,,,,,,,,,,72.30826149997301,72.33523554098792,72.33523554098792,86.04960945795756,space,13.708093040972017,None,,,,,,,,,,,,,,,,,,,,,,,,,,,,,,,,,,,,,,,,,,,,,,,,,,,,,,,,,,,,,,,,,,,,,,,,,,,,,,205464,001,2024-12-05_13h08.29.969,Test,2024.2.4,None,2024-12-05 13h08.38.083919 +0100,
,,,,,,,,,,,,,,,,,,,,,,,,,,,,,,,,,,,,,,,,,,,,,,,86.04993325000396,86.06360483297613,86.06360483297613,101.26377699995646,space,15.19308695802465,None,,,,,,,,,,,,,,,,,,,,,,,,,,,,,,,,,,,,,,,,,,,,,,,,,,,,,,,,,,,,,,,,,,,,,,,205464,001,2024-12-05_13h08.29.969,Test,2024.2.4,None,2024-12-05 13h08.38.083919 +0100,
8,150,30,18,None,0,0,0,,,,,,,,0,0,0,7,,,,,,,,,,,,,101.32458183297422,,,,,,,,,,,,,,,,,,,,,,,101.31785104097798,101.32458183297422,101.46096512500662,101.46096512500662,101.52237837499706,103.1607386249816,103.1607386249816,103.14604074996896,,,,,,,,,,,,,,,,,,,,,,,,,,,,,,,,,,,,,,,,,,,,,,,,,,,,,,,,,,,,,,,205464,001,2024-12-05_13h08.29.969,Test,2024.2.4,None,2024-12-05 13h08.38.083919 +0100,
26,150,150,1,None,1,1,0,,,,,,,,0,1,1,25,,,,,,,,,,,,,103.1607386249816,,,,,,,,,,,,,,,,,,,,,,,103.15600016596727,103.17243608296849,103.36215233296389,103.36215233296389,103.36215233296389,105.05726099997992,105.05726099997992,105.04571841598954,,,,,,,,,,,,,,,,,,,,,,,,,,,,,,,,,,,,,,,,,,,,,,,,,,,,,,,,,,,,,,,205464,001,2024-12-05_13h08.29.969,Test,2024.2.4,None,2024-12-05 13h08.38.083919 +0100,
31,150,180,46,None,2,2,0,,,,,,,,0,2,2,30,,,,,,,,,,,,,105.05726099997992,,,,,,,,,,,,,,,,,,,,,,,105.05248254095204,105.07220066600712,105.26589283300564,105.26589283300564,105.26589283300564,106.97191970795393,106.97191970795393,106.95659949997207,,,,,,,,,,,,,,,,,,,,,,,,,,,,,,,,,,,,,,,,,,,,,,,,,,,,,,,,,,,,,,,205464,001,2024-12-05_13h08.29.969,Test,2024.2.4,None,2024-12-05 13h08.38.083919 +0100,
20,150,90,65,None,3,3,0,,,,,,,,0,3,3,19,,,,,,,,,,,,,106.97191970795393,,,,,,,,,,,,,,,,,,,,,,,106.96646812499966,106.97191970795393,107.1623855829821,107.1623855829821,107.1623855829821,108.86721629096428,108.86721629096428,108.85652208299143,,,,,,,,,,,,,,,,,,,,,,,,,,,,,,,,,,,,,,,,,,,,,,,,,,,,,,,,,,,,,,,205464,001,2024-12-05_13h08.29.969,Test,2024.2.4,None,2024-12-05 13h08.38.083919 +0100,
19,150,90,40,None,4,4,0,,,,,,,,0,4,4,18,,,,,,,,,,,,,108.86721629096428,,,,,,,,,,,,,,,,,,,,,,,108.86277508299099,108.86721629096428,109.06213370797923,109.06213370797923,109.06213370797923,110.7595419579884,110.7595419579884,110.74561916600214,,,,,,,,,,,,,,,,,,,,,,,,,,,,,,,,,,,,,,,,,,,,,,,,,,,,,,,,,,,,,,,205464,001,2024-12-05_13h08.29.969,Test,2024.2.4,None,2024-12-05 13h08.38.083919 +0100,
1,150,0,41,None,5,5,0,,,,,,,,0,5,5,0,,,,,,,,,,,,,110.7595419579884,,,,,,,,,,,,,,,,,,,,,,,110.75544124998851,110.77218749996973,110.96197741595097,110.96197741595097,110.96197741595097,112.66016608296195,112.66016608296195,112.64622033300111,,,,,,,,,,,,,,,,,,,,,,,,,,,,,,,,,,,,,,,,,,,,,,,,,,,,,,,,,,,,,,,205464,001,2024-12-05_13h08.29.969,Test,2024.2.4,None,2024-12-05 13h08.38.083919 +0100,
14,150,60,50,None,6,6,0,,,,,,,,0,6,6,13,,,,,,,,,,,,,112.66016608296195,,,,,,,,,,,,,,,,,,,,,,,112.65509995800676,112.67239137500292,112.86071545799496,112.86071545799496,112.86071545799496,114.56532216595951,114.56532216595951,114.54621649999171,,,,,,,,,,,,,,,,,,,,,,,,,,,,,,,,,,,,,,,,,,,,,,,,,,,,,,,,,,,,,,,205464,001,2024-12-05_13h08.29.969,Test,2024.2.4,None,2024-12-05 13h08.38.083919 +0100,
21,150,120,35,None,7,7,0,,,,,,,,0,7,7,20,,,,,,,,,,,,,114.56532216595951,,,,,,,,,,,,,,,,,,,,,,,114.56140070798574,114.57070691598346,114.76262337499065,114.76262337499065,114.76262337499065,116.45954533299664,116.45954533299664,116.44591891596792,,,,,,,,,,,,,,,,,,,,,,,,,,,,,,,,,,,,,,,,,,,,,,,,,,,,,,,,,,,,,,,205464,001,2024-12-05_13h08.29.969,Test,2024.2.4,None,2024-12-05 13h08.38.083919 +0100,
23,150,120,47,None,8,8,0,,,,,,,,0,8,8,22,,,,,,,,,,,,,116.45954533299664,,,,,,,,,,,,,,,,,,,,,,,116.45516804099316,116.4722976659541,116.66354499995941,116.66354499995941,116.66354499995941,118.37157337495591,118.37157337495591,118.35659824998584,,,,,,,,,,,,,,,,,,,,,,,,,,,,,,,,,,,,,,,,,,,,,,,,,,,,,,,,,,,,,,,205464,001,2024-12-05_13h08.29.969,Test,2024.2.4,None,2024-12-05 13h08.38.083919 +0100,
15,150,60,54,None,9,9,0,,,,,,,,0,9,9,14,,,,,,,,,,,,,118.37157337495591,,,,,,,,,,,,,,,,,,,,,,,118.36614412500057,118.37157337495591,118.56280241598142,118.56280241598142,118.56280241598142,120.27247149997856,120.27247149997856,120.2566773329745,,,,,,,,,,,,,,,,,,,,,,,,,,,,,,,,,,,,,,,,,,,,,,,,,,,,,,,,,,,,,,,205464,001,2024-12-05_13h08.29.969,Test,2024.2.4,None,2024-12-05 13h08.38.083919 +0100,
5,150,0,56,None,10,10,0,,,,,,,,0,10,10,4,,,,,,,,,,,,,120.27247149997856,,,,,,,,,,,,,,,,,,,,,,,120.2670591250062,120.27247149997856,120.46285504096886,120.46285504096886,120.46285504096886,122.1604824999813,122.1604824999813,122.1460251249955,,,,,,,,,,,,,,,,,,,,,,,,,,,,,,,,,,,,,,,,,,,,,,,,,,,,,,,,,,,,,,,205464,001,2024-12-05_13h08.29.969,Test,2024.2.4,None,2024-12-05 13h08.38.083919 +0100,
17,150,90,38,None,11,11,0,,,,,,,,0,11,11,16,,,,,,,,,,,,,122.1604824999813,,,,,,,,,,,,,,,,,,,,,,,122.15507233300013,122.17240316595417,122.36259791598422,122.36259791598422,122.36259791598422,124.05994516599458,124.05994516599458,124.04594187496696,,,,,,,,,,,,,,,,,,,,,,,,,,,,,,,,,,,,,,,,,,,,,,,,,,,,,,,,,,,,,,,205464,001,2024-12-05_13h08.29.969,Test,2024.2.4,None,2024-12-05 13h08.38.083919 +0100,
24,150,120,27,None,12,12,0,,,,,,,,0,12,12,23,,,,,,,,,,,,,124.05994516599458,,,,,,,,,,,,,,,,,,,,,,,124.05553074995987,124.07236745796399,124.2622922079754,124.2622922079754,124.2622922079754,125.95957266597543,125.95957266597543,125.94613633299014,,,,,,,,,,,,,,,,,,,,,,,,,,,,,,,,,,,,,,,,,,,,,,,,,,,,,,,,,,,,,,,205464,001,2024-12-05_13h08.29.969,Test,2024.2.4,None,2024-12-05 13h08.38.083919 +0100,
27,150,150,48,None,13,13,0,,,,,,,,0,13,13,26,,,,,,,,,,,,,125.95957266597543,,,,,,,,,,,,,,,,,,,,,,,125.95493299997179,125.97227458300767,126.16247849998763,126.16247849998763,126.16247849998763,127.8586393329897,127.8586393329897,127.84561837499496,,,,,,,,,,,,,,,,,,,,,,,,,,,,,,,,,,,,,,,,,,,,,,,,,,,,,,,,,,,,,,,205464,001,2024-12-05_13h08.29.969,Test,2024.2.4,None,2024-12-05 13h08.38.083919 +0100,
7,150,30,57,None,14,14,0,,,,,,,,0,14,14,6,,,,,,,,,,,,,127.8586393329897,,,,,,,,,,,,,,,,,,,,,,,127.85439779097214,127.87236866599414,128.0621788330027,128.0621788330027,128.0621788330027,129.7769764160039,129.7769764160039,129.75629074999597,,,,,,,,,,,,,,,,,,,,,,,,,,,,,,,,,,,,,,,,,,,,,,,,,,,,,,,,,,,,,,,205464,001,2024-12-05_13h08.29.969,Test,2024.2.4,None,2024-12-05 13h08.38.083919 +0100,
12,150,60,64,None,15,15,0,,,,,,,,0,15,15,11,,,,,,,,,,,,,129.7769764160039,,,,,,,,,,,,,,,,,,,,,,,129.77261225000257,129.7769764160039,129.9630649999599,129.9630649999599,129.98045437497785,131.67403212498175,131.67403212498175,131.6566904579522,,,,,,,,,,,,,,,,,,,,,,,,,,,,,,,,,,,,,,,,,,,,,,,,,,,,,,,,,,,,,,,205464,001,2024-12-05_13h08.29.969,Test,2024.2.4,None,2024-12-05 13h08.38.083919 +0100,
6,150,30,53,None,16,16,0,,,,,,,,0,16,16,5,,,,,,,,,,,,,131.67403212498175,,,,,,,,,,,,,,,,,,,,,,,131.66895033296896,131.67403212498175,131.8636640830082,131.8636640830082,131.87155366595834,133.57256320799934,133.57256320799934,133.5569477499812,,,,,,,,,,,,,,,,,,,,,,,,,,,,,,,,,,,,,,,,,,,,,,,,,,,,,,,,,,,,,,,205464,001,2024-12-05_13h08.29.969,Test,2024.2.4,None,2024-12-05 13h08.38.083919 +0100,
22,150,120,17,None,17,17,0,,,,,,,,0,17,17,21,,,,,,,,,,,,,133.57256320799934,,,,,,,,,,,,,,,,,,,,,,,133.5671935409773,133.57256320799934,133.76262479100842,133.76262479100842,133.76262479100842,135.4707251249929,135.4707251249929,135.45651054097107,,,,,,,,,,,,,,,,,,,,,,,,,,,,,,,,,,,,,,,,,,,,,,,,,,,,,,,,,,,,,,,205464,001,2024-12-05_13h08.29.969,Test,2024.2.4,None,2024-12-05 13h08.38.083919 +0100,
18,150,90,23,None,18,18,0,,,,,,,,0,18,18,17,,,,,,,,,,,,,135.4707251249929,,,,,,,,,,,,,,,,,,,,,,,135.46509183297167,135.4707251249929,135.6625333330012,135.6625333330012,135.6625333330012,137.35954879096244,137.35954879096244,137.34627712500514,,,,,,,,,,,,,,,,,,,,,,,,,,,,,,,,,,,,,,,,,,,,,,,,,,,,,,,,,,,,,,,205464,001,2024-12-05_13h08.29.969,Test,2024.2.4,None,2024-12-05 13h08.38.083919 +0100,
30,150,150,26,None,19,19,0,,,,,,,,0,19,19,29,,,,,,,,,,,,,137.35954879096244,,,,,,,,,,,,,,,,,,,,,,,137.35502154100686,137.37234208296286,137.56254124996485,137.56254124996485,137.56254124996485,139.26051408296917,139.26051408296917,139.24620858300477,,,,,,,,,,,,,,,,,,,,,,,,,,,,,,,,,,,,,,,,,,,,,,,,,,,,,,,,,,,,,,,205464,001,2024-12-05_13h08.29.969,Test,2024.2.4,None,2024-12-05 13h08.38.083919 +0100,
28,150,150,44,None,20,20,0,,,,,,,,0,20,20,27,,,,,,,,,,,,,139.26051408296917,,,,,,,,,,,,,,,,,,,,,,,139.25570599996718,139.27249012497487,139.46289920795243,139.46289920795243,139.46289920795243,141.16175616596593,141.16175616596593,141.14600591600174,,,,,,,,,,,,,,,,,,,,,,,,,,,,,,,,,,,,,,,,,,,,,,,,,,,,,,,,,,,,,,,205464,001,2024-12-05_13h08.29.969,Test,2024.2.4,None,2024-12-05 13h08.38.083919 +0100,
35,150,180,24,None,21,21,0,,,,,,,,0,21,21,34,,,,,,,,,,,,,141.16175616596593,,,,,,,,,,,,,,,,,,,,,,,141.15695354097988,141.1723299580044,141.36263954098104,141.36263954098104,141.36263954098104,143.07541679096175,143.07541679096175,143.05584679095773,,,,,,,,,,,,,,,,,,,,,,,,,,,,,,,,,,,,,,,,,,,,,,,,,,,,,,,,,,,,,,,205464,001,2024-12-05_13h08.29.969,Test,2024.2.4,None,2024-12-05 13h08.38.083919 +0100,
34,150,180,31,None,22,22,0,,,,,,,,0,22,22,33,,,,,,,,,,,,,143.07541679096175,,,,,,,,,,,,,,,,,,,,,,,143.07024345797254,143.07541679096175,143.2574884579517,143.2574884579517,143.27679791598348,144.95897579099983,144.95897579099983,144.945864874986,,,,,,,,,,,,,,,,,,,,,,,,,,,,,,,,,,,,,,,,,,,,,,,,,,,,,,,,,,,,,,,205464,001,2024-12-05_13h08.29.969,Test,2024.2.4,None,2024-12-05 13h08.38.083919 +0100,
29,150,150,14,None,23,23,0,,,,,,,,0,23,23,28,,,,,,,,,,,,,144.95897579099983,,,,,,,,,,,,,,,,,,,,,,,144.954397124995,144.97228954097955,145.16267879097722,145.16267879097722,145.16267879097722,146.86085545795504,146.86085545795504,146.84599487495143,,,,,,,,,,,,,,,,,,,,,,,,,,,,,,,,,,,,,,,,,,,,,,,,,,,,,,,,,,,,,,,205464,001,2024-12-05_13h08.29.969,Test,2024.2.4,None,2024-12-05 13h08.38.083919 +0100,
25,150,120,21,None,24,24,0,,,,,,,,0,24,24,24,,,,,,,,,,,,,146.86085545795504,,,,,,,,,,,,,,,,,,,,,,,146.85602658300195,146.87216145795537,147.06257445795927,147.06257445795927,147.06257445795927,148.75877374998527,148.75877374998527,148.74572341598105,,,,,,,,,,,,,,,,,,,,,,,,,,,,,,,,,,,,,,,,,,,,,,,,,,,,,,,,,,,,,,,205464,001,2024-12-05_13h08.29.969,Test,2024.2.4,None,2024-12-05 13h08.38.083919 +0100,
11,150,60,61,None,25,25,0,,,,,,,,0,25,25,10,,,,,,,,,,,,,148.75877374998527,,,,,,,,,,,,,,,,,,,,,,,148.75430450000567,148.77239174995339,148.9627379999729,148.9627379999729,148.9627379999729,150.67204316600692,150.67204316600692,150.65664408297744,,,,,,,,,,,,,,,,,,,,,,,,,,,,,,,,,,,,,,,,,,,,,,,,,,,,,,,,,,,,,,,205464,001,2024-12-05_13h08.29.969,Test,2024.2.4,None,2024-12-05 13h08.38.083919 +0100,
32,150,180,42,None,26,26,0,,,,,,,,0,26,26,31,,,,,,,,,,,,,150.67204316600692,,,,,,,,,,,,,,,,,,,,,,,150.66607449995354,150.67204316600692,150.8625037909951,150.8625037909951,150.8625037909951,152.5581098329858,152.5581098329858,152.54607854096685,,,,,,,,,,,,,,,,,,,,,,,,,,,,,,,,,,,,,,,,,,,,,,,,,,,,,,,,,,,,,,,205464,001,2024-12-05_13h08.29.969,Test,2024.2.4,None,2024-12-05 13h08.38.083919 +0100,
3,150,0,8,None,27,27,0,,,,,,,,0,27,27,2,,,,,,,,,,,,,152.5581098329858,,,,,,,,,,,,,,,,,,,,,,,152.55387349997181,152.5723897079588,152.7626307909959,152.7626307909959,152.7626307909959,154.47193474997766,154.47193474997766,154.45698495797114,,,,,,,,,,,,,,,,,,,,,,,,,,,,,,,,,,,,,,,,,,,,,,,,,,,,,,,,,,,,,,,205464,001,2024-12-05_13h08.29.969,Test,2024.2.4,None,2024-12-05 13h08.38.083919 +0100,
33,150,180,62,None,28,28,0,,,,,,,,0,28,28,32,,,,,,,,,,,,,154.47193474997766,,,,,,,,,,,,,,,,,,,,,,,154.46641074999934,154.47193474997766,154.6629246249795,154.6629246249795,154.6629246249795,156.37094208295457,156.37094208295457,156.35671058297157,,,,,,,,,,,,,,,,,,,,,,,,,,,,,,,,,,,,,,,,,,,,,,,,,,,,,,,,,,,,,,,205464,001,2024-12-05_13h08.29.969,Test,2024.2.4,None,2024-12-05 13h08.38.083919 +0100,
13,150,60,45,None,29,29,0,,,,,,,,0,29,29,12,,,,,,,,,,,,,156.37094208295457,,,,,,,,,,,,,,,,,,,,,,,156.365500874992,156.37094208295457,156.562296374992,156.562296374992,156.562296374992,158.2594727499527,158.2594727499527,158.24617016600678,,,,,,,,,,,,,,,,,,,,,,,,,,,,,,,,,,,,,,,,,,,,,,,,,,,,,,,,,,,,,,,205464,001,2024-12-05_13h08.29.969,Test,2024.2.4,None,2024-12-05 13h08.38.083919 +0100,
16,150,90,52,None,30,30,0,,,,,,,,0,30,30,15,,,,,,,,,,,,,158.2594727499527,,,,,,,,,,,,,,,,,,,,,,,158.2547771249665,158.27246504096547,158.46283779095393,158.46283779095393,158.46283779095393,160.1596832079813,160.1596832079813,160.1465869579697,,,,,,,,,,,,,,,,,,,,,,,,,,,,,,,,,,,,,,,,,,,,,,,,,,,,,,,,,,,,,,,205464,001,2024-12-05_13h08.29.969,Test,2024.2.4,None,2024-12-05 13h08.38.083919 +0100,
10,150,30,43,None,31,31,0,,,,,,,,0,31,31,9,,,,,,,,,,,,,160.1596832079813,,,,,,,,,,,,,,,,,,,,,,,160.15555241599213,160.1722317909589,160.36227608297486,160.36227608297486,160.36227608297486,162.05803579097847,162.05803579097847,162.04550587496487,,,,,,,,,,,,,,,,,,,,,,,,,,,,,,,,,,,,,,,,,,,,,,,,,,,,,,,,,,,,,,,205464,001,2024-12-05_13h08.29.969,Test,2024.2.4,None,2024-12-05 13h08.38.083919 +0100,
4,150,0,32,None,32,32,0,,,,,,,,0,32,32,3,,,,,,,,,,,,,162.05803579097847,,,,,,,,,,,,,,,,,,,,,,,162.05348783300724,162.07234724995214,162.26303375000134,162.26303375000134,162.26303375000134,163.97194820799632,163.97194820799632,163.95661379100056,,,,,,,,,,,,,,,,,,,,,,,,,,,,,,,,,,,,,,,,,,,,,,,,,,,,,,,,,,,,,,,205464,001,2024-12-05_13h08.29.969,Test,2024.2.4,None,2024-12-05 13h08.38.083919 +0100,
9,150,30,29,None,33,33,0,,,,,,,,0,33,33,8,,,,,,,,,,,,,163.97194820799632,,,,,,,,,,,,,,,,,,,,,,,163.9664193749777,163.97194820799632,164.16261224995833,164.16261224995833,164.16261224995833,165.86083766596857,165.86083766596857,165.84600154095097,,,,,,,,,,,,,,,,,,,,,,,,,,,,,,,,,,,,,,,,,,,,,,,,,,,,,,,,,,,,,,,205464,001,2024-12-05_13h08.29.969,Test,2024.2.4,None,2024-12-05 13h08.38.083919 +0100,
2,150,0,66,None,34,34,0,,,,,,,,0,34,34,1,,,,,,,,,,,,,165.86083766596857,,,,,,,,,,,,,,,,,,,,,,,165.85583695798414,165.87232120800763,166.06231279100757,166.06231279100757,166.06231279100757,167.75572141597513,167.75572141597513,167.7459136659745,,,,,,,,,,,,,,,,,,,,,,,,,,,,,,,,,,,,,,,,,,,,,,,,,,,,,,,,,,,,,,,205464,001,2024-12-05_13h08.29.969,Test,2024.2.4,None,2024-12-05 13h08.38.083919 +0100,
,,,,,,,,,,,,,,,,,,,,,,,,,,,,,,,,,,,,,,,,,,,,,,,,,,,,,,,,,,,,,,167.74618054099847,167.76552166597685,167.76552166597685,182.68355083296774,space,14.908595916989725,None,,,,,,,,,,,,,,,,,,,,,,,,,,,,,,,,,,,,,,,,,,,,,,,,,,,,,,,,205464,001,2024-12-05_13h08.29.969,Test,2024.2.4,None,2024-12-05 13h08.38.083919 +0100,
38,150,0,49,None,0,0,0,True,left,2.532659166958183,None,,,,,,,,0,0,0,0,,,,,,,,,182.72244387498358,,,,,,,,,,,,,,,,,,,,,,,,,,,,,,,,,,,,,,182.71074949996546,182.72244387498358,183.71066104096826,184.6799944579834,184.6799944579834,184.6799944579834,187.22538049996365,left,2.532659166958183,None,,,,,,,,,,,,,,,,,,,,,,,,,,,,,,,,,,,,,,,,,,,,,,205464,001,2024-12-05_13h08.29.969,Test,2024.2.4,None,2024-12-05 13h08.38.083919 +0100,
9,150,30,29,None,1,1,0,False,right,0.7022869170177728,None,,,,,,,,0,1,1,1,,,,,,,,,187.25528954097535,,,,,,,,,,,,,,,,,,,,,,,,,,,,,,,,,,,,,,187.23449237499153,187.25528954097535,188.2443237080006,189.22259129100712,189.22259129100712,189.22259129100712,189.93122920795577,right,0.7022869170177728,None,,,,,,,,,,,,,,,,,,,,,,,,,,,,,,,,,,,,,,,,,,,,,,205464,001,2024-12-05_13h08.29.969,Test,2024.2.4,None,2024-12-05 13h08.38.083919 +0100,
13,150,60,45,None,2,2,0,False,right,0.7022862919839099,None,,,,,,,,0,2,2,2,,,,,,,,,189.94775808299892,,,,,,,,,,,,,,,,,,,,,,,,,,,,,,,,,,,,,,189.94088737497805,189.94775808299892,190.94428729097126,191.93020208296366,191.93020208296366,191.93020208296366,192.64200979098678,right,0.7022862919839099,None,,,,,,,,,,,,,,,,,,,,,,,,,,,,,,,,,,,,,,,,,,,,,,205464,001,2024-12-05_13h08.29.969,Test,2024.2.4,None,2024-12-05 13h08.38.083919 +0100,
35,150,180,24,None,3,3,0,False,right,1.1167514999979176,None,,,,,,,,0,3,3,3,,,,,,,,,192.659393540991,,,,,,,,,,,,,,,,,,,,,,,,,,,,,,,,,,,,,,192.65263941598823,192.659393540991,193.65579545800574,194.63940583297517,194.63940583297517,194.63940583297517,195.75898995797615,right,1.1167514999979176,None,,,,,,,,,,,,,,,,,,,,,,,,,,,,,,,,,,,,,,,,,,,,,,205464,001,2024-12-05_13h08.29.969,Test,2024.2.4,None,2024-12-05 13h08.38.083919 +0100,
57,150,120,16,None,4,4,0,True,right,0.8003461670014076,None,,,,,,,,0,4,4,4,,,,,,,,,195.77436729095643,,,,,,,,,,,,,,,,,,,,,,,,,,,,,,,,,,,,,,195.76847762498073,195.77436729095643,196.7726345830015,197.75601966597605,197.75601966597605,197.75601966597605,198.56294149998575,right,0.8003461670014076,None,,,,,,,,,,,,,,,,,,,,,,,,,,,,,,,,,,,,,,,,,,,,,,205464,001,2024-12-05_13h08.29.969,Test,2024.2.4,None,2024-12-05 13h08.38.083919 +0100,
15,150,60,54,None,5,5,0,False,left,0.9538875419530086,None,,,,,,,,0,5,5,5,,,,,,,,,198.57499399996595,,,,,,,,,,,,,,,,,,,,,,,,,,,,,,,,,,,,,,198.56913341599284,198.57499399996595,199.57240899995668,200.56318208295852,200.56318208295852,200.56318208295852,201.5245822079596,left,0.9538875419530086,None,,,,,,,,,,,,,,,,,,,,,,,,,,,,,,,,,,,,,,,,,,,,,,205464,001,2024-12-05_13h08.29.969,Test,2024.2.4,None,2024-12-05 13h08.38.083919 +0100,
2,150,0,66,None,6,6,0,False,right,1.2023918749764562,None,,,,,,,,0,6,6,6,,,,,,,,,201.5403849160066,,,,,,,,,,,,,,,,,,,,,,,,,,,,,,,,,,,,,,201.53360924997833,201.5403849160066,202.5390700409771,203.5210406659753,203.5210406659753,203.5210406659753,204.74102437496185,right,1.2023918749764562,None,,,,,,,,,,,,,,,,,,,,,,,,,,,,,,,,,,,,,,,,,,,,,,205464,001,2024-12-05_13h08.29.969,Test,2024.2.4,None,2024-12-05 13h08.38.083919 +0100,
50,150,60,11,None,7,7,0,True,left,0.8179786250111647,None,,,,,,,,0,7,7,7,,,,,,,,,204.77176745800534,,,,,,,,,,,,,,,,,,,,,,,,,,,,,,,,,,,,,,204.7506742499536,204.77176745800534,205.76124708296265,206.7392114159884,206.7392114159884,206.7392114159884,207.5642456249916,left,0.8179786250111647,None,,,,,,,,,,,,,,,,,,,,,,,,,,,,,,,,,,,,,,,,,,,,,,205464,001,2024-12-05_13h08.29.969,Test,2024.2.4,None,2024-12-05 13h08.38.083919 +0100,
34,150,180,31,None,8,8,0,False,left,1.3426754159736447,None,,,,,,,,0,8,8,8,,,,,,,,,207.5799098329735,,,,,,,,,,,,,,,,,,,,,,,,,,,,,,,,,,,,,,207.57343579095323,207.5799098329735,208.5778338329983,209.5633319579647,209.5633319579647,209.5633319579647,210.90867879096186,left,1.3426754159736447,None,,,,,,,,,,,,,,,,,,,,,,,,,,,,,,,,,,,,,,,,,,,,,,205464,001,2024-12-05_13h08.29.969,Test,2024.2.4,None,2024-12-05 13h08.38.083919 +0100,
11,150,60,61,None,9,9,0,False,right,0.700565250008367,None,,,,,,,,0,9,9,9,,,,,,,,,210.92495816596784,,,,,,,,,,,,,,,,,,,,,,,,,,,,,,,,,,,,,,210.91883933299687,210.92495816596784,211.9223947909777,212.90589441597695,212.90589441597695,212.90589441597695,213.61770904099103,right,0.700565250008367,None,,,,,,,,,,,,,,,,,,,,,,,,,,,,,,,,,,,,,,,,,,,,,,205464,001,2024-12-05_13h08.29.969,Test,2024.2.4,None,2024-12-05 13h08.38.083919 +0100,
54,150,90,36,None,10,10,0,True,right,0.7977609160006978,None,,,,,,,,0,10,10,10,,,,,,,,,213.63093158300035,,,,,,,,,,,,,,,,,,,,,,,,,,,,,,,,,,,,,,213.62602337496355,213.63093158300035,214.62764445797075,215.6129738749587,215.6129738749587,215.6129738749587,216.41462104098173,right,0.7977609160006978,None,,,,,,,,,,,,,,,,,,,,,,,,,,,,,,,,,,,,,,,,,,,,,,205464,001,2024-12-05_13h08.29.969,Test,2024.2.4,None,2024-12-05 13h08.38.083919 +0100,
62,150,150,7,None,11,11,0,True,right,0.7170148339937441,None,,,,,,,,0,11,11,11,,,,,,,,,216.42978195799515,,,,,,,,,,,,,,,,,,,,,,,,,,,,,,,,,,,,,,216.42360908299452,216.42978195799515,217.42729020799743,218.41314566595247,218.41314566595247,218.41314566595247,219.1411590409698,right,0.7170148339937441,None,,,,,,,,,,,,,,,,,,,,,,,,,,,,,,,,,,,,,,,,,,,,,,205464,001,2024-12-05_13h08.29.969,Test,2024.2.4,None,2024-12-05 13h08.38.083919 +0100,
37,150,0,25,None,12,12,0,True,left,0.8721329590189271,None,,,,,,,,0,12,12,12,,,,,,,,,219.15773466596147,,,,,,,,,,,,,,,,,,,,,,,,,,,,,,,,,,,,,,219.15177608298836,219.15773466596147,220.15467483300017,221.13910779100843,221.13910779100843,221.13910779100843,222.01503574999515,left,0.8721329590189271,None,,,,,,,,,,,,,,,,,,,,,,,,,,,,,,,,,,,,,,,,,,,,,,205464,001,2024-12-05_13h08.29.969,Test,2024.2.4,None,2024-12-05 13h08.38.083919 +0100,
14,150,60,50,None,13,13,0,False,right,0.8108571249758825,None,,,,,,,,0,13,13,13,,,,,,,,,222.0326863329974,,,,,,,,,,,,,,,,,,,,,,,,,,,,,,,,,,,,,,222.0250975409872,222.0326863329974,223.0280927499989,224.01296929095406,224.01296929095406,224.01296929095406,224.8314245409565,right,0.8108571249758825,None,,,,,,,,,,,,,,,,,,,,,,,,,,,,,,,,,,,,,,,,,,,,,,205464,001,2024-12-05_13h08.29.969,Test,2024.2.4,None,2024-12-05 13h08.38.083919 +0100,
23,150,120,47,None,14,14,0,False,right,1.085966999991797,None,,,,,,,,0,14,14,14,,,,,,,,,224.84828224999364,,,,,,,,,,,,,,,,,,,,,,,,,,,,,,,,,,,,,,224.84166837495286,224.84828224999364,225.84453199995914,226.8294631249737,226.8294631249737,226.8294631249737,227.91891891596606,right,1.085966999991797,None,,,,,,,,,,,,,,,,,,,,,,,,,,,,,,,,,,,,,,,,,,,,,,205464,001,2024-12-05_13h08.29.969,Test,2024.2.4,None,2024-12-05 13h08.38.083919 +0100,
51,150,90,51,None,15,15,0,True,left,0.8368993339827284,None,,,,,,,,0,15,15,15,,,,,,,,,227.93263254099293,,,,,,,,,,,,,,,,,,,,,,,,,,,,,,,,,,,,,,227.92771945800632,227.93263254099293,228.9286422909936,229.91643225000007,229.91643225000007,229.91643225000007,230.75976604095194,left,0.8368993339827284,None,,,,,,,,,,,,,,,,,,,,,,,,,,,,,,,,,,,,,,,,,,,,,,205464,001,2024-12-05_13h08.29.969,Test,2024.2.4,None,2024-12-05 13h08.38.083919 +0100,
8,150,30,18,None,16,16,0,False,left,0.7673137919628061,None,,,,,,,,0,16,16,16,,,,,,,,,230.78079279098893,,,,,,,,,,,,,,,,,,,,,,,,,,,,,,,,,,,,,,230.7733182499651,230.78079279098893,231.77693220798392,232.75584112497745,232.75584112497745,232.75584112497745,233.5348934159847,left,0.7673137919628061,None,,,,,,,,,,,,,,,,,,,,,,,,,,,,,,,,,,,,,,,,,,,,,,205464,001,2024-12-05_13h08.29.969,Test,2024.2.4,None,2024-12-05 13h08.38.083919 +0100,
31,150,180,46,None,17,17,0,False,right,0.8503188749891706,None,,,,,,,,0,17,17,17,,,,,,,,,233.54856716596987,,,,,,,,,,,,,,,,,,,,,,,,,,,,,,,,,,,,,,233.54390516597778,233.54856716596987,234.54244749998907,235.52954037499148,235.52954037499148,235.52954037499148,236.3914071249892,right,0.8503188749891706,None,,,,,,,,,,,,,,,,,,,,,,,,,,,,,,,,,,,,,,,,,,,,,,205464,001,2024-12-05_13h08.29.969,Test,2024.2.4,None,2024-12-05 13h08.38.083919 +0100,
42,150,30,20,None,18,18,0,True,left,1.034551958029624,None,,,,,,,,0,18,18,18,,,,,,,,,236.40898649999872,,,,,,,,,,,,,,,,,,,,,,,,,,,,,,,,,,,,,,236.40250016597565,236.40898649999872,237.4056601249613,238.38917424995452,238.38917424995452,238.38917424995452,239.4307146659703,left,1.034551958029624,None,,,,,,,,,,,,,,,,,,,,,,,,,,,,,,,,,,,,,,,,,,,,,,205464,001,2024-12-05_13h08.29.969,Test,2024.2.4,None,2024-12-05 13h08.38.083919 +0100,
69,150,180,28,None,19,19,0,True,right,0.8155492500518449,None,,,,,,,,0,19,19,19,,,,,,,,,239.44679762498708,,,,,,,,,,,,,,,,,,,,,,,,,,,,,,,,,,,,,,239.44055224995827,239.44679762498708,240.44404979096726,241.42965158296283,241.42965158296283,241.42965158296283,242.24824695795542,right,0.8155492500518449,None,,,,,,,,,,,,,,,,,,,,,,,,,,,,,,,,,,,,,,,,,,,,,,205464,001,2024-12-05_13h08.29.969,Test,2024.2.4,None,2024-12-05 13h08.38.083919 +0100,
68,150,180,6,None,20,20,0,True,left,1.6814667080179788,None,,,,,,,,0,20,20,20,,,,,,,,,242.263986749982,,,,,,,,,,,,,,,,,,,,,,,,,,,,,,,,,,,,,,242.25774495798396,242.263986749982,243.26113795797573,244.2463249999564,244.2463249999564,244.2463249999564,245.93067658296786,left,1.6814667080179788,None,,,,,,,,,,,,,,,,,,,,,,,,,,,,,,,,,,,,,,,,,,,,,,205464,001,2024-12-05_13h08.29.969,Test,2024.2.4,None,2024-12-05 13h08.38.083919 +0100,
26,150,150,1,None,21,21,0,False,right,0.9267964999889955,None,,,,,,,,0,21,21,21,,,,,,,,,245.94558933295775,,,,,,,,,,,,,,,,,,,,,,,,,,,,,,,,,,,,,,245.9396995829884,245.94558933295775,246.93902837496717,247.93057620798936,247.93057620798936,247.93057620798936,248.863982165989,right,0.9267964999889955,None,,,,,,,,,,,,,,,,,,,,,,,,,,,,,,,,,,,,,,,,,,,,,,205464,001,2024-12-05_13h08.29.969,Test,2024.2.4,None,2024-12-05 13h08.38.083919 +0100,
36,150,0,5,None,22,22,0,True,left,1.1432095420314,None,,,,,,,,0,22,22,22,,,,,,,,,248.87876462499844,,,,,,,,,,,,,,,,,,,,,,,,,,,,,,,,,,,,,,248.8722952909884,248.87876462499844,249.87241345795337,250.86424895795062,250.86424895795062,250.86424895795062,252.01385195797775,left,1.1432095420314,None,,,,,,,,,,,,,,,,,,,,,,,,,,,,,,,,,,,,,,,,,,,,,,205464,001,2024-12-05_13h08.29.969,Test,2024.2.4,None,2024-12-05 13h08.38.083919 +0100,
18,150,90,23,None,23,23,0,False,right,0.6869730000034906,None,,,,,,,,0,23,23,23,,,,,,,,,252.03004937496735,,,,,,,,,,,,,,,,,,,,,,,,,,,,,,,,,,,,,,252.0233202909585,252.03004937496735,253.02763145795325,254.0128227910027,254.0128227910027,254.0128227910027,254.7077507500071,right,0.6869730000034906,None,,,,,,,,,,,,,,,,,,,,,,,,,,,,,,,,,,,,,,,,,,,,,,205464,001,2024-12-05_13h08.29.969,Test,2024.2.4,None,2024-12-05 13h08.38.083919 +0100,
20,150,90,65,None,24,24,0,False,right,0.6114577500266023,None,,,,,,,,0,24,24,24,,,,,,,,,254.72423708299175,,,,,,,,,,,,,,,,,,,,,,,,,,,,,,,,,,,,,,254.71812233299715,254.72423708299175,255.7222652079654,256.7057277499698,256.7057277499698,256.7057277499698,257.3248009159579,right,0.6114577500266023,None,,,,,,,,,,,,,,,,,,,,,,,,,,,,,,,,,,,,,,,,,,,,,,205464,001,2024-12-05_13h08.29.969,Test,2024.2.4,None,2024-12-05 13h08.38.083919 +0100,
3,150,0,8,None,25,25,0,False,right,0.7809571670368314,None,,,,,,,,0,25,25,25,,,,,,,,,257.3402467079577,,,,,,,,,,,,,,,,,,,,,,,,,,,,,,,,,,,,,,257.3342120409943,257.3402467079577,258.33896624995396,259.3224417080055,259.3224417080055,259.3224417080055,260.1078091659583,right,0.7809571670368314,None,,,,,,,,,,,,,,,,,,,,,,,,,,,,,,,,,,,,,,,,,,,,,,205464,001,2024-12-05_13h08.29.969,Test,2024.2.4,None,2024-12-05 13h08.38.083919 +0100,
33,150,180,62,None,26,26,0,False,left,0.8090754579752684,None,,,,,,,,0,26,26,26,,,,,,,,,260.1232210409944,,,,,,,,,,,,,,,,,,,,,,,,,,,,,,,,,,,,,,260.1168513330049,260.1232210409944,261.1104608330061,262.10556708299555,262.10556708299555,262.10556708299555,262.923714207951,left,0.8090754579752684,None,,,,,,,,,,,,,,,,,,,,,,,,,,,,,,,,,,,,,,,,,,,,,,205464,001,2024-12-05_13h08.29.969,Test,2024.2.4,None,2024-12-05 13h08.38.083919 +0100,
49,150,60,67,None,27,27,0,True,right,0.8927915000240318,None,,,,,,,,0,27,27,27,,,,,,,,,262.9372079579625,,,,,,,,,,,,,,,,,,,,,,,,,,,,,,,,,,,,,,262.9310166659998,262.9372079579625,263.9271732909838,264.9226369999815,264.9226369999815,264.9226369999815,265.8246970829787,right,0.8927915000240318,None,,,,,,,,,,,,,,,,,,,,,,,,,,,,,,,,,,,,,,,,,,,,,,205464,001,2024-12-05_13h08.29.969,Test,2024.2.4,None,2024-12-05 13h08.38.083919 +0100,
61,150,150,69,None,28,28,0,True,right,1.0515377499978058,None,,,,,,,,0,28,28,28,,,,,,,,,265.84141295799054,,,,,,,,,,,,,,,,,,,,,,,,,,,,,,,,,,,,,,265.8344448329881,265.84141295799054,266.8390259160078,267.82236799999373,267.82236799999373,267.82236799999373,268.8805137909949,right,1.0515377499978058,None,,,,,,,,,,,,,,,,,,,,,,,,,,,,,,,,,,,,,,,,,,,,,,205464,001,2024-12-05_13h08.29.969,Test,2024.2.4,None,2024-12-05 13h08.38.083919 +0100,
63,150,150,9,None,29,29,0,True,right,1.0663921249797568,None,,,,,,,,0,29,29,29,,,,,,,,,268.89550795796094,,,,,,,,,,,,,,,,,,,,,,,,,,,,,,,,,,,,,,268.889294374967,268.89550795796094,269.88892399996985,270.87903937499505,270.87903937499505,270.87903937499505,271.9479735409841,right,1.0663921249797568,None,,,,,,,,,,,,,,,,,,,,,,,,,,,,,,,,,,,,,,,,,,,,,,205464,001,2024-12-05_13h08.29.969,Test,2024.2.4,None,2024-12-05 13h08.38.083919 +0100,
46,150,60,19,None,30,30,0,True,left,0.7871293330099434,None,,,,,,,,0,30,30,30,,,,,,,,,271.9639484579675,,,,,,,,,,,,,,,,,,,,,,,,,,,,,,,,,,,,,,271.9578489579726,271.9639484579675,272.96106633299496,273.9461611249717,273.9461611249717,273.9461611249717,274.74125074996846,left,0.7871293330099434,None,,,,,,,,,,,,,,,,,,,,,,,,,,,,,,,,,,,,,,,,,,,,,,205464,001,2024-12-05_13h08.29.969,Test,2024.2.4,None,2024-12-05 13h08.38.083919 +0100,
43,150,30,15,None,31,31,0,True,left,0.878397083026357,None,,,,,,,,0,31,31,31,,,,,,,,,274.7568664159626,,,,,,,,,,,,,,,,,,,,,,,,,,,,,,,,,,,,,,274.75088004098507,274.7568664159626,275.75558766600443,276.73909395799274,276.73909395799274,276.73909395799274,277.6250057499856,left,0.878397083026357,None,,,,,,,,,,,,,,,,,,,,,,,,,,,,,,,,,,,,,,,,,,,,,,205464,001,2024-12-05_13h08.29.969,Test,2024.2.4,None,2024-12-05 13h08.38.083919 +0100,
52,150,90,22,None,32,32,0,True,right,0.970012207981199,None,,,,,,,,0,32,32,32,,,,,,,,,277.64064166595927,,,,,,,,,,,,,,,,,,,,,,,,,,,,,,,,,,,,,,277.63385520799784,277.64064166595927,278.6392119159573,279.6224604159943,279.6224604159943,279.6224604159943,280.59746541595086,right,0.970012207981199,None,,,,,,,,,,,,,,,,,,,,,,,,,,,,,,,,,,,,,,,,,,,,,,205464,001,2024-12-05_13h08.29.969,Test,2024.2.4,None,2024-12-05 13h08.38.083919 +0100,
44,150,30,3,None,33,33,0,True,left,1.1470969159854576,None,,,,,,,,0,33,33,33,,,,,,,,,280.61301033297786,,,,,,,,,,,,,,,,,,,,,,,,,,,,,,,,,,,,,,280.60664999997243,280.61301033297786,281.6110706659965,282.596348416002,282.596348416002,282.596348416002,283.7474595409585,left,1.1470969159854576,None,,,,,,,,,,,,,,,,,,,,,,,,,,,,,,,,,,,,,,,,,,,,,,205464,001,2024-12-05_13h08.29.969,Test,2024.2.4,None,2024-12-05 13h08.38.083919 +0100,
5,150,0,56,None,34,34,0,False,left,1.1867548329755664,None,,,,,,,,0,34,34,34,,,,,,,,,283.76350583299063,,,,,,,,,,,,,,,,,,,,,,,,,,,,,,,,,,,,,,283.7570816659718,283.76350583299063,284.76034066599095,285.74608370795613,285.74608370795613,285.74608370795613,286.94117908296175,left,1.1867548329755664,None,,,,,,,,,,,,,,,,,,,,,,,,,,,,,,,,,,,,,,,,,,,,,,205464,001,2024-12-05_13h08.29.969,Test,2024.2.4,None,2024-12-05 13h08.38.083919 +0100,
40,150,0,30,None,35,35,0,True,left,0.9957324169808999,None,,,,,,,,0,35,35,35,,,,,,,,,286.95705879095476,,,,,,,,,,,,,,,,,,,,,,,,,,,,,,,,,,,,,,286.950337999966,286.95705879095476,287.9557199580013,288.9390717909555,288.9390717909555,288.9390717909555,289.9413431659923,left,0.9957324169808999,None,,,,,,,,,,,,,,,,,,,,,,,,,,,,,,,,,,,,,,,,,,,,,,205464,001,2024-12-05_13h08.29.969,Test,2024.2.4,None,2024-12-05 13h08.38.083919 +0100,
10,150,30,43,None,36,36,0,False,right,0.6973907920182683,None,,,,,,,,0,36,36,36,,,,,,,,,289.95662512496347,,,,,,,,,,,,,,,,,,,,,,,,,,,,,,,,,,,,,,289.9504007079522,289.95662512496347,290.9437096659676,291.93910383299226,291.93910383299226,291.93910383299226,292.64109137497144,right,0.6973907920182683,None,,,,,,,,,,,,,,,,,,,,,,,,,,,,,,,,,,,,,,,,,,,,,,205464,001,2024-12-05_13h08.29.969,Test,2024.2.4,None,2024-12-05 13h08.38.083919 +0100,
45,150,30,39,None,37,37,0,True,left,0.7709882500348613,None,,,,,,,,0,37,37,37,,,,,,,,,292.6563934579608,,,,,,,,,,,,,,,,,,,,,,,,,,,,,,,,,,,,,,292.650383582979,292.6563934579608,293.6449562909547,294.6388898330042,294.6388898330042,294.6388898330042,295.4138676659786,left,0.7709882500348613,None,,,,,,,,,,,,,,,,,,,,,,,,,,,,,,,,,,,,,,,,,,,,,,205464,001,2024-12-05_13h08.29.969,Test,2024.2.4,None,2024-12-05 13h08.38.083919 +0100,
59,150,120,2,None,38,38,0,True,right,2.0030030829948373,None,,,,,,,,0,38,38,38,,,,,,,,,295.42844366596546,,,,,,,,,,,,,,,,,,,,,,,,,,,,,,,,,,,,,,295.42184445797466,295.42844366596546,296.4223285409971,297.41294462495716,297.41294462495716,297.41294462495716,299.4244028329849,right,2.0030030829948373,None,,,,,,,,,,,,,,,,,,,,,,,,,,,,,,,,,,,,,,,,,,,,,,205464,001,2024-12-05_13h08.29.969,Test,2024.2.4,None,2024-12-05 13h08.38.083919 +0100,
25,150,120,21,None,39,39,0,False,right,1.4720231660176069,None,,,,,,,,0,39,39,39,,,,,,,,,299.44117012497736,,,,,,,,,,,,,,,,,,,,,,,,,,,,,,,,,,,,,,299.43489087495254,299.44117012497736,300.43897899996955,301.42251287499676,301.42251287499676,301.42251287499676,302.8973359160009,right,1.4720231660176069,None,,,,,,,,,,,,,,,,,,,,,,,,,,,,,,,,,,,,,,,,,,,,,,205464,001,2024-12-05_13h08.29.969,Test,2024.2.4,None,2024-12-05 13h08.38.083919 +0100,
12,150,60,64,None,40,40,0,False,left,2.8383301249705255,None,,,,,,,,0,40,40,40,,,,,,,,,302.91257599997334,,,,,,,,,,,,,,,,,,,,,,,,,,,,,,,,,,,,,,302.90654974995414,302.91257599997334,303.9105019159615,304.89656891598133,304.89656891598133,304.89656891598133,307.74120624997886,left,2.8383301249705255,None,,,,,,,,,,,,,,,,,,,,,,,,,,,,,,,,,,,,,,,,,,,,,,205464,001,2024-12-05_13h08.29.969,Test,2024.2.4,None,2024-12-05 13h08.38.083919 +0100,
29,150,150,14,None,41,41,0,False,left,1.717946957971435,None,,,,,,,,0,41,41,41,,,,,,,,,307.75790283299284,,,,,,,,,,,,,,,,,,,,,,,,,,,,,,,,,,,,,,307.75078404095257,307.75790283299284,308.7557009579614,309.739008790988,309.739008790988,309.739008790988,311.4735268749646,left,1.717946957971435,None,,,,,,,,,,,,,,,,,,,,,,,,,,,,,,,,,,,,,,,,,,,,,,205464,001,2024-12-05_13h08.29.969,Test,2024.2.4,None,2024-12-05 13h08.38.083919 +0100,
22,150,120,17,None,42,42,0,False,left,1.334855041000992,None,,,,,,,,0,42,42,42,,,,,,,,,311.50823929096805,,,,,,,,,,,,,,,,,,,,,,,,,,,,,,,,,,,,,,311.503608250001,311.50823929096805,312.50591487495694,313.47234874998685,313.47234874998685,313.47234874998685,314.8148539579706,left,1.334855041000992,None,,,,,,,,,,,,,,,,,,,,,,,,,,,,,,,,,,,,,,,,,,,,,,205464,001,2024-12-05_13h08.29.969,Test,2024.2.4,None,2024-12-05 13h08.38.083919 +0100,
1,150,0,41,None,43,43,0,False,left,1.3873942500213161,None,,,,,,,,0,43,43,43,,,,,,,,,314.83076599997,,,,,,,,,,,,,,,,,,,,,,,,,,,,,,,,,,,,,,314.8244959159638,314.83076599997,315.827127165976,316.81285374995787,316.81285374995787,316.81285374995787,318.20735445799073,left,1.3873942500213161,None,,,,,,,,,,,,,,,,,,,,,,,,,,,,,,,,,,,,,,,,,,,,,,205464,001,2024-12-05_13h08.29.969,Test,2024.2.4,None,2024-12-05 13h08.38.083919 +0100,
56,150,120,10,None,44,44,0,True,right,0.8503976250067353,None,,,,,,,,0,44,44,44,,,,,,,,,318.2207017909968,,,,,,,,,,,,,,,,,,,,,,,,,,,,,,,,,,,,,,318.2146326659713,318.2207017909968,319.21043412497966,320.205781208002,320.205781208002,320.205781208002,321.0588962499751,right,0.8503976250067353,None,,,,,,,,,,,,,,,,,,,,,,,,,,,,,,,,,,,,,,,,,,,,,,205464,001,2024-12-05_13h08.29.969,Test,2024.2.4,None,2024-12-05 13h08.38.083919 +0100,
47,150,60,59,None,45,45,0,True,left,1.1281006669742055,None,,,,,,,,0,45,45,45,,,,,,,,,321.0746398749761,,,,,,,,,,,,,,,,,,,,,,,,,,,,,,,,,,,,,,321.06864612497156,321.0746398749761,322.07234629098093,323.0554149579839,323.0554149579839,323.0554149579839,324.19120066595497,left,1.1281006669742055,None,,,,,,,,,,,,,,,,,,,,,,,,,,,,,,,,,,,,,,,,,,,,,,205464,001,2024-12-05_13h08.29.969,Test,2024.2.4,None,2024-12-05 13h08.38.083919 +0100,
30,150,150,26,None,46,46,0,False,right,1.2756303750211373,None,,,,,,,,0,46,46,46,,,,,,,,,324.207000082999,,,,,,,,,,,,,,,,,,,,,,,,,,,,,,,,,,,,,,324.2002774159773,324.207000082999,325.20565120800165,326.18919216596987,326.18919216596987,326.18919216596987,327.4747283749748,right,1.2756303750211373,None,,,,,,,,,,,,,,,,,,,,,,,,,,,,,,,,,,,,,,,,,,,,,,205464,001,2024-12-05_13h08.29.969,Test,2024.2.4,None,2024-12-05 13h08.38.083919 +0100,
48,150,60,37,None,47,47,0,True,left,1.066921999969054,None,,,,,,,,0,47,47,47,,,,,,,,,327.491300707974,,,,,,,,,,,,,,,,,,,,,,,,,,,,,,,,,,,,,,327.4849634160055,327.491300707974,328.48898466600804,329.4724059579894,329.4724059579894,329.4724059579894,330.542394457967,left,1.066921999969054,None,,,,,,,,,,,,,,,,,,,,,,,,,,,,,,,,,,,,,,,,,,,,,,205464,001,2024-12-05_13h08.29.969,Test,2024.2.4,None,2024-12-05 13h08.38.083919 +0100,
66,150,180,12,None,48,48,0,True,right,2.1675141250016168,None,,,,,,,,0,48,48,48,,,,,,,,,330.5580767079955,,,,,,,,,,,,,,,,,,,,,,,,,,,,,,,,,,,,,,330.5521439999575,330.5580767079955,331.5556073329644,332.5391311249696,332.5391311249696,332.5391311249696,334.7180653749965,right,2.1675141250016168,None,,,,,,,,,,,,,,,,,,,,,,,,,,,,,,,,,,,,,,,,,,,,,,205464,001,2024-12-05_13h08.29.969,Test,2024.2.4,None,2024-12-05 13h08.38.083919 +0100,
7,150,30,57,None,49,49,0,False,left,5.647653000021819,None,,,,,,,,0,49,49,49,,,,,,,,,334.73142858297797,,,,,,,,,,,,,,,,,,,,,,,,,,,,,,,,,,,,,,334.726736624958,334.73142858297797,335.72706420795294,336.7129058329738,336.7129058329738,336.7129058329738,342.3636874159565,left,5.647653000021819,None,339.70565862499643,339.70565862499643,339.7245729159913,,,,,,,,,,,,,,,,,,,,,,,,,,,,,,,,,,,,,,,,,,,205464,001,2024-12-05_13h08.29.969,Test,2024.2.4,None,2024-12-05 13h08.38.083919 +0100,
6,150,30,53,None,50,50,0,False,right,0.798344167007599,None,,,,,,,,0,50,50,50,,,,,,,,,342.37878016597824,,,,,,,,,,,,,,,,,,,,,,,,,,,,,,,,,,,,,,342.37246995797614,342.37878016597824,343.3776001249789,344.36396029096795,344.36396029096795,344.36396029096795,345.1648110829992,right,0.798344167007599,None,,,,,,,,,,,,,,,,,,,,,,,,,,,,,,,,,,,,,,,,,,,,,,205464,001,2024-12-05_13h08.29.969,Test,2024.2.4,None,2024-12-05 13h08.38.083919 +0100,
21,150,120,35,None,51,51,0,False,right,0.927282250020653,None,,,,,,,,0,51,51,51,,,,,,,,,345.18097950000083,,,,,,,,,,,,,,,,,,,,,,,,,,,,,,,,,,,,,,345.1745494159986,345.18097950000083,346.17685250000795,347.16241141600767,347.16241141600767,347.16241141600767,348.09275974996854,right,0.927282250020653,None,,,,,,,,,,,,,,,,,,,,,,,,,,,,,,,,,,,,,,,,,,,,,,205464,001,2024-12-05_13h08.29.969,Test,2024.2.4,None,2024-12-05 13h08.38.083919 +0100,
27,150,150,48,None,52,52,0,False,left,1.0291317079681903,None,,,,,,,,0,52,52,52,,,,,,,,,348.1087878329563,,,,,,,,,,,,,,,,,,,,,,,,,,,,,,,,,,,,,,348.1021218749811,348.1087878329563,349.10566787497373,350.0890974999638,350.0890974999638,350.0890974999638,351.12437062495155,left,1.0291317079681903,None,,,,,,,,,,,,,,,,,,,,,,,,,,,,,,,,,,,,,,,,,,,,,,205464,001,2024-12-05_13h08.29.969,Test,2024.2.4,None,2024-12-05 13h08.38.083919 +0100,
55,150,90,55,None,53,53,0,True,left,1.5865825419896282,None,,,,,,,,0,53,53,53,,,,,,,,,351.1402322909562,,,,,,,,,,,,,,,,,,,,,,,,,,,,,,,,,,,,,,351.13338124996517,351.1402322909562,352.13903812499484,353.1223642079858,353.1223642079858,353.1223642079858,354.71434812498046,left,1.5865825419896282,None,,,,,,,,,,,,,,,,,,,,,,,,,,,,,,,,,,,,,,,,,,,,,,205464,001,2024-12-05_13h08.29.969,Test,2024.2.4,None,2024-12-05 13h08.38.083919 +0100,
39,150,0,70,None,54,54,0,True,left,1.2934001249959692,None,,,,,,,,0,54,54,54,,,,,,,,,354.73070370795904,,,,,,,,,,,,,,,,,,,,,,,,,,,,,,,,,,,,,,354.7236415409716,354.73070370795904,355.7279664579546,356.7130952909938,356.7130952909938,356.7130952909938,358.01819162495667,left,1.2934001249959692,None,,,,,,,,,,,,,,,,,,,,,,,,,,,,,,,,,,,,,,,,,,,,,,205464,001,2024-12-05_13h08.29.969,Test,2024.2.4,None,2024-12-05 13h08.38.083919 +0100,
41,150,30,60,None,55,55,0,True,left,1.2347892080433667,None,,,,,,,,0,55,55,55,,,,,,,,,358.03125062497566,,,,,,,,,,,,,,,,,,,,,,,,,,,,,,,,,,,,,,358.0265188749763,358.03125062497566,359.0277786249644,360.0130407909746,360.0130407909746,360.0130407909746,361.2580735409865,left,1.2347892080433667,None,,,,,,,,,,,,,,,,,,,,,,,,,,,,,,,,,,,,,,,,,,,,,,205464,001,2024-12-05_13h08.29.969,Test,2024.2.4,None,2024-12-05 13h08.38.083919 +0100,
60,150,120,33,None,56,56,0,True,right,1.0837124590179883,None,,,,,,,,0,56,56,56,,,,,,,,,361.274596208008,,,,,,,,,,,,,,,,,,,,,,,,,,,,,,,,,,,,,,361.267394415976,361.274596208008,362.2723893329967,363.2557544159936,363.2557544159936,363.2557544159936,364.34205054095946,right,1.0837124590179883,None,,,,,,,,,,,,,,,,,,,,,,,,,,,,,,,,,,,,,,,,,,,,,,205464,001,2024-12-05_13h08.29.969,Test,2024.2.4,None,2024-12-05 13h08.38.083919 +0100,
70,150,180,4,None,57,57,0,True,left,1.0181661659735255,None,,,,,,,,0,57,57,57,,,,,,,,,364.3573614579509,,,,,,,,,,,,,,,,,,,,,,,,,,,,,,,,,,,,,,364.35137329099234,364.3573614579509,365.3555365409702,366.33912229095586,366.33912229095586,366.33912229095586,367.3642793329782,left,1.0181661659735255,None,,,,,,,,,,,,,,,,,,,,,,,,,,,,,,,,,,,,,,,,,,,,,,205464,001,2024-12-05_13h08.29.969,Test,2024.2.4,None,2024-12-05 13h08.38.083919 +0100,
58,150,120,63,None,58,58,0,True,right,1.361071124963928,None,,,,,,,,0,58,58,58,,,,,,,,,367.3805645829998,,,,,,,,,,,,,,,,,,,,,,,,,,,,,,,,,,,,,,367.3743613329716,367.3805645829998,368.37762733298587,369.36262237495976,369.36262237495976,369.36262237495976,370.73122229095316,right,1.361071124963928,None,,,,,,,,,,,,,,,,,,,,,,,,,,,,,,,,,,,,,,,,,,,,,,205464,001,2024-12-05_13h08.29.969,Test,2024.2.4,None,2024-12-05 13h08.38.083919 +0100,
24,150,120,27,None,59,59,0,False,right,0.8008690000278875,None,,,,,,,,0,59,59,59,,,,,,,,,370.746874540986,,,,,,,,,,,,,,,,,,,,,,,,,,,,,,,,,,,,,,370.74024108296726,370.746874540986,371.7438497080002,372.72944404097507,372.72944404097507,372.72944404097507,373.5412885409896,right,0.8008690000278875,None,,,,,,,,,,,,,,,,,,,,,,,,,,,,,,,,,,,,,,,,,,,,,,205464,001,2024-12-05_13h08.29.969,Test,2024.2.4,None,2024-12-05 13h08.38.083919 +0100,
4,150,0,32,None,60,60,0,False,right,1.1579964160337113,None,,,,,,,,0,60,60,60,,,,,,,,,373.5567247910076,,,,,,,,,,,,,,,,,,,,,,,,,,,,,,,,,,,,,,373.55060104100266,373.5567247910076,374.5556077910005,375.5391544579761,375.5391544579761,375.5391544579761,376.7077828749898,right,1.1579964160337113,None,,,,,,,,,,,,,,,,,,,,,,,,,,,,,,,,,,,,,,,,,,,,,,205464,001,2024-12-05_13h08.29.969,Test,2024.2.4,None,2024-12-05 13h08.38.083919 +0100,
32,150,180,42,None,61,61,0,False,right,1.0071251660119742,None,,,,,,,,0,61,61,61,,,,,,,,,376.7239647079841,,,,,,,,,,,,,,,,,,,,,,,,,,,,,,,,,,,,,,376.71794670796953,376.7239647079841,377.7222874579602,378.70583737496054,378.70583737496054,378.70583737496054,379.7244987079757,right,1.0071251660119742,None,,,,,,,,,,,,,,,,,,,,,,,,,,,,,,,,,,,,,,,,,,,,,,205464,001,2024-12-05_13h08.29.969,Test,2024.2.4,None,2024-12-05 13h08.38.083919 +0100,
67,150,180,13,None,62,62,0,True,right,1.237397000018973,None,,,,,,,,0,62,62,62,,,,,,,,,379.7389321659575,,,,,,,,,,,,,,,,,,,,,,,,,,,,,,,,,,,,,,379.7329329579952,379.7389321659575,380.7268415829749,381.7225439159665,381.7225439159665,381.7225439159665,382.96217829099623,right,1.237397000018973,None,,,,,,,,,,,,,,,,,,,,,,,,,,,,,,,,,,,,,,,,,,,,,,205464,001,2024-12-05_13h08.29.969,Test,2024.2.4,None,2024-12-05 13h08.38.083919 +0100,
64,150,150,34,None,63,63,0,True,left,1.157950582972262,None,,,,,,,,0,63,63,63,,,,,,,,,382.9838279999676,,,,,,,,,,,,,,,,,,,,,,,,,,,,,,,,,,,,,,382.9793303749757,382.9838279999676,383.97784320800565,384.97330212499946,384.97330212499946,384.97330212499946,386.141223582963,left,1.157950582972262,None,,,,,,,,,,,,,,,,,,,,,,,,,,,,,,,,,,,,,,,,,,,,,,205464,001,2024-12-05_13h08.29.969,Test,2024.2.4,None,2024-12-05 13h08.38.083919 +0100,
17,150,90,38,None,64,64,0,False,right,1.3833061250043102,None,,,,,,,,0,64,64,64,,,,,,,,,386.15970391599694,,,,,,,,,,,,,,,,,,,,,,,,,,,,,,,,,,,,,,386.1529415829573,386.15970391599694,387.1555578749976,388.1391849159845,388.1391849159845,388.1391849159845,389.5296843329561,right,1.3833061250043102,None,,,,,,,,,,,,,,,,,,,,,,,,,,,,,,,,,,,,,,,,,,,,,,205464,001,2024-12-05_13h08.29.969,Test,2024.2.4,None,2024-12-05 13h08.38.083919 +0100,
53,150,90,68,None,65,65,0,True,left,2.004233292012941,None,,,,,,,,0,65,65,65,,,,,,,,,389.54584683297435,,,,,,,,,,,,,,,,,,,,,,,,,,,,,,,,,,,,,,389.53987183299614,389.54584683297435,390.5441971249529,391.5296460829559,391.5296460829559,391.5296460829559,393.54099429096095,left,2.004233292012941,None,,,,,,,,,,,,,,,,,,,,,,,,,,,,,,,,,,,,,,,,,,,,,,205464,001,2024-12-05_13h08.29.969,Test,2024.2.4,None,2024-12-05 13h08.38.083919 +0100,
28,150,150,44,None,66,66,0,False,right,0.8671417500008829,None,,,,,,,,0,66,66,66,,,,,,,,,393.55835495796055,,,,,,,,,,,,,,,,,,,,,,,,,,,,,,,,,,,,,,393.5523198329611,393.55835495796055,394.5556490829913,395.53907249995973,395.53907249995973,395.53907249995973,396.41704837500583,right,0.8671417500008829,None,,,,,,,,,,,,,,,,,,,,,,,,,,,,,,,,,,,,,,,,,,,,,,205464,001,2024-12-05_13h08.29.969,Test,2024.2.4,None,2024-12-05 13h08.38.083919 +0100,
19,150,90,40,None,67,67,0,False,right,1.0111294169910252,None,,,,,,,,0,67,67,67,,,,,,,,,396.4317322910065,,,,,,,,,,,,,,,,,,,,,,,,,,,,,,,,,,,,,,396.426867333008,396.4317322910065,397.42753037496004,398.4127565409872,398.4127565409872,398.4127565409872,399.4307494999957,right,1.0111294169910252,None,,,,,,,,,,,,,,,,,,,,,,,,,,,,,,,,,,,,,,,,,,,,,,205464,001,2024-12-05_13h08.29.969,Test,2024.2.4,None,2024-12-05 13h08.38.083919 +0100,
65,150,150,58,None,68,68,0,True,right,1.0006267499993555,None,,,,,,,,0,68,68,68,,,,,,,,,399.4468464999809,,,,,,,,,,,,,,,,,,,,,,,,,,,,,,,,,,,,,,399.44027774996357,399.4468464999809,400.44380283297505,401.42944912496023,401.42944912496023,401.42944912496023,402.4411470409832,right,1.0006267499993555,None,,,,,,,,,,,,,,,,,,,,,,,,,,,,,,,,,,,,,,,,,,,,,,205464,001,2024-12-05_13h08.29.969,Test,2024.2.4,None,2024-12-05 13h08.38.083919 +0100,
16,150,90,52,None,69,69,0,False,left,1.4949637919780798,None,,,,,,,,0,69,69,69,,,,,,,,,402.45700962498086,,,,,,,,,,,,,,,,,,,,,,,,,,,,,,,,,,,,,,402.4503214999568,402.45700962498086,403.4555519159767,404.4389999159612,404.4389999159612,404.4389999159612,405.94137037498876,left,1.4949637919780798,None,,,,,,,,,,,,,,,,,,,,,,,,,,,,,,,,,,,,,,,,,,,,,,205464,001,2024-12-05_13h08.29.969,Test,2024.2.4,None,2024-12-05 13h08.38.083919 +0100,
,,,,,,,,,,,,,,,,,,,,,,,,,,,,,,,,,,,,,,,,,,,,,,,,,,,,,,,,,,,,,,,,,,,,,,,,,,,,,,,,,,405.94183545798296,405.95533512497786,405.95533512497786,409.9408227909589,space,3.9746194159961306,None,,,,,,,,,,,,,,,,,,,,,,,,,,,,,,,,,,,,205464,001,2024-12-05_13h08.29.969,Test,2024.2.4,None,2024-12-05 13h08.38.083919 +0100,
7,150,30,57,None,0,0,0,,,,,,,,,,,,,,,,0,0,0,6,,,,,409.97286849998636,,,,,,,,,,,,,,,,,,,,,,,,,,,,,,,,,,,,,,,,,,,,,,,,,,,,,,,,,,409.9633834999986,409.97286849998636,410.13923212495865,410.13923212495865,410.1613846659893,411.83660537499236,411.83660537499236,411.8233416659641,,,,,,,,,,,,,,,,,,,,,,,,,,,,205464,001,2024-12-05_13h08.29.969,Test,2024.2.4,None,2024-12-05 13h08.38.083919 +0100,
6,150,30,53,None,1,1,0,,,,,,,,,,,,,,,,0,1,1,5,,,,,411.83660537499236,,,,,,,,,,,,,,,,,,,,,,,,,,,,,,,,,,,,,,,,,,,,,,,,,,,,,,,,,,411.8316869579721,411.8404510829714,412.039058165974,412.039058165974,412.039058165974,413.7387274999637,413.7387274999637,413.7234607079881,,,,,,,,,,,,,,,,,,,,,,,,,,,,205464,001,2024-12-05_13h08.29.969,Test,2024.2.4,None,2024-12-05 13h08.38.083919 +0100,
13,150,60,45,None,2,2,0,,,,,,,,,,,,,,,,0,2,2,12,,,,,413.7387274999637,,,,,,,,,,,,,,,,,,,,,,,,,,,,,,,,,,,,,,,,,,,,,,,,,,,,,,,,,,413.73361674998887,413.7428782499628,413.9391813330003,413.9391813330003,413.9391813330003,415.6377696249983,415.6377696249983,415.62317375000566,,,,,,,,,,,,,,,,,,,,,,,,,,,,205464,001,2024-12-05_13h08.29.969,Test,2024.2.4,None,2024-12-05 13h08.38.083919 +0100,
15,150,60,54,None,3,3,0,,,,,,,,,,,,,,,,0,3,3,14,,,,,415.6377696249983,,,,,,,,,,,,,,,,,,,,,,,,,,,,,,,,,,,,,,,,,,,,,,,,,,,,,,,,,,415.63279324996984,415.64199370797724,415.8390473329928,415.8390473329928,415.8390473329928,417.53859779099,417.53859779099,417.5233024159679,,,,,,,,,,,,,,,,,,,,,,,,,,,,205464,001,2024-12-05_13h08.29.969,Test,2024.2.4,None,2024-12-05 13h08.38.083919 +0100,
3,150,0,8,None,4,4,0,,,,,,,,,,,,,,,,0,4,4,2,,,,,417.53859779099,,,,,,,,,,,,,,,,,,,,,,,,,,,,,,,,,,,,,,,,,,,,,,,,,,,,,,,,,,417.5339342079824,417.54241991596064,417.73910370800877,417.73910370800877,417.73910370800877,419.4383181660087,419.4383181660087,419.42328074999386,,,,,,,,,,,,,,,,,,,,,,,,,,,,205464,001,2024-12-05_13h08.29.969,Test,2024.2.4,None,2024-12-05 13h08.38.083919 +0100,
35,150,180,24,None,5,5,0,,,,,,,,,,,,,,,,0,5,5,34,,,,,419.4383181660087,,,,,,,,,,,,,,,,,,,,,,,,,,,,,,,,,,,,,,,,,,,,,,,,,,,,,,,,,,419.4332883749739,419.4426664999919,419.6390097909607,419.6390097909607,419.6390097909607,421.3363917079987,421.3363917079987,421.32313566596713,,,,,,,,,,,,,,,,,,,,,,,,,,,,205464,001,2024-12-05_13h08.29.969,Test,2024.2.4,None,2024-12-05 13h08.38.083919 +0100,
27,150,150,48,None,6,6,0,,,,,,,,,,,,,,,,0,6,6,26,,,,,421.3363917079987,,,,,,,,,,,,,,,,,,,,,,,,,,,,,,,,,,,,,,,,,,,,,,,,,,,,,,,,,,421.3312654159963,421.3412069999613,421.53906195797026,421.53906195797026,421.53906195797026,423.23737333295867,423.23737333295867,423.2234502499923,,,,,,,,,,,,,,,,,,,,,,,,,,,,205464,001,2024-12-05_13h08.29.969,Test,2024.2.4,None,2024-12-05 13h08.38.083919 +0100,
25,150,120,21,None,7,7,0,,,,,,,,,,,,,,,,0,7,7,24,,,,,423.23737333295867,,,,,,,,,,,,,,,,,,,,,,,,,,,,,,,,,,,,,,,,,,,,,,,,,,,,,,,,,,423.2322729160078,423.2412286659819,423.43903658300405,423.43903658300405,423.43903658300405,425.13754433300346,425.13754433300346,425.12330266600475,,,,,,,,,,,,,,,,,,,,,,,,,,,,205464,001,2024-12-05_13h08.29.969,Test,2024.2.4,None,2024-12-05 13h08.38.083919 +0100,
9,150,30,29,None,8,8,0,,,,,,,,,,,,,,,,0,8,8,8,,,,,425.13754433300346,,,,,,,,,,,,,,,,,,,,,,,,,,,,,,,,,,,,,,,,,,,,,,,,,,,,,,,,,,425.132362290984,425.141584625002,425.33906537498115,425.33906537498115,425.33906537498115,427.0386489579687,427.0386489579687,427.02348116599023,,,,,,,,,,,,,,,,,,,,,,,,,,,,205464,001,2024-12-05_13h08.29.969,Test,2024.2.4,None,2024-12-05 13h08.38.083919 +0100,
21,150,120,35,None,9,9,0,,,,,,,,,,,,,,,,0,9,9,20,,,,,427.0386489579687,,,,,,,,,,,,,,,,,,,,,,,,,,,,,,,,,,,,,,,,,,,,,,,,,,,,,,,,,,427.03368333296385,427.0435485409689,427.23911620798754,427.23911620798754,427.23911620798754,428.9378758329549,428.9378758329549,428.92309712496353,,,,,,,,,,,,,,,,,,,,,,,,,,,,205464,001,2024-12-05_13h08.29.969,Test,2024.2.4,None,2024-12-05 13h08.38.083919 +0100,
16,150,90,52,None,10,10,0,,,,,,,,,,,,,,,,0,10,10,15,,,,,428.9378758329549,,,,,,,,,,,,,,,,,,,,,,,,,,,,,,,,,,,,,,,,,,,,,,,,,,,,,,,,,,428.9324994579656,428.9422793329577,429.13902920798864,429.13902920798864,429.13902920798864,430.837026291003,430.837026291003,430.8231636249693,,,,,,,,,,,,,,,,,,,,,,,,,,,,205464,001,2024-12-05_13h08.29.969,Test,2024.2.4,None,2024-12-05 13h08.38.083919 +0100,
17,150,90,38,None,11,11,0,,,,,,,,,,,,,,,,0,11,11,16,,,,,430.837026291003,,,,,,,,,,,,,,,,,,,,,,,,,,,,,,,,,,,,,,,,,,,,,,,,,,,,,,,,,,430.8320097909891,430.84101612499217,431.03901258297265,431.03901258297265,431.03901258297265,432.7373676659772,432.7373676659772,432.72321720799664,,,,,,,,,,,,,,,,,,,,,,,,,,,,205464,001,2024-12-05_13h08.29.969,Test,2024.2.4,None,2024-12-05 13h08.38.083919 +0100,
4,150,0,32,None,12,12,0,,,,,,,,,,,,,,,,0,12,12,3,,,,,432.7373676659772,,,,,,,,,,,,,,,,,,,,,,,,,,,,,,,,,,,,,,,,,,,,,,,,,,,,,,,,,,432.7323527499684,432.7412223329884,432.93933258298784,432.93933258298784,432.93933258298784,434.63752158300485,434.63752158300485,434.6233219159767,,,,,,,,,,,,,,,,,,,,,,,,,,,,205464,001,2024-12-05_13h08.29.969,Test,2024.2.4,None,2024-12-05 13h08.38.083919 +0100,
5,150,0,56,None,13,13,0,,,,,,,,,,,,,,,,0,13,13,4,,,,,434.63752158300485,,,,,,,,,,,,,,,,,,,,,,,,,,,,,,,,,,,,,,,,,,,,,,,,,,,,,,,,,,434.6321288750041,434.642307083006,434.83903924998594,434.83903924998594,434.83903924998594,436.54222479095915,436.54222479095915,436.52344033296686,,,,,,,,,,,,,,,,,,,,,,,,,,,,205464,001,2024-12-05_13h08.29.969,Test,2024.2.4,None,2024-12-05 13h08.38.083919 +0100,
33,150,180,62,None,14,14,0,,,,,,,,,,,,,,,,0,14,14,32,,,,,436.54222479095915,,,,,,,,,,,,,,,,,,,,,,,,,,,,,,,,,,,,,,,,,,,,,,,,,,,,,,,,,,436.5376861249679,436.5555167910061,436.7375233749626,436.7375233749626,436.75577729096403,438.43964695796603,438.43964695796603,438.42348125000717,,,,,,,,,,,,,,,,,,,,,,,,,,,,205464,001,2024-12-05_13h08.29.969,Test,2024.2.4,None,2024-12-05 13h08.38.083919 +0100,
2,150,0,66,None,15,15,0,,,,,,,,,,,,,,,,0,15,15,1,,,,,438.43964695796603,,,,,,,,,,,,,,,,,,,,,,,,,,,,,,,,,,,,,,,,,,,,,,,,,,,,,,,,,,438.43488512496697,438.455643541005,438.63891120796325,438.63891120796325,438.64494304097025,440.3379596659797,440.3379596659797,440.3232581249904,,,,,,,,,,,,,,,,,,,,,,,,,,,,205464,001,2024-12-05_13h08.29.969,Test,2024.2.4,None,2024-12-05 13h08.38.083919 +0100,
11,150,60,61,None,16,16,0,,,,,,,,,,,,,,,,0,16,16,10,,,,,440.3379596659797,,,,,,,,,,,,,,,,,,,,,,,,,,,,,,,,,,,,,,,,,,,,,,,,,,,,,,,,,,440.33268724998925,440.342690749967,440.53900699998485,440.53900699998485,440.53900699998485,442.2375907909591,442.2375907909591,442.22328958299477,,,,,,,,,,,,,,,,,,,,,,,,,,,,205464,001,2024-12-05_13h08.29.969,Test,2024.2.4,None,2024-12-05 13h08.38.083919 +0100,
22,150,120,17,None,17,17,0,,,,,,,,,,,,,,,,0,17,17,21,,,,,442.2375907909591,,,,,,,,,,,,,,,,,,,,,,,,,,,,,,,,,,,,,,,,,,,,,,,,,,,,,,,,,,442.2323017079616,442.24172137497226,442.43931741599226,442.43931741599226,442.43931741599226,444.13815058296314,444.13815058296314,444.1233752910048,,,,,,,,,,,,,,,,,,,,,,,,,,,,205464,001,2024-12-05_13h08.29.969,Test,2024.2.4,None,2024-12-05 13h08.38.083919 +0100,
10,150,30,43,None,18,18,0,,,,,,,,,,,,,,,,0,18,18,9,,,,,444.13815058296314,,,,,,,,,,,,,,,,,,,,,,,,,,,,,,,,,,,,,,,,,,,,,,,,,,,,,,,,,,444.13290887500625,444.1421186249936,444.33898704097373,444.33898704097373,444.33898704097373,446.03861066600075,446.03861066600075,446.0233495410066,,,,,,,,,,,,,,,,,,,,,,,,,,,,205464,001,2024-12-05_13h08.29.969,Test,2024.2.4,None,2024-12-05 13h08.38.083919 +0100,
29,150,150,14,None,19,19,0,,,,,,,,,,,,,,,,0,19,19,28,,,,,446.03861066600075,,,,,,,,,,,,,,,,,,,,,,,,,,,,,,,,,,,,,,,,,,,,,,,,,,,,,,,,,,446.03230945795076,446.0427453329903,446.2391394999577,446.2391394999577,446.2391394999577,447.93699016596656,447.93699016596656,447.92308654100634,,,,,,,,,,,,,,,,,,,,,,,,,,,,205464,001,2024-12-05_13h08.29.969,Test,2024.2.4,None,2024-12-05 13h08.38.083919 +0100,
32,150,180,42,None,20,20,0,,,,,,,,,,,,,,,,0,20,20,31,,,,,447.93699016596656,,,,,,,,,,,,,,,,,,,,,,,,,,,,,,,,,,,,,,,,,,,,,,,,,,,,,,,,,,447.93204641598277,447.94172825000715,448.13939683296485,448.13939683296485,448.13939683296485,449.8372872909531,449.8372872909531,449.82355916599045,,,,,,,,,,,,,,,,,,,,,,,,,,,,205464,001,2024-12-05_13h08.29.969,Test,2024.2.4,None,2024-12-05 13h08.38.083919 +0100,
34,150,180,31,None,21,21,0,,,,,,,,,,,,,,,,0,21,21,33,,,,,449.8372872909531,,,,,,,,,,,,,,,,,,,,,,,,,,,,,,,,,,,,,,,,,,,,,,,,,,,,,,,,,,449.83219099999405,449.8425057909917,450.03901087498525,450.03901087498525,450.03901087498525,451.73718724999344,451.73718724999344,451.723184500006,,,,,,,,,,,,,,,,,,,,,,,,,,,,205464,001,2024-12-05_13h08.29.969,Test,2024.2.4,None,2024-12-05 13h08.38.083919 +0100,
24,150,120,27,None,22,22,0,,,,,,,,,,,,,,,,0,22,22,23,,,,,451.73718724999344,,,,,,,,,,,,,,,,,,,,,,,,,,,,,,,,,,,,,,,,,,,,,,,,,,,,,,,,,,451.73222683300264,451.7409722079756,451.93894854100654,451.93894854100654,451.93894854100654,453.63723354099784,453.63723354099784,453.6233445829712,,,,,,,,,,,,,,,,,,,,,,,,,,,,205464,001,2024-12-05_13h08.29.969,Test,2024.2.4,None,2024-12-05 13h08.38.083919 +0100,
30,150,150,26,None,23,23,0,,,,,,,,,,,,,,,,0,23,23,29,,,,,453.63723354099784,,,,,,,,,,,,,,,,,,,,,,,,,,,,,,,,,,,,,,,,,,,,,,,,,,,,,,,,,,453.63221725000767,453.64201291598147,453.8390251660021,453.8390251660021,453.8390251660021,455.5367778329528,455.5367778329528,455.52324420795776,,,,,,,,,,,,,,,,,,,,,,,,,,,,205464,001,2024-12-05_13h08.29.969,Test,2024.2.4,None,2024-12-05 13h08.38.083919 +0100,
20,150,90,65,None,24,24,0,,,,,,,,,,,,,,,,0,24,24,19,,,,,455.5367778329528,,,,,,,,,,,,,,,,,,,,,,,,,,,,,,,,,,,,,,,,,,,,,,,,,,,,,,,,,,455.5316054999712,455.54177304095356,455.7390938749886,455.7390938749886,455.7390938749886,457.4370284159668,457.4370284159668,457.4234580829507,,,,,,,,,,,,,,,,,,,,,,,,,,,,205464,001,2024-12-05_13h08.29.969,Test,2024.2.4,None,2024-12-05 13h08.38.083919 +0100,
31,150,180,46,None,25,25,0,,,,,,,,,,,,,,,,0,25,25,30,,,,,457.4370284159668,,,,,,,,,,,,,,,,,,,,,,,,,,,,,,,,,,,,,,,,,,,,,,,,,,,,,,,,,,457.43211020797025,457.44094520795625,457.63896974996896,457.63896974996896,457.63896974996896,459.33753737498773,459.33753737498773,459.32328083296306,,,,,,,,,,,,,,,,,,,,,,,,,,,,205464,001,2024-12-05_13h08.29.969,Test,2024.2.4,None,2024-12-05 13h08.38.083919 +0100,
26,150,150,1,None,26,26,0,,,,,,,,,,,,,,,,0,26,26,25,,,,,459.33753737498773,,,,,,,,,,,,,,,,,,,,,,,,,,,,,,,,,,,,,,,,,,,,,,,,,,,,,,,,,,459.33226791600464,459.34167104098015,459.5390571249882,459.5390571249882,459.5390571249882,461.23734720796347,461.23734720796347,461.2232423329842,,,,,,,,,,,,,,,,,,,,,,,,,,,,205464,001,2024-12-05_13h08.29.969,Test,2024.2.4,None,2024-12-05 13h08.38.083919 +0100,
1,150,0,41,None,27,27,0,,,,,,,,,,,,,,,,0,27,27,0,,,,,461.23734720796347,,,,,,,,,,,,,,,,,,,,,,,,,,,,,,,,,,,,,,,,,,,,,,,,,,,,,,,,,,461.2322392909555,461.241536040965,461.4391728749615,461.4391728749615,461.4391728749615,463.13742437498877,463.13742437498877,463.1233438329655,,,,,,,,,,,,,,,,,,,,,,,,,,,,205464,001,2024-12-05_13h08.29.969,Test,2024.2.4,None,2024-12-05 13h08.38.083919 +0100,
28,150,150,44,None,28,28,0,,,,,,,,,,,,,,,,0,28,28,27,,,,,463.13742437498877,,,,,,,,,,,,,,,,,,,,,,,,,,,,,,,,,,,,,,,,,,,,,,,,,,,,,,,,,,463.13237949996255,463.14128029096173,463.33901316596894,463.33901316596894,463.33901316596894,465.037116958003,465.037116958003,465.0232527909684,,,,,,,,,,,,,,,,,,,,,,,,,,,,205464,001,2024-12-05_13h08.29.969,Test,2024.2.4,None,2024-12-05 13h08.38.083919 +0100,
12,150,60,64,None,29,29,0,,,,,,,,,,,,,,,,0,29,29,11,,,,,465.037116958003,,,,,,,,,,,,,,,,,,,,,,,,,,,,,,,,,,,,,,,,,,,,,,,,,,,,,,,,,,465.0320880829822,465.0411167499842,465.2390786659671,465.2390786659671,465.2390786659671,466.9368618329754,466.9368618329754,466.9232102909591,,,,,,,,,,,,,,,,,,,,,,,,,,,,205464,001,2024-12-05_13h08.29.969,Test,2024.2.4,None,2024-12-05 13h08.38.083919 +0100,
18,150,90,23,None,30,30,0,,,,,,,,,,,,,,,,0,30,30,17,,,,,466.9368618329754,,,,,,,,,,,,,,,,,,,,,,,,,,,,,,,,,,,,,,,,,,,,,,,,,,,,,,,,,,466.9318227909971,466.94190724997316,467.1391417909763,467.1391417909763,467.1391417909763,468.8379549999954,468.8379549999954,468.8232490000082,,,,,,,,,,,,,,,,,,,,,,,,,,,,205464,001,2024-12-05_13h08.29.969,Test,2024.2.4,None,2024-12-05 13h08.38.083919 +0100,
19,150,90,40,None,31,31,0,,,,,,,,,,,,,,,,0,31,31,18,,,,,468.8379549999954,,,,,,,,,,,,,,,,,,,,,,,,,,,,,,,,,,,,,,,,,,,,,,,,,,,,,,,,,,468.8328349579824,468.8415262909839,469.0390898750047,469.0390898750047,469.0390898750047,470.73716720798984,470.73716720798984,470.7235660000006,,,,,,,,,,,,,,,,,,,,,,,,,,,,205464,001,2024-12-05_13h08.29.969,Test,2024.2.4,None,2024-12-05 13h08.38.083919 +0100,
8,150,30,18,None,32,32,0,,,,,,,,,,,,,,,,0,32,32,7,,,,,470.73716720798984,,,,,,,,,,,,,,,,,,,,,,,,,,,,,,,,,,,,,,,,,,,,,,,,,,,,,,,,,,470.7322094999836,470.74206887499895,470.93914179096464,470.93914179096464,470.93914179096464,472.6379016659921,472.6379016659921,472.6231226659729,,,,,,,,,,,,,,,,,,,,,,,,,,,,205464,001,2024-12-05_13h08.29.969,Test,2024.2.4,None,2024-12-05 13h08.38.083919 +0100,
23,150,120,47,None,33,33,0,,,,,,,,,,,,,,,,0,33,33,22,,,,,472.6379016659921,,,,,,,,,,,,,,,,,,,,,,,,,,,,,,,,,,,,,,,,,,,,,,,,,,,,,,,,,,472.6324836249696,472.64213208295405,472.8390655829571,472.8390655829571,472.8390655829571,474.5385830409941,474.5385830409941,474.5235778329661,,,,,,,,,,,,,,,,,,,,,,,,,,,,205464,001,2024-12-05_13h08.29.969,Test,2024.2.4,None,2024-12-05 13h08.38.083919 +0100,
14,150,60,50,None,34,34,0,,,,,,,,,,,,,,,,0,34,34,13,,,,,474.5385830409941,,,,,,,,,,,,,,,,,,,,,,,,,,,,,,,,,,,,,,,,,,,,,,,,,,,,,,,,,,474.5334186249529,474.5433020829805,474.7390186659759,474.7390186659759,474.7390186659759,476.42884604097344,476.42884604097344,476.42341787496116,,,,,,,,,,,,,,,,,,,,,,,,,,,,205464,001,2024-12-05_13h08.29.969,Test,2024.2.4,None,2024-12-05 13h08.38.083919 +0100,
,,,,,,,,,,,,,,,,,,,,,,,,,,,,,,,,,,,,,,,,,,,,,,,,,,,,,,,,,,,,,,,,,,,,,,,,,,,,,,,,,,,,,,,,,,,,,,,,,476.4237122909981,476.43801112496294,476.43801112496294,480.50178958295146,space,4.051825542002916,None,,,,,,,,,,,,,,,,,,,,,205464,001,2024-12-05_13h08.29.969,Test,2024.2.4,None,2024-12-05 13h08.38.083919 +0100,
38,150,0,49,None,0,0,0,True,,,,left,0.8880289160297252,None,,,,,,,,,,,,,0,0,0,0,480.6518976659863,,,,,,,,,,,,,,,,,,,,,,,,,,,,,,,,,,,,,,,,,,,,,,,,,,,,,,,,,,,,,,,,,,,,,,,,,480.6447825829964,480.6518976659863,481.6445375409676,482.4965484580025,482.4965484580025,482.4965484580025,483.3913129160064,left,0.8880289160297252,None,,,,,,,,,,,205464,001,2024-12-05_13h08.29.969,Test,2024.2.4,None,2024-12-05 13h08.38.083919 +0100,
9,150,30,29,None,1,1,0,False,,,,left,0.7673184999730438,None,,,,,,,,,,,,,0,1,1,1,483.4086947909673,,,,,,,,,,,,,,,,,,,,,,,,,,,,,,,,,,,,,,,,,,,,,,,,,,,,,,,,,,,,,,,,,,,,,,,,,483.40210562496213,483.4086947909673,484.4057811659877,485.3891649579746,485.3891649579746,485.3891649579746,486.1676763329888,left,0.7673184999730438,None,,,,,,,,,,,205464,001,2024-12-05_13h08.29.969,Test,2024.2.4,None,2024-12-05 13h08.38.083919 +0100,
13,150,60,45,None,2,2,0,False,,,,right,0.7434735830174759,None,,,,,,,,,,,,,0,2,2,2,486.1805463329656,,,,,,,,,,,,,,,,,,,,,,,,,,,,,,,,,,,,,,,,,,,,,,,,,,,,,,,,,,,,,,,,,,,,,,,,,486.17598066595383,486.1805463329656,487.1771329579642,488.1633708329755,488.1633708329755,488.1633708329755,488.9147207909846,right,0.7434735830174759,None,,,,,,,,,,,205464,001,2024-12-05_13h08.29.969,Test,2024.2.4,None,2024-12-05 13h08.38.083919 +0100,
35,150,180,24,None,3,3,0,False,,,,right,0.7843825840391219,None,,,,,,,,,,,,,0,3,3,3,488.93149849999463,,,,,,,,,,,,,,,,,,,,,,,,,,,,,,,,,,,,,,,,,,,,,,,,,,,,,,,,,,,,,,,,,,,,,,,,,488.9247858329909,488.93149849999463,489.9277364999871,490.9130995000014,490.9130995000014,490.9130995000014,491.70777887495933,right,0.7843825840391219,None,,,,,,,,,,,205464,001,2024-12-05_13h08.29.969,Test,2024.2.4,None,2024-12-05 13h08.38.083919 +0100,
57,150,120,16,None,4,4,0,True,,,,right,0.7207935000187717,None,,,,,,,,,,,,,0,4,4,4,491.7242267499678,,,,,,,,,,,,,,,,,,,,,,,,,,,,,,,,,,,,,,,,,,,,,,,,,,,,,,,,,,,,,,,,,,,,,,,,,491.7179947499535,491.7242267499678,492.72226774995215,493.70561345800525,493.70561345800525,493.70561345800525,494.4305011659744,right,0.7207935000187717,None,,,,,,,,,,,205464,001,2024-12-05_13h08.29.969,Test,2024.2.4,None,2024-12-05 13h08.38.083919 +0100,
15,150,60,54,None,5,5,0,False,,,,right,0.8387995829689316,None,,,,,,,,,,,,,0,5,5,5,494.4458174579777,,,,,,,,,,,,,,,,,,,,,,,,,,,,,,,,,,,,,,,,,,,,,,,,,,,,,,,,,,,,,,,,,,,,,,,,,494.4398233749671,494.4458174579777,495.43905083299614,496.4295530829695,496.4295530829695,496.4295530829695,497.27442049997626,right,0.8387995829689316,None,,,,,,,,,,,205464,001,2024-12-05_13h08.29.969,Test,2024.2.4,None,2024-12-05 13h08.38.083919 +0100,
2,150,0,66,None,6,6,0,False,,,,left,0.8610889579867944,None,,,,,,,,,,,,,0,6,6,6,497.2904766249703,,,,,,,,,,,,,,,,,,,,,,,,,,,,,,,,,,,,,,,,,,,,,,,,,,,,,,,,,,,,,,,,,,,,,,,,,497.2840017499984,497.2904766249703,498.2890167909791,499.27224420796847,499.27224420796847,499.27224420796847,500.14103599998634,left,0.8610889579867944,None,,,,,,,,,,,205464,001,2024-12-05_13h08.29.969,Test,2024.2.4,None,2024-12-05 13h08.38.083919 +0100,
50,150,60,11,None,7,7,0,True,,,,left,0.9010824160068296,None,,,,,,,,,,,,,0,7,7,7,500.16059362498345,,,,,,,,,,,,,,,,,,,,,,,,,,,,,,,,,,,,,,,,,,,,,,,,,,,,,,,,,,,,,,,,,,,,,,,,,500.15401458297856,500.16059362498345,501.1572609579889,502.1379911659751,502.1379911659751,502.1379911659751,503.0543397910078,left,0.9010824160068296,None,,,,,,,,,,,205464,001,2024-12-05_13h08.29.969,Test,2024.2.4,None,2024-12-05 13h08.38.083919 +0100,
34,150,180,31,None,8,8,0,False,,,,right,1.2355340840294957,None,,,,,,,,,,,,,0,8,8,8,503.07288491597865,,,,,,,,,,,,,,,,,,,,,,,,,,,,,,,,,,,,,,,,,,,,,,,,,,,,,,,,,,,,,,,,,,,,,,,,,503.0687483329675,503.07288491597865,504.06039412500104,505.0549457909656,505.0549457909656,505.0549457909656,506.29741516598733,right,1.2355340840294957,None,,,,,,,,,,,205464,001,2024-12-05_13h08.29.969,Test,2024.2.4,None,2024-12-05 13h08.38.083919 +0100,
11,150,60,61,None,9,9,0,False,,,,right,0.6975034999777563,None,,,,,,,,,,,,,0,9,9,9,506.3158038749825,,,,,,,,,,,,,,,,,,,,,,,,,,,,,,,,,,,,,,,,,,,,,,,,,,,,,,,,,,,,,,,,,,,,,,,,,506.308996290958,506.3158038749825,507.3101543749799,508.2963424999616,508.2963424999616,508.2963424999616,508.9973240830004,right,0.6975034999777563,None,,,,,,,,,,,205464,001,2024-12-05_13h08.29.969,Test,2024.2.4,None,2024-12-05 13h08.38.083919 +0100,
54,150,90,36,None,10,10,0,True,,,,right,0.9765094160102308,None,,,,,,,,,,,,,0,10,10,10,509.01497441600077,,,,,,,,,,,,,,,,,,,,,,,,,,,,,,,,,,,,,,,,,,,,,,,,,,,,,,,,,,,,,,,,,,,,,,,,,509.0081339159515,509.01497441600077,510.0104744999553,510.99624670797493,510.99624670797493,510.99624670797493,511.9758763749851,right,0.9765094160102308,None,,,,,,,,,,,205464,001,2024-12-05_13h08.29.969,Test,2024.2.4,None,2024-12-05 13h08.38.083919 +0100,
62,150,150,7,None,11,11,0,True,,,,left,0.750102040998172,None,,,,,,,,,,,,,0,11,11,11,511.99284091597656,,,,,,,,,,,,,,,,,,,,,,,,,,,,,,,,,,,,,,,,,,,,,,,,,,,,,,,,,,,,,,,,,,,,,,,,,511.98613720800495,511.99284091597656,512.9889857079834,513.9725972909946,513.9725972909946,513.9725972909946,514.7252440410084,left,0.750102040998172,None,,,,,,,,,,,205464,001,2024-12-05_13h08.29.969,Test,2024.2.4,None,2024-12-05 13h08.38.083919 +0100,
37,150,0,25,None,12,12,0,True,,,,left,0.6929559999844059,None,,,,,,,,,,,,,0,12,12,12,514.7408703329857,,,,,,,,,,,,,,,,,,,,,,,,,,,,,,,,,,,,,,,,,,,,,,,,,,,,,,,,,,,,,,,,,,,,,,,,,514.7347482499899,514.7408703329857,515.7390630829614,516.7223693329724,516.7223693329724,516.7223693329724,517.4245342079666,left,0.6929559999844059,None,,,,,,,,,,,205464,001,2024-12-05_13h08.29.969,Test,2024.2.4,None,2024-12-05 13h08.38.083919 +0100,
14,150,60,50,None,13,13,0,False,,,,right,0.8172236250247806,None,,,,,,,,,,,,,0,13,13,13,517.4400784999598,,,,,,,,,,,,,,,,,,,,,,,,,,,,,,,,,,,,,,,,,,,,,,,,,,,,,,,,,,,,,,,,,,,,,,,,,517.433610624983,517.4400784999598,518.4389474159689,519.4226272079977,519.4226272079977,519.4226272079977,520.2429247079999,right,0.8172236250247806,None,,,,,,,,,,,205464,001,2024-12-05_13h08.29.969,Test,2024.2.4,None,2024-12-05 13h08.38.083919 +0100,
23,150,120,47,None,14,14,0,False,,,,right,0.5503072499996051,None,,,,,,,,,,,,,0,14,14,14,520.259132874955,,,,,,,,,,,,,,,,,,,,,,,,,,,,,,,,,,,,,,,,,,,,,,,,,,,,,,,,,,,,,,,,,,,,,,,,,520.251689333003,520.259132874955,521.2556112909806,522.2390034580021,522.2390034580021,522.2390034580021,522.7921928329743,right,0.5503072499996051,None,,,,,,,,,,,205464,001,2024-12-05_13h08.29.969,Test,2024.2.4,None,2024-12-05 13h08.38.083919 +0100,
51,150,90,51,None,15,15,0,True,,,,right,0.853276707988698,None,,,,,,,,,,,,,0,15,15,15,522.8080831249827,,,,,,,,,,,,,,,,,,,,,,,,,,,,,,,,,,,,,,,,,,,,,,,,,,,,,,,,,,,,,,,,,,,,,,,,,522.8017813329934,522.8080831249827,523.8056127079763,524.7890102499514,524.7890102499514,524.7890102499514,525.647834207979,right,0.853276707988698,None,,,,,,,,,,,205464,001,2024-12-05_13h08.29.969,Test,2024.2.4,None,2024-12-05 13h08.38.083919 +0100,
8,150,30,18,None,16,16,0,False,,,,right,0.8695873750257306,None,,,,,,,,,,,,,0,16,16,16,525.6632187079522,,,,,,,,,,,,,,,,,,,,,,,,,,,,,,,,,,,,,,,,,,,,,,,,,,,,,,,,,,,,,,,,,,,,,,,,,525.6569597909693,525.6632187079522,526.6602677909541,527.6471908749663,527.6471908749663,527.6471908749663,528.5247601249721,right,0.8695873750257306,None,,,,,,,,,,,205464,001,2024-12-05_13h08.29.969,Test,2024.2.4,None,2024-12-05 13h08.38.083919 +0100,
31,150,180,46,None,17,17,0,False,,,,left,2.1116354160476476,None,,,,,,,,,,,,,0,17,17,17,528.5434547080076,,,,,,,,,,,,,,,,,,,,,,,,,,,,,,,,,,,,,,,,,,,,,,,,,,,,,,,,,,,,,,,,,,,,,,,,,528.5357509159949,528.5434547080076,529.538919957995,530.5225098750088,530.5225098750088,530.5225098750088,532.6410916659515,left,2.1116354160476476,None,,,,,,,,,,,205464,001,2024-12-05_13h08.29.969,Test,2024.2.4,None,2024-12-05 13h08.38.083919 +0100,
42,150,30,20,None,18,18,0,True,,,,left,0.8723660000250675,None,,,,,,,,,,,,,0,18,18,18,532.6573692910024,,,,,,,,,,,,,,,,,,,,,,,,,,,,,,,,,,,,,,,,,,,,,,,,,,,,,,,,,,,,,,,,,,,,,,,,,532.6511049160035,532.6573692910024,533.6557971249567,534.6392107909778,534.6392107909778,534.6392107909778,535.5144595409511,left,0.8723660000250675,None,,,,,,,,,,,205464,001,2024-12-05_13h08.29.969,Test,2024.2.4,None,2024-12-05 13h08.38.083919 +0100,
69,150,180,28,None,19,19,0,True,,,,left,1.1190221249707974,None,,,,,,,,,,,,,0,19,19,19,535.5323452909943,,,,,,,,,,,,,,,,,,,,,,,,,,,,,,,,,,,,,,,,,,,,,,,,,,,,,,,,,,,,,,,,,,,,,,,,,535.5253313329886,535.5323452909943,536.5268959579989,537.5124271659879,537.5124271659879,537.5124271659879,538.6412872079527,left,1.1190221249707974,None,,,,,,,,,,,205464,001,2024-12-05_13h08.29.969,Test,2024.2.4,None,2024-12-05 13h08.38.083919 +0100,
68,150,180,6,None,20,20,0,True,,,,right,0.7172988750389777,None,,,,,,,,,,,,,0,20,20,20,538.6587065829663,,,,,,,,,,,,,,,,,,,,,,,,,,,,,,,,,,,,,,,,,,,,,,,,,,,,,,,,,,,,,,,,,,,,,,,,,538.6524796249578,538.6587065829663,539.6555644159671,540.6385654999758,540.6385654999758,540.6385654999758,541.3581080829608,right,0.7172988750389777,None,,,,,,,,,,,205464,001,2024-12-05_13h08.29.969,Test,2024.2.4,None,2024-12-05 13h08.38.083919 +0100,
26,150,150,1,None,21,21,0,False,,,,right,0.6571381670073606,None,,,,,,,,,,,,,0,21,21,21,541.3723433749983,,,,,,,,,,,,,,,,,,,,,,,,,,,,,,,,,,,,,,,,,,,,,,,,,,,,,,,,,,,,,,,,,,,,,,,,,541.3660407079733,541.3723433749983,542.3603345829761,543.3549522079993,543.3549522079993,543.3549522079993,544.014832374989,right,0.6571381670073606,None,,,,,,,,,,,205464,001,2024-12-05_13h08.29.969,Test,2024.2.4,None,2024-12-05 13h08.38.083919 +0100,
36,150,0,5,None,22,22,0,True,,,,right,0.7878601250122301,None,,,,,,,,,,,,,0,22,22,22,544.032227040967,,,,,,,,,,,,,,,,,,,,,,,,,,,,,,,,,,,,,,,,,,,,,,,,,,,,,,,,,,,,,,,,,,,,,,,,,544.0254833329818,544.032227040967,545.027147915971,546.0125318329665,546.0125318329665,546.0125318329665,546.8077830409748,right,0.7878601250122301,None,,,,,,,,,,,205464,001,2024-12-05_13h08.29.969,Test,2024.2.4,None,2024-12-05 13h08.38.083919 +0100,
18,150,90,23,None,23,23,0,False,,,,right,1.230681832996197,None,,,,,,,,,,,,,0,23,23,23,546.8223897079588,,,,,,,,,,,,,,,,,,,,,,,,,,,,,,,,,,,,,,,,,,,,,,,,,,,,,,,,,,,,,,,,,,,,,,,,,546.8161906659952,546.8223897079588,547.8105132909841,548.8057184999925,548.8057184999925,548.8057184999925,550.0390894159791,right,1.230681832996197,None,,,,,,,,,,,205464,001,2024-12-05_13h08.29.969,Test,2024.2.4,None,2024-12-05 13h08.38.083919 +0100,
20,150,90,65,None,24,24,0,False,,,,left,0.6376792500377633,None,,,,,,,,,,,,,0,24,24,24,550.0514593329863,,,,,,,,,,,,,,,,,,,,,,,,,,,,,,,,,,,,,,,,,,,,,,,,,,,,,,,,,,,,,,,,,,,,,,,,,550.0453134579584,550.0514593329863,551.0436473329901,552.0298013749998,552.0298013749998,552.0298013749998,552.674348999979,left,0.6376792500377633,None,,,,,,,,,,,205464,001,2024-12-05_13h08.29.969,Test,2024.2.4,None,2024-12-05 13h08.38.083919 +0100,
3,150,0,8,None,25,25,0,False,,,,right,0.627503959054593,None,,,,,,,,,,,,,0,25,25,25,552.6912000830052,,,,,,,,,,,,,,,,,,,,,,,,,,,,,,,,,,,,,,,,,,,,,,,,,,,,,,,,,,,,,,,,,,,,,,,,,552.6839217909728,552.6912000830052,553.6888957499759,554.672286624962,554.672286624962,554.672286624962,555.3079571249546,right,0.627503959054593,None,,,,,,,,,,,205464,001,2024-12-05_13h08.29.969,Test,2024.2.4,None,2024-12-05 13h08.38.083919 +0100,
33,150,180,62,None,26,26,0,False,,,,right,0.8353335409774445,None,,,,,,,,,,,,,0,26,26,26,555.3283492499613,,,,,,,,,,,,,,,,,,,,,,,,,,,,,,,,,,,,,,,,,,,,,,,,,,,,,,,,,,,,,,,,,,,,,,,,,555.3222757079639,555.3283492499613,556.3226814999944,557.3043683749856,557.3043683749856,557.3043683749856,558.1425629159785,right,0.8353335409774445,None,,,,,,,,,,,205464,001,2024-12-05_13h08.29.969,Test,2024.2.4,None,2024-12-05 13h08.38.083919 +0100,
49,150,60,67,None,27,27,0,True,,,,left,0.6568487079930492,None,,,,,,,,,,,,,0,27,27,27,558.1585042909719,,,,,,,,,,,,,,,,,,,,,,,,,,,,,,,,,,,,,,,,,,,,,,,,,,,,,,,,,,,,,,,,,,,,,,,,,558.1519509159843,558.1585042909719,559.1554877499584,560.1390111660003,560.1390111660003,560.1390111660003,560.8075447499868,left,0.6568487079930492,None,,,,,,,,,,,205464,001,2024-12-05_13h08.29.969,Test,2024.2.4,None,2024-12-05 13h08.38.083919 +0100,
61,150,150,69,None,28,28,0,True,,,,left,0.707694457960315,None,,,,,,,,,,,,,0,28,28,28,560.8240173329832,,,,,,,,,,,,,,,,,,,,,,,,,,,,,,,,,,,,,,,,,,,,,,,,,,,,,,,,,,,,,,,,,,,,,,,,,560.817226040992,560.8240173329832,561.8222020829562,562.8061062080087,562.8061062080087,562.8061062080087,563.5265217499691,left,0.707694457960315,None,,,,,,,,,,,205464,001,2024-12-05_13h08.29.969,Test,2024.2.4,None,2024-12-05 13h08.38.083919 +0100,
63,150,150,9,None,29,29,0,True,,,,right,0.9499890419538133,None,,,,,,,,,,,,,0,29,29,29,563.5452810410061,,,,,,,,,,,,,,,,,,,,,,,,,,,,,,,,,,,,,,,,,,,,,,,,,,,,,,,,,,,,,,,,,,,,,,,,,563.5375527080032,563.5452810410061,564.5431407080032,565.5226205829531,565.5226205829531,565.5226205829531,566.4752215409535,right,0.9499890419538133,None,,,,,,,,,,,205464,001,2024-12-05_13h08.29.969,Test,2024.2.4,None,2024-12-05 13h08.38.083919 +0100,
46,150,60,19,None,30,30,0,True,,,,right,0.8021434160182253,None,,,,,,,,,,,,,0,30,30,30,566.4928477499634,,,,,,,,,,,,,,,,,,,,,,,,,,,,,,,,,,,,,,,,,,,,,,,,,,,,,,,,,,,,,,,,,,,,,,,,,566.4860116659547,566.4928477499634,567.5055651249713,568.4723867079592,568.4723867079592,568.4723867079592,569.281155249977,right,0.8021434160182253,None,,,,,,,,,,,205464,001,2024-12-05_13h08.29.969,Test,2024.2.4,None,2024-12-05 13h08.38.083919 +0100,
43,150,30,15,None,31,31,0,True,,,,left,0.8347961669787765,None,,,,,,,,,,,,,0,31,31,31,569.2979955829796,,,,,,,,,,,,,,,,,,,,,,,,,,,,,,,,,,,,,,,,,,,,,,,,,,,,,,,,,,,,,,,,,,,,,,,,,569.291423415998,569.2979955829796,570.2942902909708,571.2794912079698,571.2794912079698,571.2794912079698,572.1245434579905,left,0.8347961669787765,None,,,,,,,,,,,205464,001,2024-12-05_13h08.29.969,Test,2024.2.4,None,2024-12-05 13h08.38.083919 +0100,
52,150,90,22,None,32,32,0,True,,,,right,1.0799128749640658,None,,,,,,,,,,,,,0,32,32,32,572.1412025829777,,,,,,,,,,,,,,,,,,,,,,,,,,,,,,,,,,,,,,,,,,,,,,,,,,,,,,,,,,,,,,,,,,,,,,,,,572.1344208329683,572.1412025829777,573.1389782909537,574.1226212499896,574.1226212499896,574.1226212499896,575.2076721249614,right,1.0799128749640658,None,,,,,,,,,,,205464,001,2024-12-05_13h08.29.969,Test,2024.2.4,None,2024-12-05 13h08.38.083919 +0100,
44,150,30,3,None,33,33,0,True,,,,left,1.4041602080105804,None,,,,,,,,,,,,,0,33,33,33,575.2232898749644,,,,,,,,,,,,,,,,,,,,,,,,,,,,,,,,,,,,,,,,,,,,,,,,,,,,,,,,,,,,,,,,,,,,,,,,,575.2167785409838,575.2232898749644,576.2223256659927,577.2044884579955,577.2044884579955,577.2044884579955,578.6126194579992,left,1.4041602080105804,None,,,,,,,,,,,205464,001,2024-12-05_13h08.29.969,Test,2024.2.4,None,2024-12-05 13h08.38.083919 +0100,
5,150,0,56,None,34,34,0,False,,,,left,1.8829627499799244,None,,,,,,,,,,,,,0,34,34,34,578.6267181659932,,,,,,,,,,,,,,,,,,,,,,,,,,,,,,,,,,,,,,,,,,,,,,,,,,,,,,,,,,,,,,,,,,,,,,,,,578.6211300409632,578.6267181659932,579.6212187499623,580.6137189579895,580.6137189579895,580.6137189579895,582.5075181659777,left,1.8829627499799244,None,,,,,,,,,,,205464,001,2024-12-05_13h08.29.969,Test,2024.2.4,None,2024-12-05 13h08.38.083919 +0100,
40,150,0,30,None,35,35,0,True,,,,left,0.8367679590010084,None,,,,,,,,,,,,,0,35,35,35,582.5401823749999,,,,,,,,,,,,,,,,,,,,,,,,,,,,,,,,,,,,,,,,,,,,,,,,,,,,,,,,,,,,,,,,,,,,,,,,,582.5162381659611,582.5401823749999,583.5382330829743,584.5054213329568,584.5054213329568,584.5054213329568,585.3487840829766,left,0.8367679590010084,None,,,,,,,,,,,205464,001,2024-12-05_13h08.29.969,Test,2024.2.4,None,2024-12-05 13h08.38.083919 +0100,
10,150,30,43,None,36,36,0,False,,,,right,1.247103583009448,None,,,,,,,,,,,,,0,36,36,36,585.3807329999981,,,,,,,,,,,,,,,,,,,,,,,,,,,,,,,,,,,,,,,,,,,,,,,,,,,,,,,,,,,,,,,,,,,,,,,,,585.3570514579769,585.3807329999981,586.377251124999,587.3448390829726,587.3448390829726,587.3448390829726,588.5981676249648,right,1.247103583009448,None,,,,,,,,,,,205464,001,2024-12-05_13h08.29.969,Test,2024.2.4,None,2024-12-05 13h08.38.083919 +0100,
45,150,30,39,None,37,37,0,True,,,,right,1.2710118750110269,None,,,,,,,,,,,,,0,37,37,37,588.6149095830042,,,,,,,,,,,,,,,,,,,,,,,,,,,,,,,,,,,,,,,,,,,,,,,,,,,,,,,,,,,,,,,,,,,,,,,,,588.6081857079989,588.6149095830042,589.610116833006,590.5970288329991,590.5970288329991,590.5970288329991,591.8745195409865,right,1.2710118750110269,None,,,,,,,,,,,205464,001,2024-12-05_13h08.29.969,Test,2024.2.4,None,2024-12-05 13h08.38.083919 +0100,
59,150,120,2,None,38,38,0,True,,,,right,1.107449417002499,None,,,,,,,,,,,,,0,38,38,38,591.8916646660073,,,,,,,,,,,,,,,,,,,,,,,,,,,,,,,,,,,,,,,,,,,,,,,,,,,,,,,,,,,,,,,,,,,,,,,,,591.8850213749683,591.8916646660073,592.8875346659916,593.8715257499716,593.8715257499716,593.8715257499716,594.9829338329728,right,1.107449417002499,None,,,,,,,,,,,205464,001,2024-12-05_13h08.29.969,Test,2024.2.4,None,2024-12-05 13h08.38.083919 +0100,
25,150,120,21,None,39,39,0,False,,,,left,1.176604583975859,None,,,,,,,,,,,,,0,39,39,39,595.0048644159688,,,,,,,,,,,,,,,,,,,,,,,,,,,,,,,,,,,,,,,,,,,,,,,,,,,,,,,,,,,,,,,,,,,,,,,,,594.9967106249533,595.0048644159688,595.9943666659528,596.9803752499865,596.9803752499865,596.9803752499865,598.163956165954,left,1.176604583975859,None,,,,,,,,,,,205464,001,2024-12-05_13h08.29.969,Test,2024.2.4,None,2024-12-05 13h08.38.083919 +0100,
12,150,60,64,None,40,40,0,False,,,,right,1.82641204202082,None,,,,,,,,,,,,,0,40,40,40,598.1803944999701,,,,,,,,,,,,,,,,,,,,,,,,,,,,,,,,,,,,,,,,,,,,,,,,,,,,,,,,,,,,,,,,,,,,,,,,,598.1741197499796,598.1803944999701,599.177666457952,600.1636632499867,600.1636632499867,600.1636632499867,602.0003545829677,right,1.82641204202082,None,,,,,,,,,,,205464,001,2024-12-05_13h08.29.969,Test,2024.2.4,None,2024-12-05 13h08.38.083919 +0100,
29,150,150,14,None,41,41,0,False,,,,left,1.8780111250234768,None,,,,,,,,,,,,,0,41,41,41,602.016263041005,,,,,,,,,,,,,,,,,,,,,,,,,,,,,,,,,,,,,,,,,,,,,,,,,,,,,,,,,,,,,,,,,,,,,,,,,602.0114042079658,602.016263041005,603.0110148749663,603.9963136659935,603.9963136659935,603.9963136659935,605.8847041659756,left,1.8780111250234768,None,,,,,,,,,,,205464,001,2024-12-05_13h08.29.969,Test,2024.2.4,None,2024-12-05 13h08.38.083919 +0100,
22,150,120,17,None,42,42,0,False,,,,right,1.3071764159831218,None,,,,,,,,,,,,,0,42,42,42,605.8982642499614,,,,,,,,,,,,,,,,,,,,,,,,,,,,,,,,,,,,,,,,,,,,,,,,,,,,,,,,,,,,,,,,,,,,,,,,,605.8935835830052,605.8982642499614,606.8941773749539,607.8794062499655,607.8794062499655,607.8794062499655,609.1910797079909,right,1.3071764159831218,None,,,,,,,,,,,205464,001,2024-12-05_13h08.29.969,Test,2024.2.4,None,2024-12-05 13h08.38.083919 +0100,
1,150,0,41,None,43,43,0,False,,,,left,1.3455760410288349,None,,,,,,,,,,,,,0,43,43,43,609.2082454159972,,,,,,,,,,,,,,,,,,,,,,,,,,,,,,,,,,,,,,,,,,,,,,,,,,,,,,,,,,,,,,,,,,,,,,,,,609.2017271249788,609.2082454159972,610.2055480830022,611.1890916659613,611.1890916659613,611.1890916659613,612.5412881249795,left,1.3455760410288349,None,,,,,,,,,,,205464,001,2024-12-05_13h08.29.969,Test,2024.2.4,None,2024-12-05 13h08.38.083919 +0100,
56,150,120,10,None,44,44,0,True,,,,right,0.7884614579961635,None,,,,,,,,,,,,,0,44,44,44,612.5567191659939,,,,,,,,,,,,,,,,,,,,,,,,,,,,,,,,,,,,,,,,,,,,,,,,,,,,,,,,,,,,,,,,,,,,,,,,,612.5504215830006,612.5567191659939,613.5555434160051,614.5389873749809,614.5389873749809,614.5389873749809,615.3309346659807,right,0.7884614579961635,None,,,,,,,,,,,205464,001,2024-12-05_13h08.29.969,Test,2024.2.4,None,2024-12-05 13h08.38.083919 +0100,
47,150,60,59,None,45,45,0,True,,,,right,1.6181971249752678,None,,,,,,,,,,,,,0,45,45,45,615.348106957972,,,,,,,,,,,,,,,,,,,,,,,,,,,,,,,,,,,,,,,,,,,,,,,,,,,,,,,,,,,,,,,,,,,,,,,,,615.3415531659848,615.348106957972,616.3436459579971,617.3291086249519,617.3291086249519,617.3291086249519,618.9578127499553,right,1.6181971249752678,None,,,,,,,,,,,205464,001,2024-12-05_13h08.29.969,Test,2024.2.4,None,2024-12-05 13h08.38.083919 +0100,
30,150,150,26,None,46,46,0,False,,,,right,1.4407051660236903,None,,,,,,,,,,,,,0,46,46,46,618.9747214159579,,,,,,,,,,,,,,,,,,,,,,,,,,,,,,,,,,,,,,,,,,,,,,,,,,,,,,,,,,,,,,,,,,,,,,,,,618.9681994999992,618.9747214159579,619.9719972499879,620.9556144579547,620.9556144579547,620.9556144579547,622.4081711249892,right,1.4407051660236903,None,,,,,,,,,,,205464,001,2024-12-05_13h08.29.969,Test,2024.2.4,None,2024-12-05 13h08.38.083919 +0100,
48,150,60,37,None,47,47,0,True,,,,right,1.4158190000453033,None,,,,,,,,,,,,,0,47,47,47,622.4266525409766,,,,,,,,,,,,,,,,,,,,,,,,,,,,,,,,,,,,,,,,,,,,,,,,,,,,,,,,,,,,,,,,,,,,,,,,,622.4193342499784,622.4266525409766,623.422190415964,624.4059091659728,624.4059091659728,624.4059091659728,625.8293349579908,right,1.4158190000453033,None,,,,,,,,,,,205464,001,2024-12-05_13h08.29.969,Test,2024.2.4,None,2024-12-05 13h08.38.083919 +0100,
66,150,180,12,None,48,48,0,True,,,,right,1.8817431250354275,None,,,,,,,,,,,,,0,48,48,48,625.8396934579941,,,,,,,,,,,,,,,,,,,,,,,,,,,,,,,,,,,,,,,,,,,,,,,,,,,,,,,,,,,,,,,,,,,,,,,,,625.8352114579757,625.8396934579941,626.8277514579822,627.8284214999876,627.8284214999876,627.8284214999876,629.7176985410042,right,1.8817431250354275,None,,,,,,,,,,,205464,001,2024-12-05_13h08.29.969,Test,2024.2.4,None,2024-12-05 13h08.38.083919 +0100,
7,150,30,57,None,49,49,0,False,,,,right,0.8706115000532009,None,,,,,,,,,,,,,0,49,49,49,629.738589082961,,,,,,,,,,,,,,,,,,,,,,,,,,,,,,,,,,,,,,,,,,,,,,,,,,,,,,,,,,,,,,,,,,,,,,,,,629.7320884579676,629.738589082961,630.7264228749555,631.7128449999727,631.7128449999727,631.7128449999727,632.5931444999878,right,0.8706115000532009,None,,,,,,,,,,,205464,001,2024-12-05_13h08.29.969,Test,2024.2.4,None,2024-12-05 13h08.38.083919 +0100,
6,150,30,53,None,50,50,0,False,,,,right,1.7073970410274342,None,,,,,,,,,,,,,0,50,50,50,632.6148766249535,,,,,,,,,,,,,,,,,,,,,,,,,,,,,,,,,,,,,,,,,,,,,,,,,,,,,,,,,,,,,,,,,,,,,,,,,632.6067616659566,632.6148766249535,633.6083789159893,634.5891673329752,634.5891673329752,634.5891673329752,636.3071001659846,right,1.7073970410274342,None,,,,,,,,,,,205464,001,2024-12-05_13h08.29.969,Test,2024.2.4,None,2024-12-05 13h08.38.083919 +0100,
21,150,120,35,None,51,51,0,False,,,,right,0.7856035830336623,None,,,,,,,,,,,,,0,51,51,51,636.3231425829581,,,,,,,,,,,,,,,,,,,,,,,,,,,,,,,,,,,,,,,,,,,,,,,,,,,,,,,,,,,,,,,,,,,,,,,,,636.3169355409918,636.3231425829581,637.3109303749516,638.3057867909665,638.3057867909665,638.3057867909665,639.0985751659609,right,0.7856035830336623,None,,,,,,,,,,,205464,001,2024-12-05_13h08.29.969,Test,2024.2.4,None,2024-12-05 13h08.38.083919 +0100,
27,150,150,48,None,52,52,0,False,,,,left,1.6616438750061207,None,,,,,,,,,,,,,0,52,52,52,639.1151320829522,,,,,,,,,,,,,,,,,,,,,,,,,,,,,,,,,,,,,,,,,,,,,,,,,,,,,,,,,,,,,,,,,,,,,,,,,639.1083771249978,639.1151320829522,640.1104884579545,641.096026165993,641.096026165993,641.096026165993,642.7636900829966,left,1.6616438750061207,None,,,,,,,,,,,205464,001,2024-12-05_13h08.29.969,Test,2024.2.4,None,2024-12-05 13h08.38.083919 +0100,
55,150,90,55,None,53,53,0,True,,,,right,0.968954499985557,None,,,,,,,,,,,,,0,53,53,53,642.7803390409681,,,,,,,,,,,,,,,,,,,,,,,,,,,,,,,,,,,,,,,,,,,,,,,,,,,,,,,,,,,,,,,,,,,,,,,,,642.7735120409634,642.7803390409681,643.7782744579599,644.7724694159697,644.7724694159697,644.7724694159697,645.7476822079625,right,0.968954499985557,None,,,,,,,,,,,205464,001,2024-12-05_13h08.29.969,Test,2024.2.4,None,2024-12-05 13h08.38.083919 +0100,
39,150,0,70,None,54,54,0,True,,,,left,1.2544214579975232,None,,,,,,,,,,,,,0,54,54,54,645.7623524160008,,,,,,,,,,,,,,,,,,,,,,,,,,,,,,,,,,,,,,,,,,,,,,,,,,,,,,,,,,,,,,,,,,,,,,,,,645.7558486249764,645.7623524160008,646.7555363329593,647.7460279579973,647.7460279579973,647.7460279579973,649.0083537079627,left,1.2544214579975232,None,,,,,,,,,,,205464,001,2024-12-05_13h08.29.969,Test,2024.2.4,None,2024-12-05 13h08.38.083919 +0100,
41,150,30,60,None,55,55,0,True,,,,left,1.4015749170212075,None,,,,,,,,,,,,,0,55,55,55,649.0254283749964,,,,,,,,,,,,,,,,,,,,,,,,,,,,,,,,,,,,,,,,,,,,,,,,,,,,,,,,,,,,,,,,,,,,,,,,,649.0185295830015,649.0254283749964,650.0222708749934,651.0056870409753,651.0056870409753,651.0056870409753,652.4138094579685,left,1.4015749170212075,None,,,,,,,,,,,205464,001,2024-12-05_13h08.29.969,Test,2024.2.4,None,2024-12-05 13h08.38.083919 +0100,
60,150,120,33,None,56,56,0,True,,,,right,1.8942670000251383,None,,,,,,,,,,,,,0,56,56,56,652.4279220000026,,,,,,,,,,,,,,,,,,,,,,,,,,,,,,,,,,,,,,,,,,,,,,,,,,,,,,,,,,,,,,,,,,,,,,,,,652.4219864159822,652.4279220000026,653.4263337909942,654.4130887079518,654.4130887079518,654.4130887079518,656.3141073749866,right,1.8942670000251383,None,,,,,,,,,,,205464,001,2024-12-05_13h08.29.969,Test,2024.2.4,None,2024-12-05 13h08.38.083919 +0100,
70,150,180,4,None,57,57,0,True,,,,left,1.910174249962438,None,,,,,,,,,,,,,0,57,57,57,656.3286160829593,,,,,,,,,,,,,,,,,,,,,,,,,,,,,,,,,,,,,,,,,,,,,,,,,,,,,,,,,,,,,,,,,,,,,,,,,656.3222200829769,656.3286160829593,657.3223214999889,658.312965249992,658.312965249992,658.312965249992,660.2349807909923,left,1.910174249962438,None,,,,,,,,,,,205464,001,2024-12-05_13h08.29.969,Test,2024.2.4,None,2024-12-05 13h08.38.083919 +0100,
58,150,120,63,None,58,58,0,True,,,,left,1.9397835420095362,None,,,,,,,,,,,,,0,58,58,58,660.2471532909549,,,,,,,,,,,,,,,,,,,,,,,,,,,,,,,,,,,,,,,,,,,,,,,,,,,,,,,,,,,,,,,,,,,,,,,,,660.2424790829537,660.2471532909549,661.2438912499929,662.2294228329556,662.2294228329556,662.2294228329556,664.1747802500031,left,1.9397835420095362,None,,,,,,,,,,,205464,001,2024-12-05_13h08.29.969,Test,2024.2.4,None,2024-12-05 13h08.38.083919 +0100,
24,150,120,27,None,59,59,0,False,,,,left,3.0070295420009643,None,,,,,,,,,,,,,0,59,59,59,664.1917660000036,,,,,,,,,,,,,,,,,,,,,,,,,,,,,,,,,,,,,,,,,,,,,,,,,,,,,,,,,,,,,,,,,,,,,,,,,664.185265374952,664.1917660000036,665.1888650829787,666.1722602079972,666.1722602079972,666.1722602079972,669.191098499985,left,3.0070295420009643,None,669.1609129579738,669.1609129579738,669.1716161249788,,,,,,,,205464,001,2024-12-05_13h08.29.969,Test,2024.2.4,None,2024-12-05 13h08.38.083919 +0100,
4,150,0,32,None,60,60,0,False,,,,left,0.8562510409974493,None,,,,,,,,,,,,,0,60,60,60,669.2073644159827,,,,,,,,,,,,,,,,,,,,,,,,,,,,,,,,,,,,,,,,,,,,,,,,,,,,,,,,,,,,,,,,,,,,,,,,,669.200691624952,669.2073644159827,670.2055939579732,671.1891936659813,671.1891936659813,671.1891936659813,672.0578133329982,left,0.8562510409974493,None,,,,,,,,,,,205464,001,2024-12-05_13h08.29.969,Test,2024.2.4,None,2024-12-05 13h08.38.083919 +0100,
32,150,180,42,None,61,61,0,False,,,,left,1.1768641659873538,None,,,,,,,,,,,,,0,61,61,61,672.0759312079754,,,,,,,,,,,,,,,,,,,,,,,,,,,,,,,,,,,,,,,,,,,,,,,,,,,,,,,,,,,,,,,,,,,,,,,,,672.0693324159947,672.0759312079754,673.0724294160027,674.0549762499868,674.0549762499868,674.0549762499868,675.2427595409681,left,1.1768641659873538,None,,,,,,,,,,,205464,001,2024-12-05_13h08.29.969,Test,2024.2.4,None,2024-12-05 13h08.38.083919 +0100,
67,150,180,13,None,62,62,0,True,,,,left,2.4085963329998776,None,,,,,,,,,,,,,0,62,62,62,675.2617265000008,,,,,,,,,,,,,,,,,,,,,,,,,,,,,,,,,,,,,,,,,,,,,,,,,,,,,,,,,,,,,,,,,,,,,,,,,675.2538312909892,675.2617265000008,676.255917915958,677.2392523330054,677.2392523330054,677.2392523330054,679.6577826249995,left,2.4085963329998776,None,,,,,,,,,,,205464,001,2024-12-05_13h08.29.969,Test,2024.2.4,None,2024-12-05 13h08.38.083919 +0100,
64,150,150,34,None,63,63,0,True,,,,right,1.3621794170467183,None,,,,,,,,,,,,,0,63,63,63,679.6737412909861,,,,,,,,,,,,,,,,,,,,,,,,,,,,,,,,,,,,,,,,,,,,,,,,,,,,,,,,,,,,,,,,,,,,,,,,,679.6674869999988,679.6737412909861,680.6722757910029,681.6557591249584,681.6557591249584,681.6557591249584,683.0237846659729,right,1.3621794170467183,None,,,,,,,,,,,205464,001,2024-12-05_13h08.29.969,Test,2024.2.4,None,2024-12-05 13h08.38.083919 +0100,
17,150,90,38,None,64,64,0,False,,,,right,1.5218608329887502,None,,,,,,,,,,,,,0,64,64,64,683.0362254159991,,,,,,,,,,,,,,,,,,,,,,,,,,,,,,,,,,,,,,,,,,,,,,,,,,,,,,,,,,,,,,,,,,,,,,,,,683.0318503329763,683.0362254159991,684.0269711659639,685.0227838329738,685.0227838329738,685.0227838329738,686.5470089580049,right,1.5218608329887502,None,,,,,,,,,,,205464,001,2024-12-05_13h08.29.969,Test,2024.2.4,None,2024-12-05 13h08.38.083919 +0100,
53,150,90,68,None,65,65,0,True,,,,left,0.8441630409797654,None,,,,,,,,,,,,,0,65,65,65,686.5601840000018,,,,,,,,,,,,,,,,,,,,,,,,,,,,,,,,,,,,,,,,,,,,,,,,,,,,,,,,,,,,,,,,,,,,,,,,,686.5539429999772,686.5601840000018,687.5558059999603,688.5462335409829,688.5462335409829,688.5462335409829,689.3972128749592,left,0.8441630409797654,None,,,,,,,,,,,205464,001,2024-12-05_13h08.29.969,Test,2024.2.4,None,2024-12-05 13h08.38.083919 +0100,
28,150,150,44,None,66,66,0,False,,,,left,1.4446061660419218,None,,,,,,,,,,,,,0,66,66,66,689.414261457976,,,,,,,,,,,,,,,,,,,,,,,,,,,,,,,,,,,,,,,,,,,,,,,,,,,,,,,,,,,,,,,,,,,,,,,,,689.4077867079759,689.414261457976,690.4112351659569,691.3962535829633,691.3962535829633,691.3962535829633,692.8472968330025,left,1.4446061660419218,None,,,,,,,,,,,205464,001,2024-12-05_13h08.29.969,Test,2024.2.4,None,2024-12-05 13h08.38.083919 +0100,
19,150,90,40,None,67,67,0,False,,,,right,1.3888316659722477,None,,,,,,,,,,,,,0,67,67,67,692.865592874994,,,,,,,,,,,,,,,,,,,,,,,,,,,,,,,,,,,,,,,,,,,,,,,,,,,,,,,,,,,,,,,,,,,,,,,,,692.8586711660028,692.865592874994,693.8601239160053,694.8464199159644,694.8464199159644,694.8464199159644,696.2415320409928,right,1.3888316659722477,None,,,,,,,,,,,205464,001,2024-12-05_13h08.29.969,Test,2024.2.4,None,2024-12-05 13h08.38.083919 +0100,
65,150,150,58,None,68,68,0,True,,,,left,1.4072990840068087,None,,,,,,,,,,,,,0,68,68,68,696.2580002909526,,,,,,,,,,,,,,,,,,,,,,,,,,,,,,,,,,,,,,,,,,,,,,,,,,,,,,,,,,,,,,,,,,,,,,,,,696.2515570409596,696.2580002909526,697.2554885409772,698.2385935829952,698.2385935829952,698.2385935829952,699.6483236659551,left,1.4072990840068087,None,,,,,,,,,,,205464,001,2024-12-05_13h08.29.969,Test,2024.2.4,None,2024-12-05 13h08.38.083919 +0100,
16,150,90,52,None,69,69,0,False,,,,right,1.9172427090234123,None,,,,,,,,,,,,,0,69,69,69,699.6647144579911,,,,,,,,,,,,,,,,,,,,,,,,,,,,,,,,,,,,,,,,,,,,,,,,,,,,,,,,,,,,,,,,,,,,,,,,,699.6577592499671,699.6647144579911,700.6604071659967,701.6452585000079,701.6452585000079,701.6452585000079,703.5899429160054,right,1.9172427090234123,None,,,,,,,,,,,205464,001,2024-12-05_13h08.29.969,Test,2024.2.4,None,2024-12-05 13h08.38.083919 +0100,
,,,,,,,,,,,,,,,,,,,,,,,,,,,,,,,,,,,,,,,,,,,,,,,,,,,,,,,,,,,,,,,,,,,,,,,,,,,,,,,,,,,,,,,,,,,,,,,,,,,,,,,,,,,,,,,,,,,,,703.5902743329643,703.6055157500086,703.6055157500086,706.9076443749946,space,3.2933569170418195,None,205464,001,2024-12-05_13h08.29.969,Test,2024.2.4,None,2024-12-05 13h08.38.083919 +0100,
