Trial_Number,Exposure_Duration,Displacement_Angle,Stimulus,Response,thisN,thisTrialN,thisRepN,Is_Distractor,key_resp_3.keys,key_resp_3.rt,key_resp_3.duration,key_resp_7.keys,key_resp_7.rt,key_resp_7.duration,trials.thisRepN,trials.thisTrialN,trials.thisN,trials.thisIndex,trials_2.thisRepN,trials_2.thisTrialN,trials_2.thisN,trials_2.thisIndex,trials_3.thisRepN,trials_3.thisTrialN,trials_3.thisN,trials_3.thisIndex,trials_4.thisRepN,trials_4.thisTrialN,trials_4.thisN,trials_4.thisIndex,thisRow.t,notes,Intro_to_experiment.started,important1_2.started,key_resp_8.started,Intro_to_experiment.stopped,key_resp_8.keys,key_resp_8.rt,key_resp_8.duration,important.started,important1.started,key_resp_4.started,important.stopped,key_resp_4.keys,key_resp_4.rt,key_resp_4.duration,training_instruction.started,key_resp_9.started,important1_3.started,training_instruction.stopped,key_resp_9.keys,key_resp_9.rt,key_resp_9.duration,training_trial.started,cross.started,image.started,aperture.started,cross.stopped,image.stopped,aperture.stopped,training_trial.stopped,New_instruction.started,text.started,key_resp_2.started,New_instruction.stopped,key_resp_2.keys,key_resp_2.rt,key_resp_2.duration,test_trial.started,cross2.started,cross2.stopped,image_2.started,key_resp_3.started,aperture_2.started,test_trial.stopped,trials_2.key_resp_3.keys,trials_2.key_resp_3.rt,trials_2.key_resp_3.duration,start_blok_2.started,key_resp_5.started,text_4.started,start_blok_2.stopped,key_resp_5.keys,key_resp_5.rt,key_resp_5.duration,training_2.started,cross_2.started,image_3.started,aperture_3.started,cross_2.stopped,image_3.stopped,aperture_3.stopped,training_2.stopped,nyeste_instruks.started,text_5.started,key_resp_6.started,nyeste_instruks.stopped,key_resp_6.keys,key_resp_6.rt,key_resp_6.duration,test_2.started,cross2_2.started,cross2_2.stopped,image_4.started,key_resp_7.started,aperture_4.started,test_2.stopped,trials_4.key_resp_7.keys,trials_4.key_resp_7.rt,trials_4.key_resp_7.duration,Instruction.started,Instruktion.started,key_resp.started,Instruction.stopped,key_resp.keys,key_resp.rt,key_resp.duration,participant,session,date,expName,psychopyVersion,frameRate,expStart,
,,,,,,,,,,,,,,,,,,,,,,,,,,,,,,,,,0.00641041700146161,0.012774542003171518,0.012774542003171518,11.309593583020614,space,11.264588708989322,None,,,,,,,,,,,,,,,,,,,,,,,,,,,,,,,,,,,,,,,,,,,,,,,,,,,,,,,,,,,,,,,,,,,,,,,,,,,,,,,220243,001,2024-11-28_11h35.47.946,Test,2024.2.4,None,2024-11-28 11h35.54.875720 +0100,
,,,,,,,,,,,,,,,,,,,,,,,,,,,,,,,,,,,,,,,,11.309690125024645,11.331683249998605,11.331683249998605,43.2721936670132,space,31.93827116600005,None,,,,,,,,,,,,,,,,,,,,,,,,,,,,,,,,,,,,,,,,,,,,,,,,,,,,,,,,,,,,,,,,,,,,,,,,220243,001,2024-11-28_11h35.47.946,Test,2024.2.4,None,2024-11-28 11h35.54.875720 +0100,
,,,,,,,,,,,,,,,,,,,,,,,,,,,,,,,,,,,,,,,,,,,,,,,43.27229787502438,43.292436458024895,43.292436458024895,57.132705125026405,space,13.837971750006545,None,,,,,,,,,,,,,,,,,,,,,,,,,,,,,,,,,,,,,,,,,,,,,,,,,,,,,,,,,,,,,,,,,220243,001,2024-11-28_11h35.47.946,Test,2024.2.4,None,2024-11-28 11h35.54.875720 +0100,
10,150,30,12,None,0,0,0,,,,,,,,0,0,0,9,,,,,,,,,,,,,57.16937650000909,,,,,,,,,,,,,,,,,,,,,,,57.16065045801224,57.16937650000909,57.3299963750178,57.3299963750178,57.36325620801654,59.02920008302317,59.02920008302317,59.01426116700168,,,,,,,,,,,,,,,,,,,,,,,,,,,,,,,,,,,,,,,,,,,,,,,,,,,,,,,,,220243,001,2024-11-28_11h35.47.946,Test,2024.2.4,None,2024-11-28 11h35.54.875720 +0100,
32,150,180,50,None,1,1,0,,,,,,,,0,1,1,31,,,,,,,,,,,,,59.02920008302317,,,,,,,,,,,,,,,,,,,,,,,59.02435333302128,59.03286558302352,59.22976408302202,59.22976408302202,59.22976408302202,60.929585417005,60.929585417005,60.914371708000544,,,,,,,,,,,,,,,,,,,,,,,,,,,,,,,,,,,,,,,,,,,,,,,,,,,,,,,,,220243,001,2024-11-28_11h35.47.946,Test,2024.2.4,None,2024-11-28 11h35.54.875720 +0100,
19,150,90,26,None,2,2,0,,,,,,,,0,2,2,18,,,,,,,,,,,,,60.929585417005,,,,,,,,,,,,,,,,,,,,,,,60.92484870800399,60.93339683301747,61.12855883300654,61.12855883300654,61.12855883300654,62.82854162500007,62.82854162500007,62.81429420801578,,,,,,,,,,,,,,,,,,,,,,,,,,,,,,,,,,,,,,,,,,,,,,,,,,,,,,,,,220243,001,2024-11-28_11h35.47.946,Test,2024.2.4,None,2024-11-28 11h35.54.875720 +0100,
13,150,60,37,None,3,3,0,,,,,,,,0,3,3,12,,,,,,,,,,,,,62.82854162500007,,,,,,,,,,,,,,,,,,,,,,,62.823742958018556,62.83299954200629,63.03012075001607,63.03012075001607,63.03012075001607,64.72817741701147,64.72817741701147,64.71423370801494,,,,,,,,,,,,,,,,,,,,,,,,,,,,,,,,,,,,,,,,,,,,,,,,,,,,,,,,,220243,001,2024-11-28_11h35.47.946,Test,2024.2.4,None,2024-11-28 11h35.54.875720 +0100,
22,150,120,58,None,4,4,0,,,,,,,,0,4,4,21,,,,,,,,,,,,,64.72817741701147,,,,,,,,,,,,,,,,,,,,,,,64.7232531250047,64.73208704200806,64.93000316701364,64.93000316701364,64.93000316701364,66.62805125000887,66.62805125000887,66.61422916702577,,,,,,,,,,,,,,,,,,,,,,,,,,,,,,,,,,,,,,,,,,,,,,,,,,,,,,,,,220243,001,2024-11-28_11h35.47.946,Test,2024.2.4,None,2024-11-28 11h35.54.875720 +0100,
11,150,60,1,None,5,5,0,,,,,,,,0,5,5,10,,,,,,,,,,,,,66.62805125000887,,,,,,,,,,,,,,,,,,,,,,,66.62320245802402,66.63276250002673,66.82998883302207,66.82998883302207,66.82998883302207,68.52810862500337,68.52810862500337,68.51433870801702,,,,,,,,,,,,,,,,,,,,,,,,,,,,,,,,,,,,,,,,,,,,,,,,,,,,,,,,,220243,001,2024-11-28_11h35.47.946,Test,2024.2.4,None,2024-11-28 11h35.54.875720 +0100,
8,150,30,66,None,6,6,0,,,,,,,,0,6,6,7,,,,,,,,,,,,,68.52810862500337,,,,,,,,,,,,,,,,,,,,,,,68.52322154201102,68.53284508301294,68.73006491700653,68.73006491700653,68.73006491700653,70.42772337500355,70.42772337500355,70.41423845800455,,,,,,,,,,,,,,,,,,,,,,,,,,,,,,,,,,,,,,,,,,,,,,,,,,,,,,,,,220243,001,2024-11-28_11h35.47.946,Test,2024.2.4,None,2024-11-28 11h35.54.875720 +0100,
5,150,0,63,None,7,7,0,,,,,,,,0,7,7,4,,,,,,,,,,,,,70.42772337500355,,,,,,,,,,,,,,,,,,,,,,,70.4228026670171,70.43286108301254,70.63000779200229,70.63000779200229,70.63000779200229,72.32787875001668,72.32787875001668,72.31419108301634,,,,,,,,,,,,,,,,,,,,,,,,,,,,,,,,,,,,,,,,,,,,,,,,,,,,,,,,,220243,001,2024-11-28_11h35.47.946,Test,2024.2.4,None,2024-11-28 11h35.54.875720 +0100,
29,150,150,36,None,8,8,0,,,,,,,,0,8,8,28,,,,,,,,,,,,,72.32787875001668,,,,,,,,,,,,,,,,,,,,,,,72.32290850000572,72.33172325001215,72.52987137500895,72.52987137500895,72.52987137500895,74.22810691702762,74.22810691702762,74.21452125001815,,,,,,,,,,,,,,,,,,,,,,,,,,,,,,,,,,,,,,,,,,,,,,,,,,,,,,,,,220243,001,2024-11-28_11h35.47.946,Test,2024.2.4,None,2024-11-28 11h35.54.875720 +0100,
34,150,180,11,None,9,9,0,,,,,,,,0,9,9,33,,,,,,,,,,,,,74.22810691702762,,,,,,,,,,,,,,,,,,,,,,,74.22317545799888,74.23323974999948,74.4299892920244,74.4299892920244,74.4299892920244,76.12873779202346,76.12873779202346,76.11436095801764,,,,,,,,,,,,,,,,,,,,,,,,,,,,,,,,,,,,,,,,,,,,,,,,,,,,,,,,,220243,001,2024-11-28_11h35.47.946,Test,2024.2.4,None,2024-11-28 11h35.54.875720 +0100,
28,150,150,60,None,10,10,0,,,,,,,,0,10,10,27,,,,,,,,,,,,,76.12873779202346,,,,,,,,,,,,,,,,,,,,,,,76.12398133301758,76.1327101670031,76.33000820802408,76.33000820802408,76.33000820802408,78.0278494580125,78.0278494580125,78.0143550830253,,,,,,,,,,,,,,,,,,,,,,,,,,,,,,,,,,,,,,,,,,,,,,,,,,,,,,,,,220243,001,2024-11-28_11h35.47.946,Test,2024.2.4,None,2024-11-28 11h35.54.875720 +0100,
18,150,90,19,None,11,11,0,,,,,,,,0,11,11,17,,,,,,,,,,,,,78.0278494580125,,,,,,,,,,,,,,,,,,,,,,,78.02308816701407,78.03238054201938,78.23007712501567,78.23007712501567,78.23007712501567,79.9282361670048,79.9282361670048,79.91457304201322,,,,,,,,,,,,,,,,,,,,,,,,,,,,,,,,,,,,,,,,,,,,,,,,,,,,,,,,,220243,001,2024-11-28_11h35.47.946,Test,2024.2.4,None,2024-11-28 11h35.54.875720 +0100,
12,150,60,31,None,12,12,0,,,,,,,,0,12,12,11,,,,,,,,,,,,,79.9282361670048,,,,,,,,,,,,,,,,,,,,,,,79.9232885829988,79.93214304200956,80.13000895801815,80.13000895801815,80.13000895801815,81.82709454200813,81.82709454200813,81.81410016701557,,,,,,,,,,,,,,,,,,,,,,,,,,,,,,,,,,,,,,,,,,,,,,,,,,,,,,,,,220243,001,2024-11-28_11h35.47.946,Test,2024.2.4,None,2024-11-28 11h35.54.875720 +0100,
6,150,30,41,None,13,13,0,,,,,,,,0,13,13,5,,,,,,,,,,,,,81.82709454200813,,,,,,,,,,,,,,,,,,,,,,,81.82239975000266,81.83168962501804,82.03004745801445,82.03004745801445,82.03004745801445,83.72740820801118,83.72740820801118,83.71447658300167,,,,,,,,,,,,,,,,,,,,,,,,,,,,,,,,,,,,,,,,,,,,,,,,,,,,,,,,,220243,001,2024-11-28_11h35.47.946,Test,2024.2.4,None,2024-11-28 11h35.54.875720 +0100,
35,150,180,17,None,14,14,0,,,,,,,,0,14,14,34,,,,,,,,,,,,,83.72740820801118,,,,,,,,,,,,,,,,,,,,,,,83.72251312501612,83.73209595802473,83.92998841701774,83.92998841701774,83.92998841701774,85.62681200000225,85.62681200000225,85.61400283302646,,,,,,,,,,,,,,,,,,,,,,,,,,,,,,,,,,,,,,,,,,,,,,,,,,,,,,,,,220243,001,2024-11-28_11h35.47.946,Test,2024.2.4,None,2024-11-28 11h35.54.875720 +0100,
25,150,120,65,None,15,15,0,,,,,,,,0,15,15,24,,,,,,,,,,,,,85.62681200000225,,,,,,,,,,,,,,,,,,,,,,,85.6220480420161,85.63143295800546,85.82999570801621,85.82999570801621,85.82999570801621,87.5291728330194,87.5291728330194,87.51453183300328,,,,,,,,,,,,,,,,,,,,,,,,,,,,,,,,,,,,,,,,,,,,,,,,,,,,,,,,,220243,001,2024-11-28_11h35.47.946,Test,2024.2.4,None,2024-11-28 11h35.54.875720 +0100,
23,150,120,69,None,16,16,0,,,,,,,,0,16,16,22,,,,,,,,,,,,,87.5291728330194,,,,,,,,,,,,,,,,,,,,,,,87.52435104202596,87.53318741702242,87.73007691701059,87.73007691701059,87.73007691701059,89.42882904200815,89.42882904200815,89.41429400001653,,,,,,,,,,,,,,,,,,,,,,,,,,,,,,,,,,,,,,,,,,,,,,,,,,,,,,,,,220243,001,2024-11-28_11h35.47.946,Test,2024.2.4,None,2024-11-28 11h35.54.875720 +0100,
24,150,120,45,None,17,17,0,,,,,,,,0,17,17,23,,,,,,,,,,,,,89.42882904200815,,,,,,,,,,,,,,,,,,,,,,,89.42397629201878,89.43275012500817,89.63019629201153,89.63019629201153,89.63019629201153,91.32821829200839,91.32821829200839,91.31424975002301,,,,,,,,,,,,,,,,,,,,,,,,,,,,,,,,,,,,,,,,,,,,,,,,,,,,,,,,,220243,001,2024-11-28_11h35.47.946,Test,2024.2.4,None,2024-11-28 11h35.54.875720 +0100,
1,150,0,67,None,18,18,0,,,,,,,,0,18,18,0,,,,,,,,,,,,,91.32821829200839,,,,,,,,,,,,,,,,,,,,,,,91.32325712501188,91.3331896669988,91.5300547920051,91.5300547920051,91.5300547920051,93.22813300002599,93.22813300002599,93.21417712501716,,,,,,,,,,,,,,,,,,,,,,,,,,,,,,,,,,,,,,,,,,,,,,,,,,,,,,,,,220243,001,2024-11-28_11h35.47.946,Test,2024.2.4,None,2024-11-28 11h35.54.875720 +0100,
20,150,90,7,None,19,19,0,,,,,,,,0,19,19,19,,,,,,,,,,,,,93.22813300002599,,,,,,,,,,,,,,,,,,,,,,,93.22320191701874,93.2328721670201,93.42994929201086,93.42994929201086,93.42994929201086,95.1278225830174,95.1278225830174,95.11419183301041,,,,,,,,,,,,,,,,,,,,,,,,,,,,,,,,,,,,,,,,,,,,,,,,,,,,,,,,,220243,001,2024-11-28_11h35.47.946,Test,2024.2.4,None,2024-11-28 11h35.54.875720 +0100,
16,150,90,49,None,20,20,0,,,,,,,,0,20,20,15,,,,,,,,,,,,,95.1278225830174,,,,,,,,,,,,,,,,,,,,,,,95.12296866701217,95.13269483300974,95.3300147500122,95.3300147500122,95.3300147500122,97.02782829201897,97.02782829201897,97.0142963330145,,,,,,,,,,,,,,,,,,,,,,,,,,,,,,,,,,,,,,,,,,,,,,,,,,,,,,,,,220243,001,2024-11-28_11h35.47.946,Test,2024.2.4,None,2024-11-28 11h35.54.875720 +0100,
15,150,60,24,None,21,21,0,,,,,,,,0,21,21,14,,,,,,,,,,,,,97.02782829201897,,,,,,,,,,,,,,,,,,,,,,,97.0228943330003,97.03172854200238,97.23009704201831,97.23009704201831,97.23009704201831,98.92863183302688,98.92863183302688,98.91474483301863,,,,,,,,,,,,,,,,,,,,,,,,,,,,,,,,,,,,,,,,,,,,,,,,,,,,,,,,,220243,001,2024-11-28_11h35.47.946,Test,2024.2.4,None,2024-11-28 11h35.54.875720 +0100,
9,150,30,9,None,22,22,0,,,,,,,,0,22,22,8,,,,,,,,,,,,,98.92863183302688,,,,,,,,,,,,,,,,,,,,,,,98.92373750000843,98.9335265000118,99.13002283300739,99.13002283300739,99.13002283300739,100.82778058300028,100.82778058300028,100.81430612501572,,,,,,,,,,,,,,,,,,,,,,,,,,,,,,,,,,,,,,,,,,,,,,,,,,,,,,,,,220243,001,2024-11-28_11h35.47.946,Test,2024.2.4,None,2024-11-28 11h35.54.875720 +0100,
17,150,90,62,None,23,23,0,,,,,,,,0,23,23,16,,,,,,,,,,,,,100.82778058300028,,,,,,,,,,,,,,,,,,,,,,,100.8229788330209,100.8316135420173,101.03004804201191,101.03004804201191,101.03004804201191,102.7274000000034,102.7274000000034,102.71435820800252,,,,,,,,,,,,,,,,,,,,,,,,,,,,,,,,,,,,,,,,,,,,,,,,,,,,,,,,,220243,001,2024-11-28_11h35.47.946,Test,2024.2.4,None,2024-11-28 11h35.54.875720 +0100,
31,150,180,21,None,24,24,0,,,,,,,,0,24,24,30,,,,,,,,,,,,,102.7274000000034,,,,,,,,,,,,,,,,,,,,,,,102.72251700001652,102.73246208301862,102.93009629202425,102.93009629202425,102.93009629202425,104.6279775830044,104.6279775830044,104.61428666702705,,,,,,,,,,,,,,,,,,,,,,,,,,,,,,,,,,,,,,,,,,,,,,,,,,,,,,,,,220243,001,2024-11-28_11h35.47.946,Test,2024.2.4,None,2024-11-28 11h35.54.875720 +0100,
14,150,60,18,None,25,25,0,,,,,,,,0,25,25,13,,,,,,,,,,,,,104.6279775830044,,,,,,,,,,,,,,,,,,,,,,,104.62316870799987,104.6324492499989,104.83015604200773,104.83015604200773,104.83015604200773,106.5276238330116,106.5276238330116,106.51435704200412,,,,,,,,,,,,,,,,,,,,,,,,,,,,,,,,,,,,,,,,,,,,,,,,,,,,,,,,,220243,001,2024-11-28_11h35.47.946,Test,2024.2.4,None,2024-11-28 11h35.54.875720 +0100,
2,150,0,47,None,26,26,0,,,,,,,,0,26,26,1,,,,,,,,,,,,,106.5276238330116,,,,,,,,,,,,,,,,,,,,,,,106.52256050001597,106.53230091702426,106.73010066701681,106.73010066701681,106.73010066701681,108.42698354201275,108.42698354201275,108.41418225000962,,,,,,,,,,,,,,,,,,,,,,,,,,,,,,,,,,,,,,,,,,,,,,,,,,,,,,,,,220243,001,2024-11-28_11h35.47.946,Test,2024.2.4,None,2024-11-28 11h35.54.875720 +0100,
26,150,150,42,None,27,27,0,,,,,,,,0,27,27,25,,,,,,,,,,,,,108.42698354201275,,,,,,,,,,,,,,,,,,,,,,,108.42228875000728,108.43160383301438,108.63009145800606,108.63009145800606,108.63009145800606,110.32689795800252,110.32689795800252,110.31415262501105,,,,,,,,,,,,,,,,,,,,,,,,,,,,,,,,,,,,,,,,,,,,,,,,,,,,,,,,,220243,001,2024-11-28_11h35.47.946,Test,2024.2.4,None,2024-11-28 11h35.54.875720 +0100,
21,150,120,3,None,28,28,0,,,,,,,,0,28,28,20,,,,,,,,,,,,,110.32689795800252,,,,,,,,,,,,,,,,,,,,,,,110.32203145802487,110.33134533301927,110.53004029201111,110.53004029201111,110.53004029201111,112.22761312502553,112.22761312502553,112.214286041999,,,,,,,,,,,,,,,,,,,,,,,,,,,,,,,,,,,,,,,,,,,,,,,,,,,,,,,,,220243,001,2024-11-28_11h35.47.946,Test,2024.2.4,None,2024-11-28 11h35.54.875720 +0100,
7,150,30,38,None,29,29,0,,,,,,,,0,29,29,6,,,,,,,,,,,,,112.22761312502553,,,,,,,,,,,,,,,,,,,,,,,112.22261012502713,112.23237504201825,112.4300952500198,112.4300952500198,112.4300952500198,114.12913362501422,114.12913362501422,114.11425233300542,,,,,,,,,,,,,,,,,,,,,,,,,,,,,,,,,,,,,,,,,,,,,,,,,,,,,,,,,220243,001,2024-11-28_11h35.47.946,Test,2024.2.4,None,2024-11-28 11h35.54.875720 +0100,
30,150,150,61,None,30,30,0,,,,,,,,0,30,30,29,,,,,,,,,,,,,114.12913362501422,,,,,,,,,,,,,,,,,,,,,,,114.1240585000196,114.14664850002737,114.32998754200526,114.32998754200526,114.33596216700971,116.02919200001634,116.02919200001634,116.0147294580238,,,,,,,,,,,,,,,,,,,,,,,,,,,,,,,,,,,,,,,,,,,,,,,,,,,,,,,,,220243,001,2024-11-28_11h35.47.946,Test,2024.2.4,None,2024-11-28 11h35.54.875720 +0100,
27,150,150,40,None,31,31,0,,,,,,,,0,31,31,26,,,,,,,,,,,,,116.02919200001634,,,,,,,,,,,,,,,,,,,,,,,116.02426500001457,116.03396487500868,116.23007179200067,116.23007179200067,116.23007179200067,117.92898862500442,117.92898862500442,117.9145070000086,,,,,,,,,,,,,,,,,,,,,,,,,,,,,,,,,,,,,,,,,,,,,,,,,,,,,,,,,220243,001,2024-11-28_11h35.47.946,Test,2024.2.4,None,2024-11-28 11h35.54.875720 +0100,
3,150,0,59,None,32,32,0,,,,,,,,0,32,32,2,,,,,,,,,,,,,117.92898862500442,,,,,,,,,,,,,,,,,,,,,,,117.92405416700058,117.93469683302101,118.13014529200154,118.13014529200154,118.13014529200154,119.8280492920021,119.8280492920021,119.81427304202225,,,,,,,,,,,,,,,,,,,,,,,,,,,,,,,,,,,,,,,,,,,,,,,,,,,,,,,,,220243,001,2024-11-28_11h35.47.946,Test,2024.2.4,None,2024-11-28 11h35.54.875720 +0100,
33,150,180,70,None,33,33,0,,,,,,,,0,33,33,32,,,,,,,,,,,,,119.8280492920021,,,,,,,,,,,,,,,,,,,,,,,119.8231462080148,119.83287666700198,120.03005541700986,120.03005541700986,120.03005541700986,121.72782641701633,121.72782641701633,121.71430533300736,,,,,,,,,,,,,,,,,,,,,,,,,,,,,,,,,,,,,,,,,,,,,,,,,,,,,,,,,220243,001,2024-11-28_11h35.47.946,Test,2024.2.4,None,2024-11-28 11h35.54.875720 +0100,
4,150,0,8,None,34,34,0,,,,,,,,0,34,34,3,,,,,,,,,,,,,121.72782641701633,,,,,,,,,,,,,,,,,,,,,,,121.72300270802225,121.7325720830122,121.93009408301441,121.93009408301441,121.93009408301441,123.61975895802607,123.61975895802607,123.61446291700122,,,,,,,,,,,,,,,,,,,,,,,,,,,,,,,,,,,,,,,,,,,,,,,,,,,,,,,,,220243,001,2024-11-28_11h35.47.946,Test,2024.2.4,None,2024-11-28 11h35.54.875720 +0100,
,,,,,,,,,,,,,,,,,,,,,,,,,,,,,,,,,,,,,,,,,,,,,,,,,,,,,,,,,,,,,,123.61467387501034,123.62859625002602,123.62859625002602,137.44859729200834,space,13.810705707990564,None,,,,,,,,,,,,,,,,,,,,,,,,,,,,,,,,,,,,,,,,,,,,,,,,,,220243,001,2024-11-28_11h35.47.946,Test,2024.2.4,None,2024-11-28 11h35.54.875720 +0100,
8,150,30,66,None,0,0,0,False,right,1.4906829999818,None,,,,,,,,0,0,0,0,,,,,,,,,137.47870300000068,,,,,,,,,,,,,,,,,,,,,,,,,,,,,,,,,,,,,,137.46987704202184,137.47870300000068,138.46855708301882,139.44667462501093,139.44667462501093,139.44667462501093,140.93973762501264,right,1.4906829999818,None,,,,,,,,,,,,,,,,,,,,,,,,,,,,,,,,,,,,,,,,220243,001,2024-11-28_11h35.47.946,Test,2024.2.4,None,2024-11-28 11h35.54.875720 +0100,
68,150,180,64,None,1,1,0,True,left,1.0808273339935113,None,,,,,,,,0,1,1,1,,,,,,,,,140.97178312501637,,,,,,,,,,,,,,,,,,,,,,,,,,,,,,,,,,,,,,140.94865975002176,140.97178312501637,141.96857958301553,142.93722204200458,142.93722204200458,142.93722204200458,144.02176937501645,left,1.0808273339935113,None,,,,,,,,,,,,,,,,,,,,,,,,,,,,,,,,,,,,,,,,220243,001,2024-11-28_11h35.47.946,Test,2024.2.4,None,2024-11-28 11h35.54.875720 +0100,
34,150,180,11,None,2,2,0,False,right,1.2922920409764629,None,,,,,,,,0,2,2,2,,,,,,,,,144.03642287501134,,,,,,,,,,,,,,,,,,,,,,,,,,,,,,,,,,,,,,144.03020225002547,144.03642287501134,145.0300695830083,146.02149850002024,146.02149850002024,146.02149850002024,147.31675250001717,right,1.2922920409764629,None,,,,,,,,,,,,,,,,,,,,,,,,,,,,,,,,,,,,,,,,220243,001,2024-11-28_11h35.47.946,Test,2024.2.4,None,2024-11-28 11h35.54.875720 +0100,
43,150,30,54,None,3,3,0,True,right,1.0503193339973222,None,,,,,,,,0,3,3,3,,,,,,,,,147.33231816702755,,,,,,,,,,,,,,,,,,,,,,,,,,,,,,,,,,,,,,147.32535487500718,147.33231816702755,148.32991333300015,149.31347862500115,149.31347862500115,149.31347862500115,150.36646029201802,right,1.0503193339973222,None,,,,,,,,,,,,,,,,,,,,,,,,,,,,,,,,,,,,,,,,220243,001,2024-11-28_11h35.47.946,Test,2024.2.4,None,2024-11-28 11h35.54.875720 +0100,
64,150,150,22,None,4,4,0,True,right,1.3581355000205804,None,,,,,,,,0,4,4,4,,,,,,,,,150.3814008750196,,,,,,,,,,,,,,,,,,,,,,,,,,,,,,,,,,,,,,150.37511720802286,150.3814008750196,151.37999520800076,152.3634014170093,152.3634014170093,152.3634014170093,153.7320724580204,right,1.3581355000205804,None,,,,,,,,,,,,,,,,,,,,,,,,,,,,,,,,,,,,,,,,220243,001,2024-11-28_11h35.47.946,Test,2024.2.4,None,2024-11-28 11h35.54.875720 +0100,
3,150,0,59,None,5,5,0,False,right,1.1669999579899013,None,,,,,,,,0,5,5,5,,,,,,,,,153.747355917003,,,,,,,,,,,,,,,,,,,,,,,,,,,,,,,,,,,,,,153.74082554201595,153.747355917003,154.73429629200837,155.73008120802115,155.73008120802115,155.73008120802115,156.9000827500131,right,1.1669999579899013,None,,,,,,,,,,,,,,,,,,,,,,,,,,,,,,,,,,,,,,,,220243,001,2024-11-28_11h35.47.946,Test,2024.2.4,None,2024-11-28 11h35.54.875720 +0100,
52,150,90,5,None,6,6,0,True,left,0.9007347080041654,None,,,,,,,,0,6,6,6,,,,,,,,,156.915146208019,,,,,,,,,,,,,,,,,,,,,,,,,,,,,,,,,,,,,,156.90875145801692,156.915146208019,157.91338095802348,158.89677054202184,158.89677054202184,158.89677054202184,159.80783666702337,left,0.9007347080041654,None,,,,,,,,,,,,,,,,,,,,,,,,,,,,,,,,,,,,,,,,220243,001,2024-11-28_11h35.47.946,Test,2024.2.4,None,2024-11-28 11h35.54.875720 +0100,
50,150,60,35,None,7,7,0,True,left,1.0461682919994928,None,,,,,,,,0,7,7,7,,,,,,,,,159.82032054199954,,,,,,,,,,,,,,,,,,,,,,,,,,,,,,,,,,,,,,159.81563104200177,159.82032054199954,160.81826033300604,161.8038662080071,161.8038662080071,161.8038662080071,162.85591529202065,left,1.0461682919994928,None,,,,,,,,,,,,,,,,,,,,,,,,,,,,,,,,,,,,,,,,220243,001,2024-11-28_11h35.47.946,Test,2024.2.4,None,2024-11-28 11h35.54.875720 +0100,
55,150,90,48,None,8,8,0,True,left,1.031381250009872,None,,,,,,,,0,8,8,8,,,,,,,,,162.86981141701108,,,,,,,,,,,,,,,,,,,,,,,,,,,,,,,,,,,,,,162.86356508301105,162.86981141701108,163.86854695802322,164.8535480000137,164.8535480000137,164.8535480000137,165.8883937500068,left,1.031381250009872,None,,,,,,,,,,,,,,,,,,,,,,,,,,,,,,,,,,,,,,,,220243,001,2024-11-28_11h35.47.946,Test,2024.2.4,None,2024-11-28 11h35.54.875720 +0100,
31,150,180,21,None,9,9,0,False,right,1.1392932499875315,None,,,,,,,,0,9,9,9,,,,,,,,,165.90333704202203,,,,,,,,,,,,,,,,,,,,,,,,,,,,,,,,,,,,,,165.89655479200883,165.90333704202203,166.89659908300382,167.88661729200976,167.88661729200976,167.88661729200976,169.03161533302045,right,1.1392932499875315,None,,,,,,,,,,,,,,,,,,,,,,,,,,,,,,,,,,,,,,,,220243,001,2024-11-28_11h35.47.946,Test,2024.2.4,None,2024-11-28 11h35.54.875720 +0100,
28,150,150,60,None,10,10,0,False,left,1.2274518329941202,None,,,,,,,,0,10,10,10,,,,,,,,,169.04618866700912,,,,,,,,,,,,,,,,,,,,,,,,,,,,,,,,,,,,,,169.03998275002232,169.04618866700912,170.03551879202132,171.03027595800813,171.03027595800813,171.03027595800813,172.26545608302695,left,1.2274518329941202,None,,,,,,,,,,,,,,,,,,,,,,,,,,,,,,,,,,,,,,,,220243,001,2024-11-28_11h35.47.946,Test,2024.2.4,None,2024-11-28 11h35.54.875720 +0100,
58,150,120,2,None,11,11,0,True,left,1.2394927499990445,None,,,,,,,,0,11,11,11,,,,,,,,,172.2808652500098,,,,,,,,,,,,,,,,,,,,,,,,,,,,,,,,,,,,,,172.27432737502386,172.2808652500098,173.26866741702543,174.2635170830181,174.2635170830181,174.2635170830181,175.50540962500963,left,1.2394927499990445,None,,,,,,,,,,,,,,,,,,,,,,,,,,,,,,,,,,,,,,,,220243,001,2024-11-28_11h35.47.946,Test,2024.2.4,None,2024-11-28 11h35.54.875720 +0100,
62,150,150,33,None,12,12,0,True,right,1.9431742499873508,None,,,,,,,,0,12,12,12,,,,,,,,,175.52099141702638,,,,,,,,,,,,,,,,,,,,,,,,,,,,,,,,,,,,,,175.51456712500658,175.52099141702638,176.51860266702715,177.5043665000121,177.5043665000121,177.5043665000121,179.45836570800748,right,1.9431742499873508,None,,,,,,,,,,,,,,,,,,,,,,,,,,,,,,,,,,,,,,,,220243,001,2024-11-28_11h35.47.946,Test,2024.2.4,None,2024-11-28 11h35.54.875720 +0100,
22,150,120,58,None,13,13,0,False,left,2.1664306669845246,None,,,,,,,,0,13,13,13,,,,,,,,,179.47070929201436,,,,,,,,,,,,,,,,,,,,,,,,,,,,,,,,,,,,,,179.46598941701814,179.47070929201436,180.46881229200517,181.45398687501438,181.45398687501438,181.45398687501438,183.63099754200084,left,2.1664306669845246,None,,,,,,,,,,,,,,,,,,,,,,,,,,,,,,,,,,,,,,,,220243,001,2024-11-28_11h35.47.946,Test,2024.2.4,None,2024-11-28 11h35.54.875720 +0100,
69,150,180,6,None,14,14,0,True,left,2.7661747919919435,None,,,,,,,,0,14,14,14,,,,,,,,,183.64285079200636,,,,,,,,,,,,,,,,,,,,,,,,,,,,,,,,,,,,,,183.6382781249995,183.64285079200636,184.6349417080055,185.62096333299996,185.62096333299996,185.62096333299996,188.3988842079998,left,2.7661747919919435,None,,,,,,,,,,,,,,,,,,,,,,,,,,,,,,,,,,,,,,,,220243,001,2024-11-28_11h35.47.946,Test,2024.2.4,None,2024-11-28 11h35.54.875720 +0100,
32,150,180,50,None,15,15,0,False,right,1.1241308340104297,None,,,,,,,,0,15,15,15,,,,,,,,,188.41455429201596,,,,,,,,,,,,,,,,,,,,,,,,,,,,,,,,,,,,,,188.40769750002073,188.41455429201596,189.4132404170232,190.39682258301764,190.39682258301764,190.39682258301764,191.53225404201658,right,1.1241308340104297,None,,,,,,,,,,,,,,,,,,,,,,,,,,,,,,,,,,,,,,,,220243,001,2024-11-28_11h35.47.946,Test,2024.2.4,None,2024-11-28 11h35.54.875720 +0100,
14,150,60,18,None,16,16,0,False,right,1.0013042079808656,None,,,,,,,,0,16,16,16,,,,,,,,,191.5485243750154,,,,,,,,,,,,,,,,,,,,,,,,,,,,,,,,,,,,,,191.5413880830165,191.5485243750154,192.5467028330022,193.53008591700927,193.53008591700927,193.53008591700927,194.53828470801818,right,1.0013042079808656,None,,,,,,,,,,,,,,,,,,,,,,,,,,,,,,,,,,,,,,,,220243,001,2024-11-28_11h35.47.946,Test,2024.2.4,None,2024-11-28 11h35.54.875720 +0100,
56,150,120,43,None,17,17,0,True,left,1.7466135419963393,None,,,,,,,,0,17,17,17,,,,,,,,,194.55194391700206,,,,,,,,,,,,,,,,,,,,,,,,,,,,,,,,,,,,,,194.54614616700565,194.55194391700206,195.54672295800992,196.5363550830225,196.5363550830225,196.5363550830225,198.28819466702407,left,1.7466135419963393,None,,,,,,,,,,,,,,,,,,,,,,,,,,,,,,,,,,,,,,,,220243,001,2024-11-28_11h35.47.946,Test,2024.2.4,None,2024-11-28 11h35.54.875720 +0100,
6,150,30,41,None,18,18,0,False,left,2.748649042012403,None,,,,,,,,0,18,18,18,,,,,,,,,198.30230087501695,,,,,,,,,,,,,,,,,,,,,,,,,,,,,,,,,,,,,,198.2958643330203,198.30230087501695,199.29666570801055,200.28731862502173,200.28731862502173,200.28731862502173,203.0385384170222,left,2.748649042012403,None,,,,,,,,,,,,,,,,,,,,,,,,,,,,,,,,,,,,,,,,220243,001,2024-11-28_11h35.47.946,Test,2024.2.4,None,2024-11-28 11h35.54.875720 +0100,
5,150,0,63,None,19,19,0,False,right,1.2932772919884883,None,,,,,,,,0,19,19,19,,,,,,,,,203.05351358299959,,,,,,,,,,,,,,,,,,,,,,,,,,,,,,,,,,,,,,203.04721662501106,203.05351358299959,204.05142491700826,205.03735795800458,205.03735795800458,205.03735795800458,206.34092983300798,right,1.2932772919884883,None,,,,,,,,,,,,,,,,,,,,,,,,,,,,,,,,,,,,,,,,220243,001,2024-11-28_11h35.47.946,Test,2024.2.4,None,2024-11-28 11h35.54.875720 +0100,
51,150,90,29,None,20,20,0,True,right,1.1590635000029579,None,,,,,,,,0,20,20,20,,,,,,,,,206.35317454201868,,,,,,,,,,,,,,,,,,,,,,,,,,,,,,,,,,,,,,206.3483370830072,206.35317454201868,207.3466571670142,208.33800816701842,208.33800816701842,208.33800816701842,209.50008458300726,right,1.1590635000029579,None,,,,,,,,,,,,,,,,,,,,,,,,,,,,,,,,,,,,,,,,220243,001,2024-11-28_11h35.47.946,Test,2024.2.4,None,2024-11-28 11h35.54.875720 +0100,
60,150,120,51,None,21,21,0,True,left,1.6801569579984061,None,,,,,,,,0,21,21,21,,,,,,,,,209.51483504200587,,,,,,,,,,,,,,,,,,,,,,,,,,,,,,,,,,,,,,209.5082586670178,209.51483504200587,210.5134658330062,211.49683150000055,211.49683150000055,211.49683150000055,213.18243325001094,left,1.6801569579984061,None,,,,,,,,,,,,,,,,,,,,,,,,,,,,,,,,,,,,,,,,220243,001,2024-11-28_11h35.47.946,Test,2024.2.4,None,2024-11-28 11h35.54.875720 +0100,
35,150,180,17,None,22,22,0,False,left,1.6060568329994567,None,,,,,,,,0,22,22,22,,,,,,,,,213.19717433300684,,,,,,,,,,,,,,,,,,,,,,,,,,,,,,,,,,,,,,213.19097750002402,213.19717433300684,214.18517012501252,215.1801523330214,215.1801523330214,215.1801523330214,216.78863508300856,left,1.6060568329994567,None,,,,,,,,,,,,,,,,,,,,,,,,,,,,,,,,,,,,,,,,220243,001,2024-11-28_11h35.47.946,Test,2024.2.4,None,2024-11-28 11h35.54.875720 +0100,
1,150,0,67,None,23,23,0,False,right,1.3888684590056073,None,,,,,,,,0,23,23,23,,,,,,,,,216.80318787501892,,,,,,,,,,,,,,,,,,,,,,,,,,,,,,,,,,,,,,216.79729729201063,216.80318787501892,217.79664729200886,218.78807100001723,218.78807100001723,218.78807100001723,220.1822347920097,right,1.3888684590056073,None,,,,,,,,,,,,,,,,,,,,,,,,,,,,,,,,,,,,,,,,220243,001,2024-11-28_11h35.47.946,Test,2024.2.4,None,2024-11-28 11h35.54.875720 +0100,
4,150,0,8,None,24,24,0,False,left,1.490115666994825,None,,,,,,,,0,24,24,24,,,,,,,,,220.19746520800982,,,,,,,,,,,,,,,,,,,,,,,,,,,,,,,,,,,,,,220.19071075000102,220.19746520800982,221.18544970802031,222.18017395801144,222.18017395801144,222.18017395801144,223.67242583300686,left,1.490115666994825,None,,,,,,,,,,,,,,,,,,,,,,,,,,,,,,,,,,,,,,,,220243,001,2024-11-28_11h35.47.946,Test,2024.2.4,None,2024-11-28 11h35.54.875720 +0100,
15,150,60,24,None,25,25,0,False,right,1.2332121660001576,None,,,,,,,,0,25,25,25,,,,,,,,,223.68809262500145,,,,,,,,,,,,,,,,,,,,,,,,,,,,,,,,,,,,,,223.68142862501554,223.68809262500145,224.6852254580008,225.67068979202304,225.67068979202304,225.67068979202304,226.91538600000786,right,1.2332121660001576,None,,,,,,,,,,,,,,,,,,,,,,,,,,,,,,,,,,,,,,,,220243,001,2024-11-28_11h35.47.946,Test,2024.2.4,None,2024-11-28 11h35.54.875720 +0100,
54,150,90,32,None,26,26,0,True,left,1.5010805829952005,None,,,,,,,,0,26,26,26,,,,,,,,,226.9307775000052,,,,,,,,,,,,,,,,,,,,,,,,,,,,,,,,,,,,,,226.92412108302233,226.9307775000052,227.91868433300988,228.91348987500533,228.91348987500533,228.91348987500533,230.42203545800294,left,1.5010805829952005,None,,,,,,,,,,,,,,,,,,,,,,,,,,,,,,,,,,,,,,,,220243,001,2024-11-28_11h35.47.946,Test,2024.2.4,None,2024-11-28 11h35.54.875720 +0100,
12,150,60,31,None,27,27,0,False,left,1.4833164159790613,None,,,,,,,,0,27,27,27,,,,,,,,,230.4372692500183,,,,,,,,,,,,,,,,,,,,,,,,,,,,,,,,,,,,,,230.43088525001076,230.4372692500183,231.42999979201704,232.421189375018,232.421189375018,232.421189375018,233.91552450001473,left,1.4833164159790613,None,,,,,,,,,,,,,,,,,,,,,,,,,,,,,,,,,,,,,,,,220243,001,2024-11-28_11h35.47.946,Test,2024.2.4,None,2024-11-28 11h35.54.875720 +0100,
37,150,0,14,None,28,28,0,True,left,1.2704006249841768,None,,,,,,,,0,28,28,28,,,,,,,,,233.93024291700567,,,,,,,,,,,,,,,,,,,,,,,,,,,,,,,,,,,,,,233.92387854200206,233.93024291700567,234.91863104200456,235.91342337502283,235.91342337502283,235.91342337502283,237.1884032500093,left,1.2704006249841768,None,,,,,,,,,,,,,,,,,,,,,,,,,,,,,,,,,,,,,,,,220243,001,2024-11-28_11h35.47.946,Test,2024.2.4,None,2024-11-28 11h35.54.875720 +0100,
61,150,150,20,None,29,29,0,True,right,1.0532339590135962,None,,,,,,,,0,29,29,29,,,,,,,,,237.2013305000146,,,,,,,,,,,,,,,,,,,,,,,,,,,,,,,,,,,,,,237.19572491702274,237.2013305000146,238.1968662920117,239.187284500018,239.187284500018,239.187284500018,240.2494362500147,right,1.0532339590135962,None,,,,,,,,,,,,,,,,,,,,,,,,,,,,,,,,,,,,,,,,220243,001,2024-11-28_11h35.47.946,Test,2024.2.4,None,2024-11-28 11h35.54.875720 +0100,
49,150,60,46,None,30,30,0,True,left,1.5549173750041518,None,,,,,,,,0,30,30,30,,,,,,,,,240.26455204200465,,,,,,,,,,,,,,,,,,,,,,,,,,,,,,,,,,,,,,240.2584435000026,240.26455204200465,241.26334937501815,242.24693687501713,242.24693687501713,242.24693687501713,243.8054964580224,left,1.5549173750041518,None,,,,,,,,,,,,,,,,,,,,,,,,,,,,,,,,,,,,,,,,220243,001,2024-11-28_11h35.47.946,Test,2024.2.4,None,2024-11-28 11h35.54.875720 +0100,
67,150,180,55,None,31,31,0,True,left,2.9268805000174325,None,,,,,,,,0,31,31,31,,,,,,,,,243.82068429200444,,,,,,,,,,,,,,,,,,,,,,,,,,,,,,,,,,,,,,243.81447741700686,243.82068429200444,244.81866595800966,245.80363029200817,245.80363029200817,245.80363029200817,248.73290070801158,left,2.9268805000174325,None,,,,,,,,,,,,,,,,,,,,,,,,,,,,,,,,,,,,,,,,220243,001,2024-11-28_11h35.47.946,Test,2024.2.4,None,2024-11-28 11h35.54.875720 +0100,
45,150,30,10,None,32,32,0,True,left,1.7674792080069892,None,,,,,,,,0,32,32,32,,,,,,,,,248.7478681250068,,,,,,,,,,,,,,,,,,,,,,,,,,,,,,,,,,,,,,248.7410329580016,248.7478681250068,249.7466107920045,250.73022833300638,250.73022833300638,250.73022833300638,252.50513883301755,left,1.7674792080069892,None,,,,,,,,,,,,,,,,,,,,,,,,,,,,,,,,,,,,,,,,220243,001,2024-11-28_11h35.47.946,Test,2024.2.4,None,2024-11-28 11h35.54.875720 +0100,
20,150,90,7,None,33,33,0,False,right,1.0023413749877363,None,,,,,,,,0,33,33,33,,,,,,,,,252.51917633300764,,,,,,,,,,,,,,,,,,,,,,,,,,,,,,,,,,,,,,252.51351070799865,252.51917633300764,253.51335266701062,254.5040939169994,254.5040939169994,254.5040939169994,255.5155299580074,right,1.0023413749877363,None,,,,,,,,,,,,,,,,,,,,,,,,,,,,,,,,,,,,,,,,220243,001,2024-11-28_11h35.47.946,Test,2024.2.4,None,2024-11-28 11h35.54.875720 +0100,
18,150,90,19,None,34,34,0,False,right,1.2503670830046758,None,,,,,,,,0,34,34,34,,,,,,,,,255.53067720800755,,,,,,,,,,,,,,,,,,,,,,,,,,,,,,,,,,,,,,255.52364183301688,255.53067720800755,256.5182482920063,257.51367345801555,257.51367345801555,257.51367345801555,258.766870750027,right,1.2503670830046758,None,,,,,,,,,,,,,,,,,,,,,,,,,,,,,,,,,,,,,,,,220243,001,2024-11-28_11h35.47.946,Test,2024.2.4,None,2024-11-28 11h35.54.875720 +0100,
13,150,60,37,None,35,35,0,False,left,1.4555421249824576,None,,,,,,,,0,35,35,35,,,,,,,,,258.781162750005,,,,,,,,,,,,,,,,,,,,,,,,,,,,,,,,,,,,,,258.77542775002075,258.781162750005,259.7799773750012,260.76341437501833,260.76341437501833,260.76341437501833,262.22130425000796,left,1.4555421249824576,None,,,,,,,,,,,,,,,,,,,,,,,,,,,,,,,,,,,,,,,,220243,001,2024-11-28_11h35.47.946,Test,2024.2.4,None,2024-11-28 11h35.54.875720 +0100,
57,150,120,52,None,36,36,0,True,left,1.6283065839961637,None,,,,,,,,0,36,36,36,,,,,,,,,262.2360596250219,,,,,,,,,,,,,,,,,,,,,,,,,,,,,,,,,,,,,,262.22999920800794,262.2360596250219,263.2299388750107,264.2215725000133,264.2215725000133,264.2215725000133,265.8546160420228,left,1.6283065839961637,None,,,,,,,,,,,,,,,,,,,,,,,,,,,,,,,,,,,,,,,,220243,001,2024-11-28_11h35.47.946,Test,2024.2.4,None,2024-11-28 11h35.54.875720 +0100,
70,150,180,68,None,37,37,0,True,right,0.8285158749786206,None,,,,,,,,0,37,37,37,,,,,,,,,265.8685917080147,,,,,,,,,,,,,,,,,,,,,,,,,,,,,,,,,,,,,,265.86259533301927,265.8685917080147,266.86331204202725,267.8544952920056,267.8544952920056,267.8544952920056,268.6888081250072,right,0.8285158749786206,None,,,,,,,,,,,,,,,,,,,,,,,,,,,,,,,,,,,,,,,,220243,001,2024-11-28_11h35.47.946,Test,2024.2.4,None,2024-11-28 11h35.54.875720 +0100,
66,150,180,13,None,38,38,0,True,left,1.177118583000265,None,,,,,,,,0,38,38,38,,,,,,,,,268.7034108330263,,,,,,,,,,,,,,,,,,,,,,,,,,,,,,,,,,,,,,268.6971255420067,268.7034108330263,269.6966225420183,270.6871285000234,270.6871285000234,270.6871285000234,271.8753659580252,left,1.177118583000265,None,,,,,,,,,,,,,,,,,,,,,,,,,,,,,,,,,,,,,,,,220243,001,2024-11-28_11h35.47.946,Test,2024.2.4,None,2024-11-28 11h35.54.875720 +0100,
25,150,120,65,None,39,39,0,False,right,0.9596259590180125,None,,,,,,,,0,39,39,39,,,,,,,,,271.88781520799967,,,,,,,,,,,,,,,,,,,,,,,,,,,,,,,,,,,,,,271.883137042023,271.88781520799967,272.88539550002315,273.87080925001646,273.87080925001646,273.87080925001646,274.83341616700636,right,0.9596259590180125,None,,,,,,,,,,,,,,,,,,,,,,,,,,,,,,,,,,,,,,,,220243,001,2024-11-28_11h35.47.946,Test,2024.2.4,None,2024-11-28 11h35.54.875720 +0100,
21,150,120,3,None,40,40,0,False,left,1.527912000019569,None,,,,,,,,0,40,40,40,,,,,,,,,274.8485120420228,,,,,,,,,,,,,,,,,,,,,,,,,,,,,,,,,,,,,,274.8422999170143,274.8485120420228,275.84675508301007,276.83021804201417,276.83021804201417,276.83021804201417,278.3656205420266,left,1.527912000019569,None,,,,,,,,,,,,,,,,,,,,,,,,,,,,,,,,,,,,,,,,220243,001,2024-11-28_11h35.47.946,Test,2024.2.4,None,2024-11-28 11h35.54.875720 +0100,
47,150,60,44,None,41,41,0,True,right,0.8218901670188643,None,,,,,,,,0,41,41,41,,,,,,,,,278.38068562501576,,,,,,,,,,,,,,,,,,,,,,,,,,,,,,,,,,,,,,278.3739967920119,278.38068562501576,279.3683490830008,280.36342379200505,280.36342379200505,280.36342379200505,281.18870408300427,right,0.8218901670188643,None,,,,,,,,,,,,,,,,,,,,,,,,,,,,,,,,,,,,,,,,220243,001,2024-11-28_11h35.47.946,Test,2024.2.4,None,2024-11-28 11h35.54.875720 +0100,
26,150,150,42,None,42,42,0,False,right,1.0718303749745246,None,,,,,,,,0,42,42,42,,,,,,,,,281.2039607500192,,,,,,,,,,,,,,,,,,,,,,,,,,,,,,,,,,,,,,281.19735570802004,281.2039607500192,282.2019665000262,283.1868176670105,283.1868176670105,283.1868176670105,284.2654567080026,right,1.0718303749745246,None,,,,,,,,,,,,,,,,,,,,,,,,,,,,,,,,,,,,,,,,220243,001,2024-11-28_11h35.47.946,Test,2024.2.4,None,2024-11-28 11h35.54.875720 +0100,
17,150,90,62,None,43,43,0,False,left,1.2018639169982634,None,,,,,,,,0,43,43,43,,,,,,,,,284.28103970800294,,,,,,,,,,,,,,,,,,,,,,,,,,,,,,,,,,,,,,284.27419262501644,284.28103970800294,285.2800618750043,286.26348891700036,286.26348891700036,286.26348891700036,287.47222320802393,left,1.2018639169982634,None,,,,,,,,,,,,,,,,,,,,,,,,,,,,,,,,,,,,,,,,220243,001,2024-11-28_11h35.47.946,Test,2024.2.4,None,2024-11-28 11h35.54.875720 +0100,
48,150,60,28,None,44,44,0,True,left,1.5314765840012114,None,,,,,,,,0,44,44,44,,,,,,,,,287.4858801670198,,,,,,,,,,,,,,,,,,,,,,,,,,,,,,,,,,,,,,287.4800312080188,287.4858801670198,288.4859432920057,289.47050491700065,289.47050491700065,289.47050491700065,291.00531462501385,left,1.5314765840012114,None,,,,,,,,,,,,,,,,,,,,,,,,,,,,,,,,,,,,,,,,220243,001,2024-11-28_11h35.47.946,Test,2024.2.4,None,2024-11-28 11h35.54.875720 +0100,
27,150,150,40,None,45,45,0,False,right,0.9613487090100534,None,,,,,,,,0,45,45,45,,,,,,,,,291.0200368750084,,,,,,,,,,,,,,,,,,,,,,,,,,,,,,,,,,,,,,291.0142047080153,291.0200368750084,292.013455917011,293.00472954200814,293.00472954200814,293.00472954200814,293.9718513750122,right,0.9613487090100534,None,,,,,,,,,,,,,,,,,,,,,,,,,,,,,,,,,,,,,,,,220243,001,2024-11-28_11h35.47.946,Test,2024.2.4,None,2024-11-28 11h35.54.875720 +0100,
38,150,0,23,None,46,46,0,True,right,1.7983041670231614,None,,,,,,,,0,46,46,46,,,,,,,,,293.9854993330082,,,,,,,,,,,,,,,,,,,,,,,,,,,,,,,,,,,,,,293.9794464170118,293.9854993330082,294.9800795830088,295.9705772919988,295.9705772919988,295.9705772919988,297.7713412500161,right,1.7983041670231614,None,,,,,,,,,,,,,,,,,,,,,,,,,,,,,,,,,,,,,,,,220243,001,2024-11-28_11h35.47.946,Test,2024.2.4,None,2024-11-28 11h35.54.875720 +0100,
40,150,0,39,None,47,47,0,True,left,0.963211082998896,None,,,,,,,,0,47,47,47,,,,,,,,,297.7870330000005,,,,,,,,,,,,,,,,,,,,,,,,,,,,,,,,,,,,,,297.7809665829991,297.7870330000005,298.78532087500207,299.7705329580058,299.7705329580058,299.7705329580058,300.73856020800304,left,0.963211082998896,None,,,,,,,,,,,,,,,,,,,,,,,,,,,,,,,,,,,,,,,,220243,001,2024-11-28_11h35.47.946,Test,2024.2.4,None,2024-11-28 11h35.54.875720 +0100,
59,150,120,30,None,48,48,0,True,left,2.816817250015447,None,,,,,,,,0,48,48,48,,,,,,,,,300.7542002920236,,,,,,,,,,,,,,,,,,,,,,,,,,,,,,,,,,,,,,300.7478094170219,300.7542002920236,301.7514171250223,302.7365458330023,302.7365458330023,302.7365458330023,305.56379787501646,left,2.816817250015447,None,,,,,,,,,,,,,,,,,,,,,,,,,,,,,,,,,,,,,,,,220243,001,2024-11-28_11h35.47.946,Test,2024.2.4,None,2024-11-28 11h35.54.875720 +0100,
24,150,120,45,None,49,49,0,False,right,1.8116763750149403,None,,,,,,,,0,49,49,49,,,,,,,,,305.57675379200373,,,,,,,,,,,,,,,,,,,,,,,,,,,,,,,,,,,,,,305.5715570830216,305.57675379200373,306.5687770420045,307.5542666670226,307.5542666670226,307.5542666670226,309.37157412501983,right,1.8116763750149403,None,,,,,,,,,,,,,,,,,,,,,,,,,,,,,,,,,,,,,,,,220243,001,2024-11-28_11h35.47.946,Test,2024.2.4,None,2024-11-28 11h35.54.875720 +0100,
23,150,120,69,None,50,50,0,False,right,1.0295069999992847,None,,,,,,,,0,50,50,50,,,,,,,,,309.38714020801126,,,,,,,,,,,,,,,,,,,,,,,,,,,,,,,,,,,,,,309.3806881250057,309.38714020801126,310.3852599170059,311.37132962502073,311.37132962502073,311.37132962502073,312.4057957500045,right,1.0295069999992847,None,,,,,,,,,,,,,,,,,,,,,,,,,,,,,,,,,,,,,,,,220243,001,2024-11-28_11h35.47.946,Test,2024.2.4,None,2024-11-28 11h35.54.875720 +0100,
65,150,150,57,None,51,51,0,True,left,1.7059625829861034,None,,,,,,,,0,51,51,51,,,,,,,,,312.42066375000286,,,,,,,,,,,,,,,,,,,,,,,,,,,,,,,,,,,,,,312.41446820800775,312.42066375000286,313.4190195420233,314.40379375001066,314.40379375001066,314.40379375001066,316.1160790420254,left,1.7059625829861034,None,,,,,,,,,,,,,,,,,,,,,,,,,,,,,,,,,,,,,,,,220243,001,2024-11-28_11h35.47.946,Test,2024.2.4,None,2024-11-28 11h35.54.875720 +0100,
36,150,0,16,None,52,52,0,True,left,2.3058842909813393,None,,,,,,,,0,52,52,52,,,,,,,,,316.1314265830151,,,,,,,,,,,,,,,,,,,,,,,,,,,,,,,,,,,,,,316.1246219169989,316.1314265830151,317.1299149170227,318.11353329202393,318.11353329202393,318.11353329202393,320.4218385000131,left,2.3058842909813393,None,,,,,,,,,,,,,,,,,,,,,,,,,,,,,,,,,,,,,,,,220243,001,2024-11-28_11h35.47.946,Test,2024.2.4,None,2024-11-28 11h35.54.875720 +0100,
63,150,150,25,None,53,53,0,True,left,1.2427695409860462,None,,,,,,,,0,53,53,53,,,,,,,,,320.4359287500265,,,,,,,,,,,,,,,,,,,,,,,,,,,,,,,,,,,,,,320.43023250001715,320.4359287500265,321.43001487501897,322.4209903330193,322.4209903330193,322.4209903330193,323.6665172080102,left,1.2427695409860462,None,,,,,,,,,,,,,,,,,,,,,,,,,,,,,,,,,,,,,,,,220243,001,2024-11-28_11h35.47.946,Test,2024.2.4,None,2024-11-28 11h35.54.875720 +0100,
19,150,90,26,None,54,54,0,False,right,1.5717798749974463,None,,,,,,,,0,54,54,54,,,,,,,,,323.6806557920063,,,,,,,,,,,,,,,,,,,,,,,,,,,,,,,,,,,,,,323.67460212501464,323.6806557920063,324.66803629201604,325.6635909170145,325.6635909170145,325.6635909170145,327.23838366701966,right,1.5717798749974463,None,,,,,,,,,,,,,,,,,,,,,,,,,,,,,,,,,,,,,,,,220243,001,2024-11-28_11h35.47.946,Test,2024.2.4,None,2024-11-28 11h35.54.875720 +0100,
41,150,30,34,None,55,55,0,True,left,2.693584832974011,None,,,,,,,,0,55,55,55,,,,,,,,,327.25864745801664,,,,,,,,,,,,,,,,,,,,,,,,,,,,,,,,,,,,,,327.2528687500162,327.25864745801664,328.2520920000097,329.2412973330065,329.2412973330065,329.2412973330065,331.9387007500045,left,2.693584832974011,None,,,,,,,,,,,,,,,,,,,,,,,,,,,,,,,,,,,,,,,,220243,001,2024-11-28_11h35.47.946,Test,2024.2.4,None,2024-11-28 11h35.54.875720 +0100,
39,150,0,56,None,56,56,0,True,right,1.994923457998084,None,,,,,,,,0,56,56,56,,,,,,,,,331.95380520800245,,,,,,,,,,,,,,,,,,,,,,,,,,,,,,,,,,,,,,331.9479110829998,331.95380520800245,332.9519423750171,333.93689841701416,333.93689841701416,333.93689841701416,335.93842954200227,right,1.994923457998084,None,,,,,,,,,,,,,,,,,,,,,,,,,,,,,,,,,,,,,,,,220243,001,2024-11-28_11h35.47.946,Test,2024.2.4,None,2024-11-28 11h35.54.875720 +0100,
16,150,90,49,None,57,57,0,False,right,2.4220044999965467,None,,,,,,,,0,57,57,57,,,,,,,,,335.95242520800093,,,,,,,,,,,,,,,,,,,,,,,,,,,,,,,,,,,,,,335.946555750008,335.95242520800093,336.94682000001194,337.9373749580118,337.9373749580118,337.9373749580118,340.3658542080084,right,2.4220044999965467,None,,,,,,,,,,,,,,,,,,,,,,,,,,,,,,,,,,,,,,,,220243,001,2024-11-28_11h35.47.946,Test,2024.2.4,None,2024-11-28 11h35.54.875720 +0100,
44,150,30,53,None,58,58,0,True,left,1.2346927500038873,None,,,,,,,,0,58,58,58,,,,,,,,,340.3816961250268,,,,,,,,,,,,,,,,,,,,,,,,,,,,,,,,,,,,,,340.37455750000663,340.3816961250268,341.3800673750229,342.3636291670264,342.3636291670264,342.3636291670264,343.60574245802127,left,1.2346927500038873,None,,,,,,,,,,,,,,,,,,,,,,,,,,,,,,,,,,,,,,,,220243,001,2024-11-28_11h35.47.946,Test,2024.2.4,None,2024-11-28 11h35.54.875720 +0100,
46,150,60,4,None,59,59,0,True,left,2.0516714999976102,None,,,,,,,,0,59,59,59,,,,,,,,,343.6215189580107,,,,,,,,,,,,,,,,,,,,,,,,,,,,,,,,,,,,,,343.61496579201776,343.6215189580107,344.617819667008,345.6048008330108,345.6048008330108,345.6048008330108,347.66636712499894,left,2.0516714999976102,None,,,,,,,,,,,,,,,,,,,,,,,,,,,,,,,,,,,,,,,,220243,001,2024-11-28_11h35.47.946,Test,2024.2.4,None,2024-11-28 11h35.54.875720 +0100,
53,150,90,27,None,60,60,0,True,left,2.9672396669921,None,,,,,,,,0,60,60,60,,,,,,,,,347.68197595802485,,,,,,,,,,,,,,,,,,,,,,,,,,,,,,,,,,,,,,347.67554966700845,347.68197595802485,348.68000679201214,349.6633875830157,349.6633875830157,349.6633875830157,352.6335292500153,left,2.9672396669921,None,,,,,,,,,,,,,,,,,,,,,,,,,,,,,,,,,,,,,,,,220243,001,2024-11-28_11h35.47.946,Test,2024.2.4,None,2024-11-28 11h35.54.875720 +0100,
9,150,30,9,None,61,61,0,False,left,1.1691762499976903,None,,,,,,,,0,61,61,61,,,,,,,,,352.6486305000144,,,,,,,,,,,,,,,,,,,,,,,,,,,,,,,,,,,,,,352.6426799580222,352.6486305000144,353.64665762500954,354.63025529202423,354.63025529202423,354.63025529202423,355.80487166700186,left,1.1691762499976903,None,,,,,,,,,,,,,,,,,,,,,,,,,,,,,,,,,,,,,,,,220243,001,2024-11-28_11h35.47.946,Test,2024.2.4,None,2024-11-28 11h35.54.875720 +0100,
30,150,150,61,None,62,62,0,False,left,1.3433339170005638,None,,,,,,,,0,62,62,62,,,,,,,,,355.8197970420006,,,,,,,,,,,,,,,,,,,,,,,,,,,,,,,,,,,,,,355.8137148329988,355.8197970420006,356.8133616250125,357.80387820801116,357.80387820801116,357.80387820801116,359.1503598749987,left,1.3433339170005638,None,,,,,,,,,,,,,,,,,,,,,,,,,,,,,,,,,,,,,,,,220243,001,2024-11-28_11h35.47.946,Test,2024.2.4,None,2024-11-28 11h35.54.875720 +0100,
29,150,150,36,None,63,63,0,False,right,1.121034875017358,None,,,,,,,,0,63,63,63,,,,,,,,,359.1662955000065,,,,,,,,,,,,,,,,,,,,,,,,,,,,,,,,,,,,,,359.15949083300075,359.1662955000065,360.163415625022,361.146860000008,361.146860000008,361.146860000008,362.2716167080216,right,1.121034875017358,None,,,,,,,,,,,,,,,,,,,,,,,,,,,,,,,,,,,,,,,,220243,001,2024-11-28_11h35.47.946,Test,2024.2.4,None,2024-11-28 11h35.54.875720 +0100,
33,150,180,70,None,64,64,0,False,left,1.5684509160055313,None,,,,,,,,0,64,64,64,,,,,,,,,362.28742700000294,,,,,,,,,,,,,,,,,,,,,,,,,,,,,,,,,,,,,,362.2806335420173,362.28742700000294,363.28484395801206,364.27053787501063,364.27053787501063,364.27053787501063,365.8488730000099,left,1.5684509160055313,None,,,,,,,,,,,,,,,,,,,,,,,,,,,,,,,,,,,,,,,,220243,001,2024-11-28_11h35.47.946,Test,2024.2.4,None,2024-11-28 11h35.54.875720 +0100,
11,150,60,1,None,65,65,0,False,right,1.2539569580112584,None,,,,,,,,0,65,65,65,,,,,,,,,365.86378291700385,,,,,,,,,,,,,,,,,,,,,,,,,,,,,,,,,,,,,,365.85745241702534,365.86378291700385,366.8521624170244,367.8472332920064,367.8472332920064,367.8472332920064,369.104982208024,right,1.2539569580112584,None,,,,,,,,,,,,,,,,,,,,,,,,,,,,,,,,,,,,,,,,220243,001,2024-11-28_11h35.47.946,Test,2024.2.4,None,2024-11-28 11h35.54.875720 +0100,
10,150,30,12,None,66,66,0,False,right,1.9835764169984031,None,,,,,,,,0,66,66,66,,,,,,,,,369.12001737501123,,,,,,,,,,,,,,,,,,,,,,,,,,,,,,,,,,,,,,369.1134010000096,369.12001737501123,370.11345954201533,371.104010458017,371.104010458017,371.104010458017,373.09874075002153,right,1.9835764169984031,None,,,,,,,,,,,,,,,,,,,,,,,,,,,,,,,,,,,,,,,,220243,001,2024-11-28_11h35.47.946,Test,2024.2.4,None,2024-11-28 11h35.54.875720 +0100,
7,150,30,38,None,67,67,0,False,left,1.4014725419983733,None,,,,,,,,0,67,67,67,,,,,,,,,373.1148192920082,,,,,,,,,,,,,,,,,,,,,,,,,,,,,,,,,,,,,,373.106595292018,373.1148192920082,374.1134244580171,375.0967914580251,375.0967914580251,375.0967914580251,376.5052627500263,left,1.4014725419983733,None,,,,,,,,,,,,,,,,,,,,,,,,,,,,,,,,,,,,,,,,220243,001,2024-11-28_11h35.47.946,Test,2024.2.4,None,2024-11-28 11h35.54.875720 +0100,
2,150,0,47,None,68,68,0,False,right,2.3159394999966025,None,,,,,,,,0,68,68,68,,,,,,,,,376.52111495801364,,,,,,,,,,,,,,,,,,,,,,,,,,,,,,,,,,,,,,376.5144907500071,376.52111495801364,377.5183590420056,378.5038818330213,378.5038818330213,378.5038818330213,380.8221914580208,right,2.3159394999966025,None,,,,,,,,,,,,,,,,,,,,,,,,,,,,,,,,,,,,,,,,220243,001,2024-11-28_11h35.47.946,Test,2024.2.4,None,2024-11-28 11h35.54.875720 +0100,
42,150,30,15,None,69,69,0,True,left,2.4313906249881256,None,,,,,,,,0,69,69,69,,,,,,,,,380.838261375,,,,,,,,,,,,,,,,,,,,,,,,,,,,,,,,,,,,,,380.8313765420171,380.838261375,381.83536783300224,382.82042287502554,382.82042287502554,382.82042287502554,385.25544908302254,left,2.4313906249881256,None,,,,,,,,,,,,,,,,,,,,,,,,,,,,,,,,,,,,,,,,220243,001,2024-11-28_11h35.47.946,Test,2024.2.4,None,2024-11-28 11h35.54.875720 +0100,
,,,,,,,,,,,,,,,,,,,,,,,,,,,,,,,,,,,,,,,,,,,,,,,,,,,,,,,,,,,,,,,,,,,,,,,,,,,,,,,385.25574091702583,385.26616391702555,385.26616391702555,390.80121762500494,space,5.521258166991174,None,,,,,,,,,,,,,,,,,,,,,,,,,,,,,,,,,220243,001,2024-11-28_11h35.47.946,Test,2024.2.4,None,2024-11-28 11h35.54.875720 +0100,
33,150,180,70,None,0,0,0,,,,,,,,,,,,,,,,0,0,0,32,,,,,390.82112720800797,,,,,,,,,,,,,,,,,,,,,,,,,,,,,,,,,,,,,,,,,,,,,,,,,,,,,,,390.8160850420245,390.82112720800797,390.9955727500201,390.9955727500201,391.01885345802293,392.6946310000203,392.6946310000203,392.6809007920092,,,,,,,,,,,,,,,,,,,,,,,,,220243,001,2024-11-28_11h35.47.946,Test,2024.2.4,None,2024-11-28 11h35.54.875720 +0100,
27,150,150,40,None,1,1,0,,,,,,,,,,,,,,,,0,1,1,26,,,,,392.6946310000203,,,,,,,,,,,,,,,,,,,,,,,,,,,,,,,,,,,,,,,,,,,,,,,,,,,,,,,392.68971208302537,392.69963504202315,392.8967416670057,392.8967416670057,392.8967416670057,394.59479950001696,394.59479950001696,394.58103500001016,,,,,,,,,,,,,,,,,,,,,,,,,220243,001,2024-11-28_11h35.47.946,Test,2024.2.4,None,2024-11-28 11h35.54.875720 +0100,
7,150,30,38,None,2,2,0,,,,,,,,,,,,,,,,0,2,2,6,,,,,394.59479950001696,,,,,,,,,,,,,,,,,,,,,,,,,,,,,,,,,,,,,,,,,,,,,,,,,,,,,,,394.58992804202717,394.5987375420227,394.7967160830158,394.7967160830158,394.7967160830158,396.49415762501303,396.49415762501303,396.4810989170219,,,,,,,,,,,,,,,,,,,,,,,,,220243,001,2024-11-28_11h35.47.946,Test,2024.2.4,None,2024-11-28 11h35.54.875720 +0100,
5,150,0,63,None,3,3,0,,,,,,,,,,,,,,,,0,3,3,4,,,,,396.49415762501303,,,,,,,,,,,,,,,,,,,,,,,,,,,,,,,,,,,,,,,,,,,,,,,,,,,,,,,396.4892547080235,396.4990957500122,396.6968755420239,396.6968755420239,396.6968755420239,398.3954493330093,398.3954493330093,398.38121383302496,,,,,,,,,,,,,,,,,,,,,,,,,220243,001,2024-11-28_11h35.47.946,Test,2024.2.4,None,2024-11-28 11h35.54.875720 +0100,
4,150,0,8,None,4,4,0,,,,,,,,,,,,,,,,0,4,4,3,,,,,398.3954493330093,,,,,,,,,,,,,,,,,,,,,,,,,,,,,,,,,,,,,,,,,,,,,,,,,,,,,,,398.3906136670266,398.3995414170204,398.596968458005,398.596968458005,398.596968458005,400.2945825420029,400.2945825420029,400.28109262502403,,,,,,,,,,,,,,,,,,,,,,,,,220243,001,2024-11-28_11h35.47.946,Test,2024.2.4,None,2024-11-28 11h35.54.875720 +0100,
13,150,60,37,None,5,5,0,,,,,,,,,,,,,,,,0,5,5,12,,,,,400.2945825420029,,,,,,,,,,,,,,,,,,,,,,,,,,,,,,,,,,,,,,,,,,,,,,,,,,,,,,,400.2896470830019,400.29937675001565,400.49683141702553,400.49683141702553,400.49683141702553,402.19926237501204,402.19926237501204,402.18105812501744,,,,,,,,,,,,,,,,,,,,,,,,,220243,001,2024-11-28_11h35.47.946,Test,2024.2.4,None,2024-11-28 11h35.54.875720 +0100,
34,150,180,11,None,6,6,0,,,,,,,,,,,,,,,,0,6,6,33,,,,,402.19926237501204,,,,,,,,,,,,,,,,,,,,,,,,,,,,,,,,,,,,,,,,,,,,,,,,,,,,,,,402.1945488330093,402.2134797920007,402.3955852080253,402.3955852080253,402.4135464170249,404.09562295800424,404.09562295800424,404.08110633300385,,,,,,,,,,,,,,,,,,,,,,,,,220243,001,2024-11-28_11h35.47.946,Test,2024.2.4,None,2024-11-28 11h35.54.875720 +0100,
16,150,90,49,None,7,7,0,,,,,,,,,,,,,,,,0,7,7,15,,,,,404.09562295800424,,,,,,,,,,,,,,,,,,,,,,,,,,,,,,,,,,,,,,,,,,,,,,,,,,,,,,,404.0906101250148,404.1000752079999,404.2967659170099,404.2967659170099,404.2967659170099,405.9941145420016,405.9941145420016,405.9809265830263,,,,,,,,,,,,,,,,,,,,,,,,,220243,001,2024-11-28_11h35.47.946,Test,2024.2.4,None,2024-11-28 11h35.54.875720 +0100,
28,150,150,60,None,8,8,0,,,,,,,,,,,,,,,,0,8,8,27,,,,,405.9941145420016,,,,,,,,,,,,,,,,,,,,,,,,,,,,,,,,,,,,,,,,,,,,,,,,,,,,,,,405.98925283300923,405.9988720000256,406.19682633300545,406.19682633300545,406.19682633300545,407.8944546249986,407.8944546249986,407.8811617080064,,,,,,,,,,,,,,,,,,,,,,,,,220243,001,2024-11-28_11h35.47.946,Test,2024.2.4,None,2024-11-28 11h35.54.875720 +0100,
10,150,30,12,None,9,9,0,,,,,,,,,,,,,,,,0,9,9,9,,,,,407.8944546249986,,,,,,,,,,,,,,,,,,,,,,,,,,,,,,,,,,,,,,,,,,,,,,,,,,,,,,,407.88953266700264,407.89898441699916,408.09681229200214,408.09681229200214,408.09681229200214,409.7942868329992,409.7942868329992,409.78102979200776,,,,,,,,,,,,,,,,,,,,,,,,,220243,001,2024-11-28_11h35.47.946,Test,2024.2.4,None,2024-11-28 11h35.54.875720 +0100,
35,150,180,17,None,10,10,0,,,,,,,,,,,,,,,,0,10,10,34,,,,,409.7942868329992,,,,,,,,,,,,,,,,,,,,,,,,,,,,,,,,,,,,,,,,,,,,,,,,,,,,,,,409.7892812080099,409.7990818330145,409.996809083008,409.996809083008,409.996809083008,411.6944167500187,411.6944167500187,411.6810776250204,,,,,,,,,,,,,,,,,,,,,,,,,220243,001,2024-11-28_11h35.47.946,Test,2024.2.4,None,2024-11-28 11h35.54.875720 +0100,
29,150,150,36,None,11,11,0,,,,,,,,,,,,,,,,0,11,11,28,,,,,411.6944167500187,,,,,,,,,,,,,,,,,,,,,,,,,,,,,,,,,,,,,,,,,,,,,,,,,,,,,,,411.6895597500261,411.69841929202084,411.8969085420249,411.8969085420249,411.8969085420249,413.59355933300685,413.59355933300685,413.580950167001,,,,,,,,,,,,,,,,,,,,,,,,,220243,001,2024-11-28_11h35.47.946,Test,2024.2.4,None,2024-11-28 11h35.54.875720 +0100,
1,150,0,67,None,12,12,0,,,,,,,,,,,,,,,,0,12,12,0,,,,,413.59355933300685,,,,,,,,,,,,,,,,,,,,,,,,,,,,,,,,,,,,,,,,,,,,,,,,,,,,,,,413.588748167007,413.5983229170088,413.79677262500627,413.79677262500627,413.79677262500627,415.4945916670258,415.4945916670258,415.48111241700826,,,,,,,,,,,,,,,,,,,,,,,,,220243,001,2024-11-28_11h35.47.946,Test,2024.2.4,None,2024-11-28 11h35.54.875720 +0100,
14,150,60,18,None,13,13,0,,,,,,,,,,,,,,,,0,13,13,13,,,,,415.4945916670258,,,,,,,,,,,,,,,,,,,,,,,,,,,,,,,,,,,,,,,,,,,,,,,,,,,,,,,415.4896680000238,415.4997784170264,415.69684325001435,415.69684325001435,415.69684325001435,417.3951759170159,417.3951759170159,417.38088275000337,,,,,,,,,,,,,,,,,,,,,,,,,220243,001,2024-11-28_11h35.47.946,Test,2024.2.4,None,2024-11-28 11h35.54.875720 +0100,
9,150,30,9,None,14,14,0,,,,,,,,,,,,,,,,0,14,14,8,,,,,417.3951759170159,,,,,,,,,,,,,,,,,,,,,,,,,,,,,,,,,,,,,,,,,,,,,,,,,,,,,,,417.3900690000155,417.4000777080073,417.5968726670253,417.5968726670253,417.5968726670253,419.289418417,419.289418417,419.2803781250259,,,,,,,,,,,,,,,,,,,,,,,,,220243,001,2024-11-28_11h35.47.946,Test,2024.2.4,None,2024-11-28 11h35.54.875720 +0100,
12,150,60,31,None,15,15,0,,,,,,,,,,,,,,,,0,15,15,11,,,,,419.289418417,,,,,,,,,,,,,,,,,,,,,,,,,,,,,,,,,,,,,,,,,,,,,,,,,,,,,,,419.28522212500684,419.2961786670203,419.51363375000074,419.51363375000074,419.48325108300196,421.2159208750236,421.2159208750236,421.19834658302716,,,,,,,,,,,,,,,,,,,,,,,,,220243,001,2024-11-28_11h35.47.946,Test,2024.2.4,None,2024-11-28 11h35.54.875720 +0100,
17,150,90,62,None,16,16,0,,,,,,,,,,,,,,,,0,16,16,16,,,,,421.2159208750236,,,,,,,,,,,,,,,,,,,,,,,,,,,,,,,,,,,,,,,,,,,,,,,,,,,,,,,421.2108367080218,421.2159208750236,421.39529437501915,421.39529437501915,421.41343583300477,423.0949182920158,423.0949182920158,423.08080716701807,,,,,,,,,,,,,,,,,,,,,,,,,220243,001,2024-11-28_11h35.47.946,Test,2024.2.4,None,2024-11-28 11h35.54.875720 +0100,
11,150,60,1,None,17,17,0,,,,,,,,,,,,,,,,0,17,17,10,,,,,423.0949182920158,,,,,,,,,,,,,,,,,,,,,,,,,,,,,,,,,,,,,,,,,,,,,,,,,,,,,,,423.089780417009,423.0991208330088,423.2967088330188,423.2967088330188,423.2967088330188,424.9947908750037,424.9947908750037,424.9810115,,,,,,,,,,,,,,,,,,,,,,,,,220243,001,2024-11-28_11h35.47.946,Test,2024.2.4,None,2024-11-28 11h35.54.875720 +0100,
24,150,120,45,None,18,18,0,,,,,,,,,,,,,,,,0,18,18,23,,,,,424.9947908750037,,,,,,,,,,,,,,,,,,,,,,,,,,,,,,,,,,,,,,,,,,,,,,,,,,,,,,,424.989851292019,425.0002427500149,425.1968337500002,425.1968337500002,425.1968337500002,426.8946684580005,426.8946684580005,426.8810080420226,,,,,,,,,,,,,,,,,,,,,,,,,220243,001,2024-11-28_11h35.47.946,Test,2024.2.4,None,2024-11-28 11h35.54.875720 +0100,
3,150,0,59,None,19,19,0,,,,,,,,,,,,,,,,0,19,19,2,,,,,426.8946684580005,,,,,,,,,,,,,,,,,,,,,,,,,,,,,,,,,,,,,,,,,,,,,,,,,,,,,,,426.88987783301855,426.8988140000147,427.09682604201953,427.09682604201953,427.09682604201953,428.7956743329996,428.7956743329996,428.78104308299953,,,,,,,,,,,,,,,,,,,,,,,,,220243,001,2024-11-28_11h35.47.946,Test,2024.2.4,None,2024-11-28 11h35.54.875720 +0100,
30,150,150,61,None,20,20,0,,,,,,,,,,,,,,,,0,20,20,29,,,,,428.7956743329996,,,,,,,,,,,,,,,,,,,,,,,,,,,,,,,,,,,,,,,,,,,,,,,,,,,,,,,428.79060025000945,428.7997040830087,428.99676620800165,428.99676620800165,428.99676620800165,430.6943801669986,430.6943801669986,430.6810860420228,,,,,,,,,,,,,,,,,,,,,,,,,220243,001,2024-11-28_11h35.47.946,Test,2024.2.4,None,2024-11-28 11h35.54.875720 +0100,
19,150,90,26,None,21,21,0,,,,,,,,,,,,,,,,0,21,21,18,,,,,430.6943801669986,,,,,,,,,,,,,,,,,,,,,,,,,,,,,,,,,,,,,,,,,,,,,,,,,,,,,,,430.6893740000087,430.69901045801817,430.8968362919986,430.8968362919986,430.8968362919986,432.59542733299895,432.59542733299895,432.58130629200605,,,,,,,,,,,,,,,,,,,,,,,,,220243,001,2024-11-28_11h35.47.946,Test,2024.2.4,None,2024-11-28 11h35.54.875720 +0100,
18,150,90,19,None,22,22,0,,,,,,,,,,,,,,,,0,22,22,17,,,,,432.59542733299895,,,,,,,,,,,,,,,,,,,,,,,,,,,,,,,,,,,,,,,,,,,,,,,,,,,,,,,432.5903327920241,432.6001722920046,432.7967013330199,432.7967013330199,432.7967013330199,434.4948784580047,434.4948784580047,434.4811320830195,,,,,,,,,,,,,,,,,,,,,,,,,220243,001,2024-11-28_11h35.47.946,Test,2024.2.4,None,2024-11-28 11h35.54.875720 +0100,
32,150,180,50,None,23,23,0,,,,,,,,,,,,,,,,0,23,23,31,,,,,434.4948784580047,,,,,,,,,,,,,,,,,,,,,,,,,,,,,,,,,,,,,,,,,,,,,,,,,,,,,,,434.48994820800726,434.49956650001695,434.69680770800915,434.69680770800915,434.69680770800915,436.3944243330043,436.3944243330043,436.38094479200663,,,,,,,,,,,,,,,,,,,,,,,,,220243,001,2024-11-28_11h35.47.946,Test,2024.2.4,None,2024-11-28 11h35.54.875720 +0100,
2,150,0,47,None,24,24,0,,,,,,,,,,,,,,,,0,24,24,1,,,,,436.3944243330043,,,,,,,,,,,,,,,,,,,,,,,,,,,,,,,,,,,,,,,,,,,,,,,,,,,,,,,436.38964900001884,436.3989191670262,436.5968963750056,436.5968963750056,436.5968963750056,438.2952308750246,438.2952308750246,438.2812487920164,,,,,,,,,,,,,,,,,,,,,,,,,220243,001,2024-11-28_11h35.47.946,Test,2024.2.4,None,2024-11-28 11h35.54.875720 +0100,
22,150,120,58,None,25,25,0,,,,,,,,,,,,,,,,0,25,25,21,,,,,438.2952308750246,,,,,,,,,,,,,,,,,,,,,,,,,,,,,,,,,,,,,,,,,,,,,,,,,,,,,,,438.29015229200013,438.29996241701883,438.4967639170063,438.4967639170063,438.4967639170063,440.19436266701086,440.19436266701086,440.1811595830077,,,,,,,,,,,,,,,,,,,,,,,,,220243,001,2024-11-28_11h35.47.946,Test,2024.2.4,None,2024-11-28 11h35.54.875720 +0100,
25,150,120,65,None,26,26,0,,,,,,,,,,,,,,,,0,26,26,24,,,,,440.19436266701086,,,,,,,,,,,,,,,,,,,,,,,,,,,,,,,,,,,,,,,,,,,,,,,,,,,,,,,440.18954325001687,440.19932691700524,440.39706204200047,440.39706204200047,440.39706204200047,442.09469766702387,442.09469766702387,442.0809466250066,,,,,,,,,,,,,,,,,,,,,,,,,220243,001,2024-11-28_11h35.47.946,Test,2024.2.4,None,2024-11-28 11h35.54.875720 +0100,
6,150,30,41,None,27,27,0,,,,,,,,,,,,,,,,0,27,27,5,,,,,442.09469766702387,,,,,,,,,,,,,,,,,,,,,,,,,,,,,,,,,,,,,,,,,,,,,,,,,,,,,,,442.08992025000043,442.0985603330191,442.2967060000228,442.2967060000228,442.2967060000228,443.996078917,443.996078917,443.98135570800514,,,,,,,,,,,,,,,,,,,,,,,,,220243,001,2024-11-28_11h35.47.946,Test,2024.2.4,None,2024-11-28 11h35.54.875720 +0100,
15,150,60,24,None,28,28,0,,,,,,,,,,,,,,,,0,28,28,14,,,,,443.996078917,,,,,,,,,,,,,,,,,,,,,,,,,,,,,,,,,,,,,,,,,,,,,,,,,,,,,,,443.991087041999,444.00089208301506,444.19679416701547,444.19679416701547,444.19679416701547,445.89416424999945,445.89416424999945,445.8810893750051,,,,,,,,,,,,,,,,,,,,,,,,,220243,001,2024-11-28_11h35.47.946,Test,2024.2.4,None,2024-11-28 11h35.54.875720 +0100,
26,150,150,42,None,29,29,0,,,,,,,,,,,,,,,,0,29,29,25,,,,,445.89416424999945,,,,,,,,,,,,,,,,,,,,,,,,,,,,,,,,,,,,,,,,,,,,,,,,,,,,,,,445.88921562500764,445.8980319580005,446.096907500003,446.096907500003,446.096907500003,447.7934985420143,447.7934985420143,447.78095600000233,,,,,,,,,,,,,,,,,,,,,,,,,220243,001,2024-11-28_11h35.47.946,Test,2024.2.4,None,2024-11-28 11h35.54.875720 +0100,
23,150,120,69,None,30,30,0,,,,,,,,,,,,,,,,0,30,30,22,,,,,447.7934985420143,,,,,,,,,,,,,,,,,,,,,,,,,,,,,,,,,,,,,,,,,,,,,,,,,,,,,,,447.7885391669988,447.7981531250116,447.99682258302346,447.99682258302346,447.99682258302346,449.6945850000193,449.6945850000193,449.68109679201734,,,,,,,,,,,,,,,,,,,,,,,,,220243,001,2024-11-28_11h35.47.946,Test,2024.2.4,None,2024-11-28 11h35.54.875720 +0100,
31,150,180,21,None,31,31,0,,,,,,,,,,,,,,,,0,31,31,30,,,,,449.6945850000193,,,,,,,,,,,,,,,,,,,,,,,,,,,,,,,,,,,,,,,,,,,,,,,,,,,,,,,449.68959958301275,449.6995857920265,449.89684604201466,449.89684604201466,449.89684604201466,451.59414216701407,451.59414216701407,451.58112762501696,,,,,,,,,,,,,,,,,,,,,,,,,220243,001,2024-11-28_11h35.47.946,Test,2024.2.4,None,2024-11-28 11h35.54.875720 +0100,
20,150,90,7,None,32,32,0,,,,,,,,,,,,,,,,0,32,32,19,,,,,451.59414216701407,,,,,,,,,,,,,,,,,,,,,,,,,,,,,,,,,,,,,,,,,,,,,,,,,,,,,,,451.58926850001444,451.59890258300584,451.79671279201284,451.79671279201284,451.79671279201284,453.49583116700524,453.49583116700524,453.4818073330098,,,,,,,,,,,,,,,,,,,,,,,,,220243,001,2024-11-28_11h35.47.946,Test,2024.2.4,None,2024-11-28 11h35.54.875720 +0100,
21,150,120,3,None,33,33,0,,,,,,,,,,,,,,,,0,33,33,20,,,,,453.49583116700524,,,,,,,,,,,,,,,,,,,,,,,,,,,,,,,,,,,,,,,,,,,,,,,,,,,,,,,453.49081320801633,453.500446458027,453.6968186670274,453.6968186670274,453.6968186670274,455.3941425830126,455.3941425830126,455.38105825000093,,,,,,,,,,,,,,,,,,,,,,,,,220243,001,2024-11-28_11h35.47.946,Test,2024.2.4,None,2024-11-28 11h35.54.875720 +0100,
8,150,30,66,None,34,34,0,,,,,,,,,,,,,,,,0,34,34,7,,,,,455.3941425830126,,,,,,,,,,,,,,,,,,,,,,,,,,,,,,,,,,,,,,,,,,,,,,,,,,,,,,,455.38909862501896,455.3991886670119,455.59692766700755,455.59692766700755,455.59692766700755,457.28599679202307,457.28599679202307,457.2809757080104,,,,,,,,,,,,,,,,,,,,,,,,,220243,001,2024-11-28_11h35.47.946,Test,2024.2.4,None,2024-11-28 11h35.54.875720 +0100,
,,,,,,,,,,,,,,,,,,,,,,,,,,,,,,,,,,,,,,,,,,,,,,,,,,,,,,,,,,,,,,,,,,,,,,,,,,,,,,,,,,,,,,,,,,,,,,457.2811722080223,457.29564587501227,457.29564587501227,466.24867162501323,space,8.945608166977763,None,,,,,,,,,,,,,,,,,,220243,001,2024-11-28_11h35.47.946,Test,2024.2.4,None,2024-11-28 11h35.54.875720 +0100,
8,150,30,66,None,0,0,0,False,,,,right,1.31921916702413,None,,,,,,,,,,,,,0,0,0,0,466.34696783300024,,,,,,,,,,,,,,,,,,,,,,,,,,,,,,,,,,,,,,,,,,,,,,,,,,,,,,,,,,,,,,,,,,,,,,466.341774792003,466.34696783300024,467.33526483300375,468.2467333750101,468.2467333750101,468.2467333750101,469.5718409170222,right,1.31921916702413,None,,,,,,,,220243,001,2024-11-28_11h35.47.946,Test,2024.2.4,None,2024-11-28 11h35.54.875720 +0100,
68,150,180,64,None,1,1,0,True,,,,left,1.3937032090034336,None,,,,,,,,,,,,,0,1,1,1,469.5867526670045,,,,,,,,,,,,,,,,,,,,,,,,,,,,,,,,,,,,,,,,,,,,,,,,,,,,,,,,,,,,,,,,,,,,,,469.58048670800054,469.5867526670045,470.58524929202395,471.57098366701393,471.57098366701393,471.57098366701393,472.97139950000565,left,1.3937032090034336,None,,,,,,,,220243,001,2024-11-28_11h35.47.946,Test,2024.2.4,None,2024-11-28 11h35.54.875720 +0100,
34,150,180,11,None,2,2,0,False,,,,right,1.0083647500141524,None,,,,,,,,,,,,,0,2,2,2,472.988281708007,,,,,,,,,,,,,,,,,,,,,,,,,,,,,,,,,,,,,,,,,,,,,,,,,,,,,,,,,,,,,,,,,,,,,,472.9821370000136,472.988281708007,473.98490187502466,474.9730339170201,474.9730339170201,474.9730339170201,475.988109042024,right,1.0083647500141524,None,,,,,,,,220243,001,2024-11-28_11h35.47.946,Test,2024.2.4,None,2024-11-28 11h35.54.875720 +0100,
43,150,30,54,None,3,3,0,True,,,,right,0.999053500010632,None,,,,,,,,,,,,,0,3,3,3,476.00358058302663,,,,,,,,,,,,,,,,,,,,,,,,,,,,,,,,,,,,,,,,,,,,,,,,,,,,,,,,,,,,,,,,,,,,,,475.99733766700956,476.00358058302663,477.00206450000405,477.9875070830167,477.9875070830167,477.9875070830167,478.98875200000475,right,0.999053500010632,None,,,,,,,,220243,001,2024-11-28_11h35.47.946,Test,2024.2.4,None,2024-11-28 11h35.54.875720 +0100,
64,150,150,22,None,4,4,0,True,,,,right,1.4268486670043785,None,,,,,,,,,,,,,0,4,4,4,479.00416366700665,,,,,,,,,,,,,,,,,,,,,,,,,,,,,,,,,,,,,,,,,,,,,,,,,,,,,,,,,,,,,,,,,,,,,,478.9979135419999,479.00416366700665,480.00198158301646,480.9869985000114,480.9869985000114,480.9869985000114,482.41688062500907,right,1.4268486670043785,None,,,,,,,,220243,001,2024-11-28_11h35.47.946,Test,2024.2.4,None,2024-11-28 11h35.54.875720 +0100,
3,150,0,59,None,5,5,0,False,,,,right,0.7725854589953087,None,,,,,,,,,,,,,0,5,5,5,482.43185745802475,,,,,,,,,,,,,,,,,,,,,,,,,,,,,,,,,,,,,,,,,,,,,,,,,,,,,,,,,,,,,,,,,,,,,,482.4246054580144,482.43185745802475,483.42999616701854,484.4136138750182,484.4136138750182,484.4136138750182,485.1888898750185,right,0.7725854589953087,None,,,,,,,,220243,001,2024-11-28_11h35.47.946,Test,2024.2.4,None,2024-11-28 11h35.54.875720 +0100,
52,150,90,5,None,6,6,0,True,,,,left,1.2218476249836385,None,,,,,,,,,,,,,0,6,6,6,485.20232758301427,,,,,,,,,,,,,,,,,,,,,,,,,,,,,,,,,,,,,,,,,,,,,,,,,,,,,,,,,,,,,,,,,,,,,,485.19638712500455,485.20232758301427,486.1968392920098,487.1871614580159,487.1871614580159,487.1871614580159,488.415885000024,left,1.2218476249836385,None,,,,,,,,220243,001,2024-11-28_11h35.47.946,Test,2024.2.4,None,2024-11-28 11h35.54.875720 +0100,
50,150,60,35,None,7,7,0,True,,,,left,0.9769782920193393,None,,,,,,,,,,,,,0,7,7,7,488.43084533300134,,,,,,,,,,,,,,,,,,,,,,,,,,,,,,,,,,,,,,,,,,,,,,,,,,,,,,,,,,,,,,,,,,,,,,488.4246496250271,488.43084533300134,489.41869758302346,490.4137382500048,490.4137382500048,490.4137382500048,491.39897087501595,left,0.9769782920193393,None,,,,,,,,220243,001,2024-11-28_11h35.47.946,Test,2024.2.4,None,2024-11-28 11h35.54.875720 +0100,
55,150,90,48,None,8,8,0,True,,,,left,1.7743459589837585,None,,,,,,,,,,,,,0,8,8,8,491.41408700001193,,,,,,,,,,,,,,,,,,,,,,,,,,,,,,,,,,,,,,,,,,,,,,,,,,,,,,,,,,,,,,,,,,,,,,491.4077160830202,491.41408700001193,492.4024211670039,493.39702045801096,493.39702045801096,493.39702045801096,495.18228020801325,left,1.7743459589837585,None,,,,,,,,220243,001,2024-11-28_11h35.47.946,Test,2024.2.4,None,2024-11-28 11h35.54.875720 +0100,
31,150,180,21,None,9,9,0,False,,,,right,1.027930957992794,None,,,,,,,,,,,,,0,9,9,9,495.1972262500203,,,,,,,,,,,,,,,,,,,,,,,,,,,,,,,,,,,,,,,,,,,,,,,,,,,,,,,,,,,,,,,,,,,,,,495.19001145800576,495.1972262500203,496.18628337502014,497.18032275000587,497.18032275000587,497.18032275000587,498.2155508750002,right,1.027930957992794,None,,,,,,,,220243,001,2024-11-28_11h35.47.946,Test,2024.2.4,None,2024-11-28 11h35.54.875720 +0100,
28,150,150,60,None,10,10,0,False,,,,right,1.2640674579888582,None,,,,,,,,,,,,,0,10,10,10,498.2303315830068,,,,,,,,,,,,,,,,,,,,,,,,,,,,,,,,,,,,,,,,,,,,,,,,,,,,,,,,,,,,,,,,,,,,,,498.22332337501575,498.2303315830068,499.218875917024,500.2134751670237,500.2134751670237,500.2134751670237,501.48223137500463,right,1.2640674579888582,None,,,,,,,,220243,001,2024-11-28_11h35.47.946,Test,2024.2.4,None,2024-11-28 11h35.54.875720 +0100,
58,150,120,2,None,11,11,0,True,,,,left,1.0835110830084886,None,,,,,,,,,,,,,0,11,11,11,501.49753716701525,,,,,,,,,,,,,,,,,,,,,,,,,,,,,,,,,,,,,,,,,,,,,,,,,,,,,,,,,,,,,,,,,,,,,,501.4910479170212,501.49753716701525,502.4854243330192,503.4803353330062,503.4803353330062,503.4803353330062,504.56717175000813,left,1.0835110830084886,None,,,,,,,,220243,001,2024-11-28_11h35.47.946,Test,2024.2.4,None,2024-11-28 11h35.54.875720 +0100,
62,150,150,33,None,12,12,0,True,,,,left,1.5013479169865604,None,,,,,,,,,,,,,0,12,12,12,504.5822984580009,,,,,,,,,,,,,,,,,,,,,,,,,,,,,,,,,,,,,,,,,,,,,,,,,,,,,,,,,,,,,,,,,,,,,,504.575946500001,504.5822984580009,505.5801391249988,506.5634050000226,506.5634050000226,506.5634050000226,508.07162991701625,left,1.5013479169865604,None,,,,,,,,220243,001,2024-11-28_11h35.47.946,Test,2024.2.4,None,2024-11-28 11h35.54.875720 +0100,
22,150,120,58,None,13,13,0,False,,,,right,0.884979291993659,None,,,,,,,,,,,,,0,13,13,13,508.0859207920148,,,,,,,,,,,,,,,,,,,,,,,,,,,,,,,,,,,,,,,,,,,,,,,,,,,,,,,,,,,,,,,,,,,,,,508.0791392920073,508.0859207920148,509.0800965000235,510.0701657080208,510.0701657080208,510.0701657080208,510.9654866250057,right,0.884979291993659,None,,,,,,,,220243,001,2024-11-28_11h35.47.946,Test,2024.2.4,None,2024-11-28 11h35.54.875720 +0100,
69,150,180,6,None,14,14,0,True,,,,left,0.9464767499885056,None,,,,,,,,,,,,,0,14,14,14,510.9809505830053,,,,,,,,,,,,,,,,,,,,,,,,,,,,,,,,,,,,,,,,,,,,,,,,,,,,,,,,,,,,,,,,,,,,,,510.97428233301616,510.9809505830053,511.96793395801797,512.9636327500048,512.9636327500048,512.9636327500048,513.9157556249993,left,0.9464767499885056,None,,,,,,,,220243,001,2024-11-28_11h35.47.946,Test,2024.2.4,None,2024-11-28 11h35.54.875720 +0100,
32,150,180,50,None,15,15,0,False,,,,left,1.7474917919898871,None,,,,,,,,,,,,,0,15,15,15,513.9288309580006,,,,,,,,,,,,,,,,,,,,,,,,,,,,,,,,,,,,,,,,,,,,,,,,,,,,,,,,,,,,,,,,,,,,,,513.9228020000155,513.9288309580006,514.9194740420207,515.9136122920027,515.9136122920027,515.9136122920027,517.665592083009,left,1.7474917919898871,None,,,,,,,,220243,001,2024-11-28_11h35.47.946,Test,2024.2.4,None,2024-11-28 11h35.54.875720 +0100,
14,150,60,18,None,16,16,0,False,,,,left,1.0841845420072787,None,,,,,,,,,,,,,0,16,16,16,517.6799465000222,,,,,,,,,,,,,,,,,,,,,,,,,,,,,,,,,,,,,,,,,,,,,,,,,,,,,,,,,,,,,,,,,,,,,,517.6730114170059,517.6799465000222,518.6686844170035,519.663587750023,519.663587750023,519.663587750023,520.7550575420028,left,1.0841845420072787,None,,,,,,,,220243,001,2024-11-28_11h35.47.946,Test,2024.2.4,None,2024-11-28 11h35.54.875720 +0100,
56,150,120,43,None,17,17,0,True,,,,right,0.870379750005668,None,,,,,,,,,,,,,0,17,17,17,520.7696057080175,,,,,,,,,,,,,,,,,,,,,,,,,,,,,,,,,,,,,,,,,,,,,,,,,,,,,,,,,,,,,,,,,,,,,,520.7636482500238,520.7696057080175,521.763354833005,522.7538572080084,522.7538572080084,522.7538572080084,523.6322128330066,right,0.870379750005668,None,,,,,,,,220243,001,2024-11-28_11h35.47.946,Test,2024.2.4,None,2024-11-28 11h35.54.875720 +0100,
6,150,30,41,None,18,18,0,False,,,,right,1.0670109170023352,None,,,,,,,,,,,,,0,18,18,18,523.6471239580133,,,,,,,,,,,,,,,,,,,,,,,,,,,,,,,,,,,,,,,,,,,,,,,,,,,,,,,,,,,,,,,,,,,,,,523.6398585000134,523.6471239580133,524.6355923750089,525.6303127080027,525.6303127080027,525.6303127080027,526.7002756670117,right,1.0670109170023352,None,,,,,,,,220243,001,2024-11-28_11h35.47.946,Test,2024.2.4,None,2024-11-28 11h35.54.875720 +0100,
5,150,0,63,None,19,19,0,False,,,,right,1.0041167080053128,None,,,,,,,,,,,,,0,19,19,19,526.7145200830128,,,,,,,,,,,,,,,,,,,,,,,,,,,,,,,,,,,,,,,,,,,,,,,,,,,,,,,,,,,,,,,,,,,,,,526.7078533330059,526.7145200830128,527.7134468750155,528.6967985420197,528.6967985420197,528.6967985420197,529.7053228330042,right,1.0041167080053128,None,,,,,,,,220243,001,2024-11-28_11h35.47.946,Test,2024.2.4,None,2024-11-28 11h35.54.875720 +0100,
51,150,90,29,None,20,20,0,True,,,,left,1.3262481249985285,None,,,,,,,,,,,,,0,20,20,20,529.7194036250003,,,,,,,,,,,,,,,,,,,,,,,,,,,,,,,,,,,,,,,,,,,,,,,,,,,,,,,,,,,,,,,,,,,,,,529.7134754580038,529.7194036250003,530.7133720000274,531.7044760000135,531.7044760000135,531.7044760000135,533.0413333330071,left,1.3262481249985285,None,,,,,,,,220243,001,2024-11-28_11h35.47.946,Test,2024.2.4,None,2024-11-28 11h35.54.875720 +0100,
60,150,120,51,None,21,21,0,True,,,,right,1.5673599590081722,None,,,,,,,,,,,,,0,21,21,21,533.053360083024,,,,,,,,,,,,,,,,,,,,,,,,,,,,,,,,,,,,,,,,,,,,,,,,,,,,,,,,,,,,,,,,,,,,,,533.048596083012,533.053360083024,534.0520590830129,535.0374666670104,535.0374666670104,535.0374666670104,536.6154982500011,right,1.5673599590081722,None,,,,,,,,220243,001,2024-11-28_11h35.47.946,Test,2024.2.4,None,2024-11-28 11h35.54.875720 +0100,
35,150,180,17,None,22,22,0,False,,,,left,0.7390270409814548,None,,,,,,,,,,,,,0,22,22,22,536.6303207919991,,,,,,,,,,,,,,,,,,,,,,,,,,,,,,,,,,,,,,,,,,,,,,,,,,,,,,,,,,,,,,,,,,,,,,536.6231304579997,536.6303207919991,537.6184306670038,538.613531458017,538.613531458017,538.613531458017,539.3552460830251,left,0.7390270409814548,None,,,,,,,,220243,001,2024-11-28_11h35.47.946,Test,2024.2.4,None,2024-11-28 11h35.54.875720 +0100,
1,150,0,67,None,23,23,0,False,,,,right,1.3702784169872757,None,,,,,,,,,,,,,0,23,23,23,539.3691551250231,,,,,,,,,,,,,,,,,,,,,,,,,,,,,,,,,,,,,,,,,,,,,,,,,,,,,,,,,,,,,,,,,,,,,,539.3624613330176,539.3691551250231,540.3634782920126,541.3544979170256,541.3544979170256,541.3544979170256,542.7322649170237,right,1.3702784169872757,None,,,,,,,,220243,001,2024-11-28_11h35.47.946,Test,2024.2.4,None,2024-11-28 11h35.54.875720 +0100,
4,150,0,8,None,24,24,0,False,,,,left,2.1177472909912467,None,,,,,,,,,,,,,0,24,24,24,542.7467642920092,,,,,,,,,,,,,,,,,,,,,,,,,,,,,,,,,,,,,,,,,,,,,,,,,,,,,,,,,,,,,,,,,,,,,,542.7399213750032,542.7467642920092,543.7353421250009,544.7301899580052,544.7301899580052,544.7301899580052,546.8553382920218,left,2.1177472909912467,None,,,,,,,,220243,001,2024-11-28_11h35.47.946,Test,2024.2.4,None,2024-11-28 11h35.54.875720 +0100,
15,150,60,24,None,25,25,0,False,,,,right,1.9374711669806857,None,,,,,,,,,,,,,0,25,25,25,546.8695796250249,,,,,,,,,,,,,,,,,,,,,,,,,,,,,,,,,,,,,,,,,,,,,,,,,,,,,,,,,,,,,,,,,,,,,,546.8627314170008,546.8695796250249,547.8632712080143,548.8540226250188,548.8540226250188,548.8540226250188,550.798813750007,right,1.9374711669806857,None,,,,,,,,220243,001,2024-11-28_11h35.47.946,Test,2024.2.4,None,2024-11-28 11h35.54.875720 +0100,
54,150,90,32,None,26,26,0,True,,,,left,1.1100159999914467,None,,,,,,,,,,,,,0,26,26,26,550.8117919170181,,,,,,,,,,,,,,,,,,,,,,,,,,,,,,,,,,,,,,,,,,,,,,,,,,,,,,,,,,,,,,,,,,,,,,550.8058488750248,550.8117919170181,551.8020747080154,552.7970244169992,552.7970244169992,552.7970244169992,553.916083832999,left,1.1100159999914467,None,,,,,,,,220243,001,2024-11-28_11h35.47.946,Test,2024.2.4,None,2024-11-28 11h35.54.875720 +0100,
12,150,60,31,None,27,27,0,False,,,,left,1.0610095000010915,None,,,,,,,,,,,,,0,27,27,27,553.9306785830122,,,,,,,,,,,,,,,,,,,,,,,,,,,,,,,,,,,,,,,,,,,,,,,,,,,,,,,,,,,,,,,,,,,,,,553.9237113750132,553.9306785830122,554.919173250004,555.9135934580117,555.9135934580117,555.9135934580117,556.982153000019,left,1.0610095000010915,None,,,,,,,,220243,001,2024-11-28_11h35.47.946,Test,2024.2.4,None,2024-11-28 11h35.54.875720 +0100,
37,150,0,14,None,28,28,0,True,,,,left,0.7774589580076281,None,,,,,,,,,,,,,0,28,28,28,556.9956291670096,,,,,,,,,,,,,,,,,,,,,,,,,,,,,,,,,,,,,,,,,,,,,,,,,,,,,,,,,,,,,,,,,,,,,,556.9898329580028,556.9956291670096,557.9852196670254,558.9801178750058,558.9801178750058,558.9801178750058,559.7655839170038,left,0.7774589580076281,None,,,,,,,,220243,001,2024-11-28_11h35.47.946,Test,2024.2.4,None,2024-11-28 11h35.54.875720 +0100,
61,150,150,20,None,29,29,0,True,,,,left,1.0261502909997944,None,,,,,,,,,,,,,0,29,29,29,559.7808613330126,,,,,,,,,,,,,,,,,,,,,,,,,,,,,,,,,,,,,,,,,,,,,,,,,,,,,,,,,,,,,,,,,,,,,,559.7741694580182,559.7808613330126,560.7686694580188,561.7635953330027,561.7635953330027,561.7635953330027,562.798820750002,left,1.0261502909997944,None,,,,,,,,220243,001,2024-11-28_11h35.47.946,Test,2024.2.4,None,2024-11-28 11h35.54.875720 +0100,
49,150,60,46,None,30,30,0,True,,,,left,1.3868471249879804,None,,,,,,,,,,,,,0,30,30,30,562.8140039170103,,,,,,,,,,,,,,,,,,,,,,,,,,,,,,,,,,,,,,,,,,,,,,,,,,,,,,,,,,,,,,,,,,,,,,562.8077607500018,562.8140039170103,563.8019608750183,564.7966479170136,564.7966479170136,564.7966479170136,566.188711499999,left,1.3868471249879804,None,,,,,,,,220243,001,2024-11-28_11h35.47.946,Test,2024.2.4,None,2024-11-28 11h35.54.875720 +0100,
67,150,180,55,None,31,31,0,True,,,,right,1.26196729199728,None,,,,,,,,,,,,,0,31,31,31,566.2031780830002,,,,,,,,,,,,,,,,,,,,,,,,,,,,,,,,,,,,,,,,,,,,,,,,,,,,,,,,,,,,,,,,,,,,,,566.1968907500268,566.2031780830002,567.202493083023,568.1880595000111,568.1880595000111,568.1880595000111,569.4550997080223,right,1.26196729199728,None,,,,,,,,220243,001,2024-11-28_11h35.47.946,Test,2024.2.4,None,2024-11-28 11h35.54.875720 +0100,
45,150,30,10,None,32,32,0,True,,,,left,1.3674571249866858,None,,,,,,,,,,,,,0,32,32,32,569.4700122080103,,,,,,,,,,,,,,,,,,,,,,,,,,,,,,,,,,,,,,,,,,,,,,,,,,,,,,,,,,,,,,,,,,,,,,569.4633291250211,569.4700122080103,570.4686913750193,571.4539064580167,571.4539064580167,571.4539064580167,572.8322057920159,left,1.3674571249866858,None,,,,,,,,220243,001,2024-11-28_11h35.47.946,Test,2024.2.4,None,2024-11-28 11h35.54.875720 +0100,
20,150,90,7,None,33,33,0,False,,,,left,1.1070241249981336,None,,,,,,,,,,,,,0,33,33,33,572.8471804580186,,,,,,,,,,,,,,,,,,,,,,,,,,,,,,,,,,,,,,,,,,,,,,,,,,,,,,,,,,,,,,,,,,,,,,572.8400844580028,572.8471804580186,573.8350464170217,574.8301176250097,574.8301176250097,574.8301176250097,575.9393730000011,left,1.1070241249981336,None,,,,,,,,220243,001,2024-11-28_11h35.47.946,Test,2024.2.4,None,2024-11-28 11h35.54.875720 +0100,
18,150,90,19,None,34,34,0,False,,,,right,0.9945449170190841,None,,,,,,,,,,,,,0,34,34,34,575.9536977500247,,,,,,,,,,,,,,,,,,,,,,,,,,,,,,,,,,,,,,,,,,,,,,,,,,,,,,,,,,,,,,,,,,,,,,575.9475496670057,575.9536977500247,576.9515965000028,577.9369796250248,577.9369796250248,577.9369796250248,578.9389186670014,right,0.9945449170190841,None,,,,,,,,220243,001,2024-11-28_11h35.47.946,Test,2024.2.4,None,2024-11-28 11h35.54.875720 +0100,
13,150,60,37,None,35,35,0,False,,,,right,1.7781867499870714,None,,,,,,,,,,,,,0,35,35,35,578.9530779170163,,,,,,,,,,,,,,,,,,,,,,,,,,,,,,,,,,,,,,,,,,,,,,,,,,,,,,,,,,,,,,,,,,,,,,578.9461805419996,578.9530779170163,579.9468069580034,580.9373745830089,580.9373745830089,580.9373745830089,582.7218670420116,right,1.7781867499870714,None,,,,,,,,220243,001,2024-11-28_11h35.47.946,Test,2024.2.4,None,2024-11-28 11h35.54.875720 +0100,
57,150,120,52,None,36,36,0,True,,,,right,1.1148525419994257,None,,,,,,,,,,,,,0,36,36,36,582.7375874580175,,,,,,,,,,,,,,,,,,,,,,,,,,,,,,,,,,,,,,,,,,,,,,,,,,,,,,,,,,,,,,,,,,,,,,582.7317408330273,582.7375874580175,583.7356875830155,584.7204047080013,584.7204047080013,584.7204047080013,585.8385975830024,right,1.1148525419994257,None,,,,,,,,220243,001,2024-11-28_11h35.47.946,Test,2024.2.4,None,2024-11-28 11h35.54.875720 +0100,
70,150,180,68,None,37,37,0,True,,,,right,1.0144296670041513,None,,,,,,,,,,,,,0,37,37,37,585.8536932080169,,,,,,,,,,,,,,,,,,,,,,,,,,,,,,,,,,,,,,,,,,,,,,,,,,,,,,,,,,,,,,,,,,,,,,585.8469599170203,585.8536932080169,586.8520395000232,587.8372652920079,587.8372652920079,587.8372652920079,588.8549794999999,right,1.0144296670041513,None,,,,,,,,220243,001,2024-11-28_11h35.47.946,Test,2024.2.4,None,2024-11-28 11h35.54.875720 +0100,
66,150,180,13,None,38,38,0,True,,,,left,1.0328159170167055,None,,,,,,,,,,,,,0,38,38,38,588.8688651250268,,,,,,,,,,,,,,,,,,,,,,,,,,,,,,,,,,,,,,,,,,,,,,,,,,,,,,,,,,,,,,,,,,,,,,588.8629768330138,588.8688651250268,589.8634126670077,590.8537545830186,590.8537545830186,590.8537545830186,591.8967739170184,left,1.0328159170167055,None,,,,,,,,220243,001,2024-11-28_11h35.47.946,Test,2024.2.4,None,2024-11-28 11h35.54.875720 +0100,
25,150,120,65,None,39,39,0,False,,,,left,1.8276365000056103,None,,,,,,,,,,,,,0,39,39,39,591.9083270000119,,,,,,,,,,,,,,,,,,,,,,,,,,,,,,,,,,,,,,,,,,,,,,,,,,,,,,,,,,,,,,,,,,,,,,591.9033000420022,591.9083270000119,592.9014627500146,593.8870523750084,593.8870523750084,593.8870523750084,595.7215999580221,left,1.8276365000056103,None,,,,,,,,220243,001,2024-11-28_11h35.47.946,Test,2024.2.4,None,2024-11-28 11h35.54.875720 +0100,
21,150,120,3,None,40,40,0,False,,,,left,1.4527567499899305,None,,,,,,,,,,,,,0,40,40,40,595.7362355420191,,,,,,,,,,,,,,,,,,,,,,,,,,,,,,,,,,,,,,,,,,,,,,,,,,,,,,,,,,,,,,,,,,,,,,595.7288985420018,595.7362355420191,596.7299410420237,597.7213232500071,597.7213232500071,597.7213232500071,599.1822110830108,left,1.4527567499899305,None,,,,,,,,220243,001,2024-11-28_11h35.47.946,Test,2024.2.4,None,2024-11-28 11h35.54.875720 +0100,
47,150,60,44,None,41,41,0,True,,,,left,1.5841724580095615,None,,,,,,,,,,,,,0,41,41,41,599.1971305420157,,,,,,,,,,,,,,,,,,,,,,,,,,,,,,,,,,,,,,,,,,,,,,,,,,,,,,,,,,,,,,,,,,,,,,599.1908312500163,599.1971305420157,600.184657958016,601.1803472920146,601.1803472920146,601.1803472920146,602.7719224170141,left,1.5841724580095615,None,,,,,,,,220243,001,2024-11-28_11h35.47.946,Test,2024.2.4,None,2024-11-28 11h35.54.875720 +0100,
26,150,150,42,None,42,42,0,False,,,,left,0.8724773750000168,None,,,,,,,,,,,,,0,42,42,42,602.7861588330125,,,,,,,,,,,,,,,,,,,,,,,,,,,,,,,,,,,,,,,,,,,,,,,,,,,,,,,,,,,,,,,,,,,,,,602.7794186250248,602.7861588330125,603.780040875019,604.7705487080093,604.7705487080093,604.7705487080093,605.64888600001,left,0.8724773750000168,None,,,,,,,,220243,001,2024-11-28_11h35.47.946,Test,2024.2.4,None,2024-11-28 11h35.54.875720 +0100,
17,150,90,62,None,43,43,0,False,,,,left,1.852978249982698,None,,,,,,,,,,,,,0,43,43,43,605.6658862500044,,,,,,,,,,,,,,,,,,,,,,,,,,,,,,,,,,,,,,,,,,,,,,,,,,,,,,,,,,,,,,,,,,,,,,605.6601495420036,605.6658862500044,606.6634236670216,607.6458788750169,607.6458788750169,607.6458788750169,609.5055811670027,left,1.852978249982698,None,,,,,,,,220243,001,2024-11-28_11h35.47.946,Test,2024.2.4,None,2024-11-28 11h35.54.875720 +0100,
48,150,60,28,None,44,44,0,True,,,,left,1.3431142090121284,None,,,,,,,,,,,,,0,44,44,44,609.5215223330015,,,,,,,,,,,,,,,,,,,,,,,,,,,,,,,,,,,,,,,,,,,,,,,,,,,,,,,,,,,,,,,,,,,,,,609.5154957920022,609.5215223330015,610.5189076670213,611.5039850000176,611.5039850000176,611.5039850000176,612.8497370000114,left,1.3431142090121284,None,,,,,,,,220243,001,2024-11-28_11h35.47.946,Test,2024.2.4,None,2024-11-28 11h35.54.875720 +0100,
27,150,150,40,None,45,45,0,False,,,,right,0.8835396250069607,None,,,,,,,,,,,,,0,45,45,45,612.8641635420208,,,,,,,,,,,,,,,,,,,,,,,,,,,,,,,,,,,,,,,,,,,,,,,,,,,,,,,,,,,,,,,,,,,,,,612.8574026670249,612.8641635420208,613.8511318330129,614.8468676250195,614.8468676250195,614.8468676250195,615.733165667014,right,0.8835396250069607,None,,,,,,,,220243,001,2024-11-28_11h35.47.946,Test,2024.2.4,None,2024-11-28 11h35.54.875720 +0100,
38,150,0,23,None,46,46,0,True,,,,left,1.071028792008292,None,,,,,,,,,,,,,0,46,46,46,615.7478655420127,,,,,,,,,,,,,,,,,,,,,,,,,,,,,,,,,,,,,,,,,,,,,,,,,,,,,,,,,,,,,,,,,,,,,,615.7420267500274,615.7478655420127,616.7466802080162,617.730158833001,617.730158833001,617.730158833001,618.8051942500169,left,1.071028792008292,None,,,,,,,,220243,001,2024-11-28_11h35.47.946,Test,2024.2.4,None,2024-11-28 11h35.54.875720 +0100,
40,150,0,39,None,47,47,0,True,,,,left,0.8871342089842074,None,,,,,,,,,,,,,0,47,47,47,618.8203837920155,,,,,,,,,,,,,,,,,,,,,,,,,,,,,,,,,,,,,,,,,,,,,,,,,,,,,,,,,,,,,,,,,,,,,,618.8141868330131,618.8203837920155,619.8180732920009,620.8045795420185,620.8045795420185,620.8045795420185,621.6991785000137,left,0.8871342089842074,None,,,,,,,,220243,001,2024-11-28_11h35.47.946,Test,2024.2.4,None,2024-11-28 11h35.54.875720 +0100,
59,150,120,30,None,48,48,0,True,,,,right,2.0175464580242988,None,,,,,,,,,,,,,0,48,48,48,621.7142553750018,,,,,,,,,,,,,,,,,,,,,,,,,,,,,,,,,,,,,,,,,,,,,,,,,,,,,,,,,,,,,,,,,,,,,,621.7077955420245,621.7142553750018,622.7012696670135,623.6967340000265,623.6967340000265,623.6967340000265,625.7246538750187,right,2.0175464580242988,None,,,,,,,,220243,001,2024-11-28_11h35.47.946,Test,2024.2.4,None,2024-11-28 11h35.54.875720 +0100,
24,150,120,45,None,49,49,0,False,,,,left,0.8767781670030672,None,,,,,,,,,,,,,0,49,49,49,625.736342417018,,,,,,,,,,,,,,,,,,,,,,,,,,,,,,,,,,,,,,,,,,,,,,,,,,,,,,,,,,,,,,,,,,,,,,625.7315552080108,625.736342417018,626.7301093330025,627.7204469170247,627.7204469170247,627.7204469170247,628.5998760420189,left,0.8767781670030672,None,,,,,,,,220243,001,2024-11-28_11h35.47.946,Test,2024.2.4,None,2024-11-28 11h35.54.875720 +0100,
23,150,120,69,None,50,50,0,False,,,,right,1.8859929580066819,None,,,,,,,,,,,,,0,50,50,50,628.6144914170145,,,,,,,,,,,,,,,,,,,,,,,,,,,,,,,,,,,,,,,,,,,,,,,,,,,,,,,,,,,,,,,,,,,,,,628.6073512500152,628.6144914170145,629.6134802500019,630.5969017920143,630.5969017920143,630.5969017920143,632.4887236250215,right,1.8859929580066819,None,,,,,,,,220243,001,2024-11-28_11h35.47.946,Test,2024.2.4,None,2024-11-28 11h35.54.875720 +0100,
65,150,150,57,None,51,51,0,True,,,,left,1.7866198749979958,None,,,,,,,,,,,,,0,51,51,51,632.5039932500222,,,,,,,,,,,,,,,,,,,,,,,,,,,,,,,,,,,,,,,,,,,,,,,,,,,,,,,,,,,,,,,,,,,,,,632.4972131250252,632.5039932500222,633.5020355000161,634.487298083026,634.487298083026,634.487298083026,636.2821357080247,left,1.7866198749979958,None,,,,,,,,220243,001,2024-11-28_11h35.47.946,Test,2024.2.4,None,2024-11-28 11h35.54.875720 +0100,
36,150,0,16,None,52,52,0,True,,,,right,0.9835742500144988,None,,,,,,,,,,,,,0,52,52,52,636.2973563750274,,,,,,,,,,,,,,,,,,,,,,,,,,,,,,,,,,,,,,,,,,,,,,,,,,,,,,,,,,,,,,,,,,,,,,636.2910202080093,636.2973563750274,637.285415958002,638.2801257079991,638.2801257079991,638.2801257079991,639.2661637080018,right,0.9835742500144988,None,,,,,,,,220243,001,2024-11-28_11h35.47.946,Test,2024.2.4,None,2024-11-28 11h35.54.875720 +0100,
63,150,150,25,None,53,53,0,True,,,,left,1.009917959017912,None,,,,,,,,,,,,,0,53,53,53,639.2813078330073,,,,,,,,,,,,,,,,,,,,,,,,,,,,,,,,,,,,,,,,,,,,,,,,,,,,,,,,,,,,,,,,,,,,,,639.2752781250165,639.2813078330073,640.280156917026,641.2635841250012,641.2635841250012,641.2635841250012,642.2820639999991,left,1.009917959017912,None,,,,,,,,220243,001,2024-11-28_11h35.47.946,Test,2024.2.4,None,2024-11-28 11h35.54.875720 +0100,
19,150,90,26,None,54,54,0,False,,,,left,1.095559332985431,None,,,,,,,,,,,,,0,54,54,54,642.2962531670055,,,,,,,,,,,,,,,,,,,,,,,,,,,,,,,,,,,,,,,,,,,,,,,,,,,,,,,,,,,,,,,,,,,,,,642.2897219170118,642.2962531670055,643.2853385420167,644.2801983329991,644.2801983329991,644.2801983329991,645.3823542500031,left,1.095559332985431,None,,,,,,,,220243,001,2024-11-28_11h35.47.946,Test,2024.2.4,None,2024-11-28 11h35.54.875720 +0100,
41,150,30,34,None,55,55,0,True,,,,left,1.1374778750177938,None,,,,,,,,,,,,,0,55,55,55,645.3973035420058,,,,,,,,,,,,,,,,,,,,,,,,,,,,,,,,,,,,,,,,,,,,,,,,,,,,,,,,,,,,,,,,,,,,,,645.3910858750169,645.3973035420058,646.3853104580194,647.3799979580217,647.3799979580217,647.3799979580217,648.5223895000236,left,1.1374778750177938,None,,,,,,,,220243,001,2024-11-28_11h35.47.946,Test,2024.2.4,None,2024-11-28 11h35.54.875720 +0100,
39,150,0,56,None,56,56,0,True,,,,left,0.8952251659939066,None,,,,,,,,,,,,,0,56,56,56,648.5378139580134,,,,,,,,,,,,,,,,,,,,,,,,,,,,,,,,,,,,,,,,,,,,,,,,,,,,,,,,,,,,,,,,,,,,,,648.5306585000071,648.5378139580134,649.5354807500262,650.5210231670062,650.5210231670062,650.5210231670062,651.4214137080126,left,0.8952251659939066,None,,,,,,,,220243,001,2024-11-28_11h35.47.946,Test,2024.2.4,None,2024-11-28 11h35.54.875720 +0100,
16,150,90,49,None,57,57,0,False,,,,left,0.8729584579996299,None,,,,,,,,,,,,,0,57,57,57,651.4366236670176,,,,,,,,,,,,,,,,,,,,,,,,,,,,,,,,,,,,,,,,,,,,,,,,,,,,,,,,,,,,,,,,,,,,,,651.4299881670158,651.4366236670176,652.4345400420134,653.4207520420023,653.4207520420023,653.4207520420023,654.2995090420009,left,0.8729584579996299,None,,,,,,,,220243,001,2024-11-28_11h35.47.946,Test,2024.2.4,None,2024-11-28 11h35.54.875720 +0100,
44,150,30,53,None,58,58,0,True,,,,left,0.8299721249786671,None,,,,,,,,,,,,,0,58,58,58,654.3147172919998,,,,,,,,,,,,,,,,,,,,,,,,,,,,,,,,,,,,,,,,,,,,,,,,,,,,,,,,,,,,,,,,,,,,,,654.3084961250133,654.3147172919998,655.3136033750197,656.2968212080013,656.2968212080013,656.2968212080013,657.1326548330253,left,0.8299721249786671,None,,,,,,,,220243,001,2024-11-28_11h35.47.946,Test,2024.2.4,None,2024-11-28 11h35.54.875720 +0100,
46,150,60,4,None,59,59,0,True,,,,left,0.7882303749793209,None,,,,,,,,,,,,,0,59,59,59,657.1477874580014,,,,,,,,,,,,,,,,,,,,,,,,,,,,,,,,,,,,,,,,,,,,,,,,,,,,,,,,,,,,,,,,,,,,,,657.1418311250163,657.1477874580014,658.1348552920099,659.1303385830252,659.1303385830252,659.1303385830252,659.921727375011,left,0.7882303749793209,None,,,,,,,,220243,001,2024-11-28_11h35.47.946,Test,2024.2.4,None,2024-11-28 11h35.54.875720 +0100,
53,150,90,27,None,60,60,0,True,,,,left,0.9182102089980617,None,,,,,,,,,,,,,0,60,60,60,659.9365112500091,,,,,,,,,,,,,,,,,,,,,,,,,,,,,,,,,,,,,,,,,,,,,,,,,,,,,,,,,,,,,,,,,,,,,,659.9305973330047,659.9365112500091,660.9346809580165,661.9206690420106,661.9206690420106,661.9206690420106,662.8488457500061,left,0.9182102089980617,None,,,,,,,,220243,001,2024-11-28_11h35.47.946,Test,2024.2.4,None,2024-11-28 11h35.54.875720 +0100,
9,150,30,9,None,61,61,0,False,,,,right,0.7380732499877922,None,,,,,,,,,,,,,0,61,61,61,662.8641958750086,,,,,,,,,,,,,,,,,,,,,,,,,,,,,,,,,,,,,,,,,,,,,,,,,,,,,,,,,,,,,,,,,,,,,,662.8572240000067,662.8641958750086,663.8528807500261,664.8469464580121,664.8469464580121,664.8469464580121,665.5879093330004,right,0.7380732499877922,None,,,,,,,,220243,001,2024-11-28_11h35.47.946,Test,2024.2.4,None,2024-11-28 11h35.54.875720 +0100,
30,150,150,61,None,62,62,0,False,,,,right,0.8961853339860681,None,,,,,,,,,,,,,0,62,62,62,665.6015842080233,,,,,,,,,,,,,,,,,,,,,,,,,,,,,,,,,,,,,,,,,,,,,,,,,,,,,,,,,,,,,,,,,,,,,,665.5951240830182,665.6015842080233,666.5967775000026,667.5875038750237,667.5875038750237,667.5875038750237,668.4888266670168,right,0.8961853339860681,None,,,,,,,,220243,001,2024-11-28_11h35.47.946,Test,2024.2.4,None,2024-11-28 11h35.54.875720 +0100,
29,150,150,36,None,63,63,0,False,,,,left,0.9375084589992184,None,,,,,,,,,,,,,0,63,63,63,668.5040258750087,,,,,,,,,,,,,,,,,,,,,,,,,,,,,,,,,,,,,,,,,,,,,,,,,,,,,,,,,,,,,,,,,,,,,,668.497681125009,668.5040258750087,669.5020817080222,670.4876908330189,670.4876908330189,670.4876908330189,671.4325100830174,left,0.9375084589992184,None,,,,,,,,220243,001,2024-11-28_11h35.47.946,Test,2024.2.4,None,2024-11-28 11h35.54.875720 +0100,
33,150,180,70,None,64,64,0,False,,,,right,0.9500513329985552,None,,,,,,,,,,,,,0,64,64,64,671.4467230000009,,,,,,,,,,,,,,,,,,,,,,,,,,,,,,,,,,,,,,,,,,,,,,,,,,,,,,,,,,,,,,,,,,,,,,671.4401497080107,671.4467230000009,672.4356953329989,673.4303635000251,673.4303635000251,673.4303635000251,674.3836145829991,right,0.9500513329985552,None,,,,,,,,220243,001,2024-11-28_11h35.47.946,Test,2024.2.4,None,2024-11-28 11h35.54.875720 +0100,
11,150,60,1,None,65,65,0,False,,,,right,1.0280967080034316,None,,,,,,,,,,,,,0,65,65,65,674.3983148750267,,,,,,,,,,,,,,,,,,,,,,,,,,,,,,,,,,,,,,,,,,,,,,,,,,,,,,,,,,,,,,,,,,,,,,674.3917926250142,674.3983148750267,675.3967661670176,676.3801630000235,676.3801630000235,676.3801630000235,677.4171127920272,right,1.0280967080034316,None,,,,,,,,220243,001,2024-11-28_11h35.47.946,Test,2024.2.4,None,2024-11-28 11h35.54.875720 +0100,
10,150,30,12,None,66,66,0,False,,,,left,0.9458906670042779,None,,,,,,,,,,,,,0,66,66,66,677.4327875000017,,,,,,,,,,,,,,,,,,,,,,,,,,,,,,,,,,,,,,,,,,,,,,,,,,,,,,,,,,,,,,,,,,,,,,677.4258202080091,677.4327875000017,678.4301121669996,679.4136942920159,679.4136942920159,679.4136942920159,680.3656724580214,left,0.9458906670042779,None,,,,,,,,220243,001,2024-11-28_11h35.47.946,Test,2024.2.4,None,2024-11-28 11h35.54.875720 +0100,
7,150,30,38,None,67,67,0,False,,,,right,0.6932532500068191,None,,,,,,,,,,,,,0,67,67,67,680.3810928750027,,,,,,,,,,,,,,,,,,,,,,,,,,,,,,,,,,,,,,,,,,,,,,,,,,,,,,,,,,,,,,,,,,,,,,680.3740551670198,680.3810928750027,681.3680217920046,682.3634905420186,682.3634905420186,682.3634905420186,683.0656098330219,right,0.6932532500068191,None,,,,,,,,220243,001,2024-11-28_11h35.47.946,Test,2024.2.4,None,2024-11-28 11h35.54.875720 +0100,
2,150,0,47,None,68,68,0,False,,,,left,0.970338459010236,None,,,,,,,,,,,,,0,68,68,68,683.0810081250092,,,,,,,,,,,,,,,,,,,,,,,,,,,,,,,,,,,,,,,,,,,,,,,,,,,,,,,,,,,,,,,,,,,,,,683.0744017079996,683.0810081250092,684.0687071670254,685.0636242500041,685.0636242500041,685.0636242500041,686.0379475000082,left,0.970338459010236,None,,,,,,,,220243,001,2024-11-28_11h35.47.946,Test,2024.2.4,None,2024-11-28 11h35.54.875720 +0100,
42,150,30,15,None,69,69,0,True,,,,left,1.023282666981686,None,,,,,,,,,,,,,0,69,69,69,686.052593542001,,,,,,,,,,,,,,,,,,,,,,,,,,,,,,,,,,,,,,,,,,,,,,,,,,,,,,,,,,,,,,,,,,,,,,686.0462151670072,686.052593542001,687.0469520420011,688.0372562080156,688.0372562080156,688.0372562080156,689.0659492500126,left,1.023282666981686,None,,,,,,,,220243,001,2024-11-28_11h35.47.946,Test,2024.2.4,None,2024-11-28 11h35.54.875720 +0100,
,,,,,,,,,,,,,,,,,,,,,,,,,,,,,,,,,,,,,,,,,,,,,,,,,,,,,,,,,,,,,,,,,,,,,,,,,,,,,,,,,,,,,,,,,,,,,,,,,,,,,,,,,,,,,,,689.0663677920238,689.0755459580105,689.0755459580105,695.0048015000066,space,5.925667417002842,None,220243,001,2024-11-28_11h35.47.946,Test,2024.2.4,None,2024-11-28 11h35.54.875720 +0100,
