Trial_Number,Exposure_Duration,Displacement_Angle,Stimulus,Response,thisN,thisTrialN,thisRepN,Is_Distractor,key_resp_3.keys,key_resp_3.rt,key_resp_3.duration,key_resp_7.keys,key_resp_7.rt,key_resp_7.duration,trials.thisRepN,trials.thisTrialN,trials.thisN,trials.thisIndex,trials_2.thisRepN,trials_2.thisTrialN,trials_2.thisN,trials_2.thisIndex,trials_3.thisRepN,trials_3.thisTrialN,trials_3.thisN,trials_3.thisIndex,trials_4.thisRepN,trials_4.thisTrialN,trials_4.thisN,trials_4.thisIndex,thisRow.t,notes,Intro_to_experiment.started,important1_2.started,key_resp_8.started,Intro_to_experiment.stopped,key_resp_8.keys,key_resp_8.rt,key_resp_8.duration,important.started,important1.started,key_resp_4.started,important.stopped,key_resp_4.keys,key_resp_4.rt,key_resp_4.duration,instruction.started,text_7.started,key_resp_9.started,instruction.stopped,key_resp_9.keys,key_resp_9.rt,key_resp_9.duration,training_trial.started,cross.started,image.started,aperture.started,cross.stopped,image.stopped,aperture.stopped,training_trial.stopped,New_instruction.started,text.started,key_resp_2.started,New_instruction.stopped,key_resp_2.keys,key_resp_2.rt,key_resp_2.duration,test_trial.started,cross2.started,cross2.stopped,image_2.started,key_resp_3.started,aperture_2.started,test_trial.stopped,trials_2.key_resp_3.keys,trials_2.key_resp_3.rt,trials_2.key_resp_3.duration,text_3.started,image_2.stopped,aperture_2.stopped,start_blok_2.started,key_resp_5.started,text_4.started,start_blok_2.stopped,key_resp_5.keys,key_resp_5.rt,key_resp_5.duration,training_2.started,cross_2.started,image_3.started,aperture_3.started,cross_2.stopped,image_3.stopped,aperture_3.stopped,training_2.stopped,nyeste_instruks.started,text_5.started,key_resp_6.started,nyeste_instruks.stopped,key_resp_6.keys,key_resp_6.rt,key_resp_6.duration,test_2.started,cross2_2.started,cross2_2.stopped,image_4.started,key_resp_7.started,aperture_4.started,test_2.stopped,trials_4.key_resp_7.keys,trials_4.key_resp_7.rt,trials_4.key_resp_7.duration,image_4.stopped,text_6.started,aperture_4.stopped,Instruction1.started,Instruktion.started,key_resp.started,Instruction1.stopped,key_resp.keys,key_resp.rt,key_resp.duration,participant,session,date,expName,psychopyVersion,frameRate,expStart,
,,,,,,,,,,,,,,,,,,,,,,,,,,,,,,,,,0.008846879994962364,0.024402522001764737,0.024402522001764737,17.98107250299654,space,17.92736015000264,None,,,,,,,,,,,,,,,,,,,,,,,,,,,,,,,,,,,,,,,,,,,,,,,,,,,,,,,,,,,,,,,,,,,,,,,,,,,,,,,,,,,,,238584,001,2024-12-03_12h26.55.303,Test,2024.2.1,59.589359948100395,2024-12-03 12h27.08.532035 +0100,
,,,,,,,,,,,,,,,,,,,,,,,,,,,,,,,,,,,,,,,,17.98114372800046,18.009402497002156,18.009402497002156,47.45572442100092,space,29.429584788013017,None,,,,,,,,,,,,,,,,,,,,,,,,,,,,,,,,,,,,,,,,,,,,,,,,,,,,,,,,,,,,,,,,,,,,,,,,,,,,,,238584,001,2024-12-03_12h26.55.303,Test,2024.2.1,59.589359948100395,2024-12-03 12h27.08.532035 +0100,
,,,,,,,,,,,,,,,,,,,,,,,,,,,,,,,,,,,,,,,,,,,,,,,47.45578345100512,47.48618945499766,47.48618945499766,58.989964919004706,space,11.488189636991592,None,,,,,,,,,,,,,,,,,,,,,,,,,,,,,,,,,,,,,,,,,,,,,,,,,,,,,,,,,,,,,,,,,,,,,,,238584,001,2024-12-03_12h26.55.303,Test,2024.2.1,59.589359948100395,2024-12-03 12h27.08.532035 +0100,
2,150,0,11,None,0,0,0,,,,,,,,0,0,0,1,,,,,,,,,,,,,59.083799710002495,,,,,,,,,,,,,,,,,,,,,,,59.07358394000039,59.083799710002495,59.204927560000215,59.204927560000215,59.28838430000178,60.90761194299557,60.90761194299557,60.88931246800348,,,,,,,,,,,,,,,,,,,,,,,,,,,,,,,,,,,,,,,,,,,,,,,,,,,,,,,,,,,,,,,238584,001,2024-12-03_12h26.55.303,Test,2024.2.1,59.589359948100395,2024-12-03 12h27.08.532035 +0100,
9,150,30,19,None,1,1,0,,,,,,,,0,1,1,8,,,,,,,,,,,,,60.90761194299557,,,,,,,,,,,,,,,,,,,,,,,60.899668133002706,60.90761194299557,61.1047373850015,61.1047373850015,61.12150239000039,62.80747469999187,62.80747469999187,62.78920685799676,,,,,,,,,,,,,,,,,,,,,,,,,,,,,,,,,,,,,,,,,,,,,,,,,,,,,,,,,,,,,,,238584,001,2024-12-03_12h26.55.303,Test,2024.2.1,59.589359948100395,2024-12-03 12h27.08.532035 +0100,
16,150,90,18,None,2,2,0,,,,,,,,0,2,2,15,,,,,,,,,,,,,62.80747469999187,,,,,,,,,,,,,,,,,,,,,,,62.79719728400232,62.80747469999187,63.0052132599958,63.0052132599958,63.022261692996835,64.70599870299338,64.70599870299338,64.68920734299172,,,,,,,,,,,,,,,,,,,,,,,,,,,,,,,,,,,,,,,,,,,,,,,,,,,,,,,,,,,,,,,238584,001,2024-12-03_12h26.55.303,Test,2024.2.1,59.589359948100395,2024-12-03 12h27.08.532035 +0100,
18,150,90,29,None,3,3,0,,,,,,,,0,3,3,17,,,,,,,,,,,,,64.70599870299338,,,,,,,,,,,,,,,,,,,,,,,64.69791006299783,64.70599870299338,64.90544140800193,64.90544140800193,64.90544140800193,66.60561668500304,66.60561668500304,66.58999031300482,,,,,,,,,,,,,,,,,,,,,,,,,,,,,,,,,,,,,,,,,,,,,,,,,,,,,,,,,,,,,,,238584,001,2024-12-03_12h26.55.303,Test,2024.2.1,59.589359948100395,2024-12-03 12h27.08.532035 +0100,
7,150,30,63,None,4,4,0,,,,,,,,0,4,4,6,,,,,,,,,,,,,66.60561668500304,,,,,,,,,,,,,,,,,,,,,,,66.59729562100256,66.60561668500304,66.80519091799215,66.80519091799215,66.80519091799215,68.50478533399291,68.50478533399291,68.490232518001,,,,,,,,,,,,,,,,,,,,,,,,,,,,,,,,,,,,,,,,,,,,,,,,,,,,,,,,,,,,,,,238584,001,2024-12-03_12h26.55.303,Test,2024.2.1,59.589359948100395,2024-12-03 12h27.08.532035 +0100,
15,150,60,65,None,5,5,0,,,,,,,,0,5,5,14,,,,,,,,,,,,,68.50478533399291,,,,,,,,,,,,,,,,,,,,,,,68.49608237600478,68.50478533399291,68.68811446000473,68.68811446000473,68.70511674099544,70.38853876199573,70.38853876199573,70.37296853899898,,,,,,,,,,,,,,,,,,,,,,,,,,,,,,,,,,,,,,,,,,,,,,,,,,,,,,,,,,,,,,,238584,001,2024-12-03_12h26.55.303,Test,2024.2.1,59.589359948100395,2024-12-03 12h27.08.532035 +0100,
22,150,120,59,None,6,6,0,,,,,,,,0,6,6,21,,,,,,,,,,,,,70.38853876199573,,,,,,,,,,,,,,,,,,,,,,,70.37978121799824,70.40572086599423,70.60549322600127,70.60549322600127,70.60549322600127,,,72.40503742700093,,,,,,,,,,,,,,,,,,,,,,,,,,,,,,,,,,,,,,,,,,,,,,,,,,,,,,,,,,,,,,,238584,001,2024-12-03_12h26.55.303,Test,2024.2.1,59.589359948100395,2024-12-03 12h27.08.532035 +0100,
6,150,30,49,None,7,7,0,,,,,,,,0,7,7,5,,,,,,,,,,,,,72.44816795400402,,,,,,,,,,,,,,,,,,,,,,,72.41295950999483,72.44816795400402,72.52622083599272,72.52622083599272,72.65575784200337,,,74.20590608699422,,,,,,,,,,,,,,,,,,,,,,,,,,,,,,,,,,,,,,,,,,,,,,,,,,,,,,,,,,,,,,,238584,001,2024-12-03_12h26.55.303,Test,2024.2.1,59.589359948100395,2024-12-03 12h27.08.532035 +0100,
30,150,150,12,None,8,8,0,,,,,,,,0,8,8,29,,,,,,,,,,,,,74.22263392899185,,,,,,,,,,,,,,,,,,,,,,,74.21203638300358,74.22263392899185,74.38901810400421,74.38901810400421,74.4223586589942,76.08916927500104,76.08916927500104,76.07327499399253,,,,,,,,,,,,,,,,,,,,,,,,,,,,,,,,,,,,,,,,,,,,,,,,,,,,,,,,,,,,,,,238584,001,2024-12-03_12h26.55.303,Test,2024.2.1,59.589359948100395,2024-12-03 12h27.08.532035 +0100,
3,150,0,45,None,9,9,0,,,,,,,,0,9,9,2,,,,,,,,,,,,,76.08916927500104,,,,,,,,,,,,,,,,,,,,,,,76.07914367500052,76.08916927500104,76.30566370900488,76.30566370900488,76.28905813899473,78.00609809800517,78.00609809800517,77.9899856379925,,,,,,,,,,,,,,,,,,,,,,,,,,,,,,,,,,,,,,,,,,,,,,,,,,,,,,,,,,,,,,,238584,001,2024-12-03_12h26.55.303,Test,2024.2.1,59.589359948100395,2024-12-03 12h27.08.532035 +0100,
29,150,150,25,None,10,10,0,,,,,,,,0,10,10,28,,,,,,,,,,,,,78.00609809800517,,,,,,,,,,,,,,,,,,,,,,,77.9961209710018,78.00609809800517,78.18934121199709,78.18934121199709,78.20637213200098,79.88956080199569,79.88956080199569,79.87366908699914,,,,,,,,,,,,,,,,,,,,,,,,,,,,,,,,,,,,,,,,,,,,,,,,,,,,,,,,,,,,,,,238584,001,2024-12-03_12h26.55.303,Test,2024.2.1,59.589359948100395,2024-12-03 12h27.08.532035 +0100,
24,150,120,7,None,11,11,0,,,,,,,,0,11,11,23,,,,,,,,,,,,,79.88956080199569,,,,,,,,,,,,,,,,,,,,,,,79.87934757200128,79.88956080199569,80.08972930800519,80.08972930800519,80.08972930800519,81.78966904200206,81.78966904200206,81.77410273799615,,,,,,,,,,,,,,,,,,,,,,,,,,,,,,,,,,,,,,,,,,,,,,,,,,,,,,,,,,,,,,,238584,001,2024-12-03_12h26.55.303,Test,2024.2.1,59.589359948100395,2024-12-03 12h27.08.532035 +0100,
32,150,180,57,None,12,12,0,,,,,,,,0,12,12,31,,,,,,,,,,,,,81.78966904200206,,,,,,,,,,,,,,,,,,,,,,,81.78170935899834,81.78966904200206,81.98951863599359,81.98951863599359,81.98951863599359,83.6930645579996,83.6930645579996,83.67497532599373,,,,,,,,,,,,,,,,,,,,,,,,,,,,,,,,,,,,,,,,,,,,,,,,,,,,,,,,,,,,,,,238584,001,2024-12-03_12h26.55.303,Test,2024.2.1,59.589359948100395,2024-12-03 12h27.08.532035 +0100,
13,150,60,70,None,13,13,0,,,,,,,,0,13,13,12,,,,,,,,,,,,,83.6930645579996,,,,,,,,,,,,,,,,,,,,,,,83.68473335099407,83.6930645579996,83.88968761499564,83.88968761499564,83.90669869599515,85.58995693799807,85.58995693799807,85.57395351499144,,,,,,,,,,,,,,,,,,,,,,,,,,,,,,,,,,,,,,,,,,,,,,,,,,,,,,,,,,,,,,,238584,001,2024-12-03_12h26.55.303,Test,2024.2.1,59.589359948100395,2024-12-03 12h27.08.532035 +0100,
33,150,180,27,None,14,14,0,,,,,,,,0,14,14,32,,,,,,,,,,,,,85.58995693799807,,,,,,,,,,,,,,,,,,,,,,,85.57958591099305,85.58995693799807,85.78996013299911,85.78996013299911,85.78996013299911,87.4895784429973,87.4895784429973,87.47437356300361,,,,,,,,,,,,,,,,,,,,,,,,,,,,,,,,,,,,,,,,,,,,,,,,,,,,,,,,,,,,,,,238584,001,2024-12-03_12h26.55.303,Test,2024.2.1,59.589359948100395,2024-12-03 12h27.08.532035 +0100,
19,150,90,9,None,15,15,0,,,,,,,,0,15,15,18,,,,,,,,,,,,,87.4895784429973,,,,,,,,,,,,,,,,,,,,,,,87.48057907000475,87.4895784429973,87.69022878199758,87.69022878199758,87.69022878199758,89.39027281200106,89.39027281200106,89.37444575599511,,,,,,,,,,,,,,,,,,,,,,,,,,,,,,,,,,,,,,,,,,,,,,,,,,,,,,,,,,,,,,,238584,001,2024-12-03_12h26.55.303,Test,2024.2.1,59.589359948100395,2024-12-03 12h27.08.532035 +0100,
12,150,60,20,None,16,16,0,,,,,,,,0,16,16,11,,,,,,,,,,,,,89.39027281200106,,,,,,,,,,,,,,,,,,,,,,,89.38066796399653,89.39027281200106,89.59086968700285,89.59086968700285,89.59086968700285,91.28986338399409,91.28986338399409,91.27452569299203,,,,,,,,,,,,,,,,,,,,,,,,,,,,,,,,,,,,,,,,,,,,,,,,,,,,,,,,,,,,,,,238584,001,2024-12-03_12h26.55.303,Test,2024.2.1,59.589359948100395,2024-12-03 12h27.08.532035 +0100,
1,150,0,58,None,17,17,0,,,,,,,,0,17,17,0,,,,,,,,,,,,,91.28986338399409,,,,,,,,,,,,,,,,,,,,,,,91.28150435400312,91.28986338399409,91.49039961700328,91.49039961700328,91.49039961700328,93.19410554399656,93.19410554399656,93.1756458519958,,,,,,,,,,,,,,,,,,,,,,,,,,,,,,,,,,,,,,,,,,,,,,,,,,,,,,,,,,,,,,,238584,001,2024-12-03_12h26.55.303,Test,2024.2.1,59.589359948100395,2024-12-03 12h27.08.532035 +0100,
21,150,120,60,None,18,18,0,,,,,,,,0,18,18,20,,,,,,,,,,,,,93.19410554399656,,,,,,,,,,,,,,,,,,,,,,,93.18567682299181,93.19410554399656,93.39120040700072,93.39120040700072,93.40746349999972,95.09012448899739,95.09012448899739,95.07457971799886,,,,,,,,,,,,,,,,,,,,,,,,,,,,,,,,,,,,,,,,,,,,,,,,,,,,,,,,,,,,,,,238584,001,2024-12-03_12h26.55.303,Test,2024.2.1,59.589359948100395,2024-12-03 12h27.08.532035 +0100,
26,150,150,37,None,19,19,0,,,,,,,,0,19,19,25,,,,,,,,,,,,,95.09012448899739,,,,,,,,,,,,,,,,,,,,,,,95.08150688199385,95.09012448899739,95.29016205899825,95.29016205899825,95.29016205899825,96.99023878500157,96.99023878500157,96.97455338199507,,,,,,,,,,,,,,,,,,,,,,,,,,,,,,,,,,,,,,,,,,,,,,,,,,,,,,,,,,,,,,,238584,001,2024-12-03_12h26.55.303,Test,2024.2.1,59.589359948100395,2024-12-03 12h27.08.532035 +0100,
4,150,0,44,None,20,20,0,,,,,,,,0,20,20,3,,,,,,,,,,,,,96.99023878500157,,,,,,,,,,,,,,,,,,,,,,,96.98045739000372,96.99023878500157,97.19058517999656,97.19058517999656,97.19058517999656,98.89061010300065,98.89061010300065,98.87558031300432,,,,,,,,,,,,,,,,,,,,,,,,,,,,,,,,,,,,,,,,,,,,,,,,,,,,,,,,,,,,,,,238584,001,2024-12-03_12h26.55.303,Test,2024.2.1,59.589359948100395,2024-12-03 12h27.08.532035 +0100,
8,150,30,26,None,21,21,0,,,,,,,,0,21,21,7,,,,,,,,,,,,,98.89061010300065,,,,,,,,,,,,,,,,,,,,,,,98.88254215300549,98.89061010300065,99.09099569299724,99.09099569299724,99.09099569299724,100.79048381300527,100.79048381300527,100.7749544059916,,,,,,,,,,,,,,,,,,,,,,,,,,,,,,,,,,,,,,,,,,,,,,,,,,,,,,,,,,,,,,,238584,001,2024-12-03_12h26.55.303,Test,2024.2.1,59.589359948100395,2024-12-03 12h27.08.532035 +0100,
27,150,150,13,None,22,22,0,,,,,,,,0,22,22,26,,,,,,,,,,,,,100.79048381300527,,,,,,,,,,,,,,,,,,,,,,,100.78090349500417,100.79048381300527,100.9901602530008,100.9901602530008,100.9901602530008,102.69095458899392,102.69095458899392,102.67527195399452,,,,,,,,,,,,,,,,,,,,,,,,,,,,,,,,,,,,,,,,,,,,,,,,,,,,,,,,,,,,,,,238584,001,2024-12-03_12h26.55.303,Test,2024.2.1,59.589359948100395,2024-12-03 12h27.08.532035 +0100,
10,150,30,39,None,23,23,0,,,,,,,,0,23,23,9,,,,,,,,,,,,,102.69095458899392,,,,,,,,,,,,,,,,,,,,,,,102.68262088899792,102.69095458899392,102.89107577399409,102.89107577399409,102.89107577399409,104.59071162600594,104.59071162600594,104.57557362300577,,,,,,,,,,,,,,,,,,,,,,,,,,,,,,,,,,,,,,,,,,,,,,,,,,,,,,,,,,,,,,,238584,001,2024-12-03_12h26.55.303,Test,2024.2.1,59.589359948100395,2024-12-03 12h27.08.532035 +0100,
20,150,90,5,None,24,24,0,,,,,,,,0,24,24,19,,,,,,,,,,,,,104.59071162600594,,,,,,,,,,,,,,,,,,,,,,,104.58182183599274,104.59071162600594,104.7917679509992,104.7917679509992,104.7917679509992,106.49173129099654,106.49173129099654,106.4759437909961,,,,,,,,,,,,,,,,,,,,,,,,,,,,,,,,,,,,,,,,,,,,,,,,,,,,,,,,,,,,,,,238584,001,2024-12-03_12h26.55.303,Test,2024.2.1,59.589359948100395,2024-12-03 12h27.08.532035 +0100,
35,150,180,4,None,25,25,0,,,,,,,,0,25,25,34,,,,,,,,,,,,,106.49173129099654,,,,,,,,,,,,,,,,,,,,,,,106.48165728399181,106.49173129099654,106.69172399099625,106.69172399099625,106.69172399099625,108.3956737099943,108.3956737099943,108.37562801399326,,,,,,,,,,,,,,,,,,,,,,,,,,,,,,,,,,,,,,,,,,,,,,,,,,,,,,,,,,,,,,,238584,001,2024-12-03_12h26.55.303,Test,2024.2.1,59.589359948100395,2024-12-03 12h27.08.532035 +0100,
31,150,180,23,None,26,26,0,,,,,,,,0,26,26,30,,,,,,,,,,,,,108.3956737099943,,,,,,,,,,,,,,,,,,,,,,,108.38907804599148,108.3956737099943,108.59189496400359,108.59189496400359,108.60837189700396,110.30217304899998,110.30217304899998,110.28177297899674,,,,,,,,,,,,,,,,,,,,,,,,,,,,,,,,,,,,,,,,,,,,,,,,,,,,,,,,,,,,,,,238584,001,2024-12-03_12h26.55.303,Test,2024.2.1,59.589359948100395,2024-12-03 12h27.08.532035 +0100,
5,150,0,52,None,27,27,0,,,,,,,,0,27,27,4,,,,,,,,,,,,,110.30217304899998,,,,,,,,,,,,,,,,,,,,,,,110.2891346700053,110.30217304899998,110.49175499400008,110.49175499400008,110.50842427200405,112.19133927699295,112.19133927699295,112.17689124100434,,,,,,,,,,,,,,,,,,,,,,,,,,,,,,,,,,,,,,,,,,,,,,,,,,,,,,,,,,,,,,,238584,001,2024-12-03_12h26.55.303,Test,2024.2.1,59.589359948100395,2024-12-03 12h27.08.532035 +0100,
34,150,180,68,None,28,28,0,,,,,,,,0,28,28,33,,,,,,,,,,,,,112.19133927699295,,,,,,,,,,,,,,,,,,,,,,,112.18287816399243,112.19133927699295,112.39197598499595,112.39197598499595,112.39197598499595,114.09652868300327,114.09652868300327,114.0775680020015,,,,,,,,,,,,,,,,,,,,,,,,,,,,,,,,,,,,,,,,,,,,,,,,,,,,,,,,,,,,,,,238584,001,2024-12-03_12h26.55.303,Test,2024.2.1,59.589359948100395,2024-12-03 12h27.08.532035 +0100,
23,150,120,1,None,29,29,0,,,,,,,,0,29,29,22,,,,,,,,,,,,,114.09652868300327,,,,,,,,,,,,,,,,,,,,,,,114.08802290300082,114.09652868300327,114.29182515200227,114.29182515200227,114.29182515200227,115.99210735999804,115.99210735999804,115.97676951800531,,,,,,,,,,,,,,,,,,,,,,,,,,,,,,,,,,,,,,,,,,,,,,,,,,,,,,,,,,,,,,,238584,001,2024-12-03_12h26.55.303,Test,2024.2.1,59.589359948100395,2024-12-03 12h27.08.532035 +0100,
28,150,150,42,None,30,30,0,,,,,,,,0,30,30,27,,,,,,,,,,,,,115.99210735999804,,,,,,,,,,,,,,,,,,,,,,,115.98249716300052,115.99210735999804,116.19258128499496,116.19258128499496,116.19258128499496,117.89231932999974,117.89231932999974,117.87614972499432,,,,,,,,,,,,,,,,,,,,,,,,,,,,,,,,,,,,,,,,,,,,,,,,,,,,,,,,,,,,,,,238584,001,2024-12-03_12h26.55.303,Test,2024.2.1,59.589359948100395,2024-12-03 12h27.08.532035 +0100,
11,150,60,54,None,31,31,0,,,,,,,,0,31,31,10,,,,,,,,,,,,,117.89231932999974,,,,,,,,,,,,,,,,,,,,,,,117.88257571899157,117.89231932999974,118.09247816099378,118.09247816099378,118.09247816099378,119.79308942500211,119.79308942500211,119.77696410000499,,,,,,,,,,,,,,,,,,,,,,,,,,,,,,,,,,,,,,,,,,,,,,,,,,,,,,,,,,,,,,,238584,001,2024-12-03_12h26.55.303,Test,2024.2.1,59.589359948100395,2024-12-03 12h27.08.532035 +0100,
14,150,60,3,None,32,32,0,,,,,,,,0,32,32,13,,,,,,,,,,,,,119.79308942500211,,,,,,,,,,,,,,,,,,,,,,,119.78492306800035,119.79308942500211,119.9928552640049,119.9928552640049,119.9928552640049,121.6928416879964,121.6928416879964,121.67587684700266,,,,,,,,,,,,,,,,,,,,,,,,,,,,,,,,,,,,,,,,,,,,,,,,,,,,,,,,,,,,,,,238584,001,2024-12-03_12h26.55.303,Test,2024.2.1,59.589359948100395,2024-12-03 12h27.08.532035 +0100,
25,150,120,66,None,33,33,0,,,,,,,,0,33,33,24,,,,,,,,,,,,,121.6928416879964,,,,,,,,,,,,,,,,,,,,,,,121.6808311670029,121.6928416879964,121.89266443300585,121.89266443300585,121.89266443300585,123.59214647699264,123.59214647699264,123.57656894199317,,,,,,,,,,,,,,,,,,,,,,,,,,,,,,,,,,,,,,,,,,,,,,,,,,,,,,,,,,,,,,,238584,001,2024-12-03_12h26.55.303,Test,2024.2.1,59.589359948100395,2024-12-03 12h27.08.532035 +0100,
17,150,90,46,None,34,34,0,,,,,,,,0,34,34,16,,,,,,,,,,,,,123.59214647699264,,,,,,,,,,,,,,,,,,,,,,,123.58248749199265,123.59214647699264,123.79270159899897,123.79270159899897,123.79270159899897,125.49264895399392,125.49264895399392,125.47686523399898,,,,,,,,,,,,,,,,,,,,,,,,,,,,,,,,,,,,,,,,,,,,,,,,,,,,,,,,,,,,,,,238584,001,2024-12-03_12h26.55.303,Test,2024.2.1,59.589359948100395,2024-12-03 12h27.08.532035 +0100,
,,,,,,,,,,,,,,,,,,,,,,,,,,,,,,,,,,,,,,,,,,,,,,,,,,,,,,,,,,,,,,125.4770158189931,125.49264895399392,125.49264895399392,137.96154363499954,space,12.45884170899808,None,,,,,,,,,,,,,,,,,,,,,,,,,,,,,,,,,,,,,,,,,,,,,,,,,,,,,,,,238584,001,2024-12-03_12h26.55.303,Test,2024.2.1,59.589359948100395,2024-12-03 12h27.08.532035 +0100,
39,150,0,53,None,0,0,0,True,left,0.8855938100023195,None,,,,,,,,0,0,0,0,,,,,,,,,137.99866586799908,,,,,,,,,,,,,,,,,,,,,,,,,,,,,,,,,,,,,,137.98814967299404,137.99866586799908,139.01074799300113,139.97688124500564,139.97688124500564,139.97688124500564,140.87823413900333,left,0.8855938100023195,None,,,,,,,,,,,,,,,,,,,,,,,,,,,,,,,,,,,,,,,,,,,,,,238584,001,2024-12-03_12h26.55.303,Test,2024.2.1,59.589359948100395,2024-12-03 12h27.08.532035 +0100,
1,150,0,58,None,1,1,0,False,right,0.8384813769953325,None,,,,,,,,0,1,1,1,,,,,,,,,140.94697570300195,,,,,,,,,,,,,,,,,,,,,,,,,,,,,,,,,,,,,,140.88417500899232,140.94697570300195,141.96041546900233,142.87715282100544,142.87715282100544,142.87715282100544,143.7287248359935,right,0.8384813769953325,None,,,,,,,,,,,,,,,,,,,,,,,,,,,,,,,,,,,,,,,,,,,,,,238584,001,2024-12-03_12h26.55.303,Test,2024.2.1,59.589359948100395,2024-12-03 12h27.08.532035 +0100,
29,150,150,25,None,2,2,0,False,right,0.8508707790024346,None,,,,,,,,0,2,2,2,,,,,,,,,143.7434414159943,,,,,,,,,,,,,,,,,,,,,,,,,,,,,,,,,,,,,,143.73436610899807,143.7434414159943,144.7449716389965,145.7446025120007,145.7446025120007,145.7446025120007,146.61289257899625,right,0.8508707790024346,None,,,,,,,,,,,,,,,,,,,,,,,,,,,,,,,,,,,,,,,,,,,,,,238584,001,2024-12-03_12h26.55.303,Test,2024.2.1,59.589359948100395,2024-12-03 12h27.08.532035 +0100,
24,150,120,7,None,3,3,0,False,right,1.789732608012855,None,,,,,,,,0,3,3,3,,,,,,,,,146.62740938199568,,,,,,,,,,,,,,,,,,,,,,,,,,,,,,,,,,,,,,146.61845291100326,146.62740938199568,147.62771986899315,148.6276058920048,148.6276058920048,148.6276058920048,150.42982706999464,right,1.789732608012855,None,,,,,,,,,,,,,,,,,,,,,,,,,,,,,,,,,,,,,,,,,,,,,,238584,001,2024-12-03_12h26.55.303,Test,2024.2.1,59.589359948100395,2024-12-03 12h27.08.532035 +0100,
65,150,150,69,None,4,4,0,True,left,2.3900189889973262,None,,,,,,,,0,4,4,4,,,,,,,,,150.44551565700385,,,,,,,,,,,,,,,,,,,,,,,,,,,,,,,,,,,,,,150.4360777450056,150.44551565700385,151.46128818800207,152.44485532499675,152.44485532499675,152.44485532499675,154.84686332500132,left,2.3900189889973262,None,,,,,,,,,,,,,,,,,,,,,,,,,,,,,,,,,,,,,,,,,,,,,,238584,001,2024-12-03_12h26.55.303,Test,2024.2.1,59.589359948100395,2024-12-03 12h27.08.532035 +0100,
2,150,0,11,None,5,5,0,False,right,1.8195290839939844,None,,,,,,,,0,5,5,5,,,,,,,,,154.8620040359965,,,,,,,,,,,,,,,,,,,,,,,,,,,,,,,,,,,,,,154.85273984799278,154.8620040359965,155.86226695300138,156.86158541799523,156.86158541799523,156.86158541799523,158.6974552009924,right,1.8195290839939844,None,,,,,,,,,,,,,,,,,,,,,,,,,,,,,,,,,,,,,,,,,,,,,,238584,001,2024-12-03_12h26.55.303,Test,2024.2.1,59.589359948100395,2024-12-03 12h27.08.532035 +0100,
20,150,90,5,None,6,6,0,False,left,0.976947802992072,None,,,,,,,,0,6,6,6,,,,,,,,,158.712943438004,,,,,,,,,,,,,,,,,,,,,,,,,,,,,,,,,,,,,,158.70343585799856,158.712943438004,159.71194555699185,160.71238809799252,160.71238809799252,160.71238809799252,161.697923781001,left,0.976947802992072,None,,,,,,,,,,,,,,,,,,,,,,,,,,,,,,,,,,,,,,,,,,,,,,238584,001,2024-12-03_12h26.55.303,Test,2024.2.1,59.589359948100395,2024-12-03 12h27.08.532035 +0100,
58,150,120,10,None,7,7,0,True,left,1.0528405039949575,None,,,,,,,,0,7,7,7,,,,,,,,,161.71204559599573,,,,,,,,,,,,,,,,,,,,,,,,,,,,,,,,,,,,,,161.70297175800079,161.71204559599573,162.71243010599574,163.71254930000578,163.71254930000578,163.71254930000578,164.78088981399196,left,1.0528405039949575,None,,,,,,,,,,,,,,,,,,,,,,,,,,,,,,,,,,,,,,,,,,,,,,238584,001,2024-12-03_12h26.55.303,Test,2024.2.1,59.589359948100395,2024-12-03 12h27.08.532035 +0100,
23,150,120,1,None,8,8,0,False,right,1.3014462589926552,None,,,,,,,,0,8,8,8,,,,,,,,,164.79663730699394,,,,,,,,,,,,,,,,,,,,,,,,,,,,,,,,,,,,,,164.78727450600127,164.79663730699394,165.7961195300013,166.79579076799564,166.79579076799564,166.79579076799564,168.1136379279924,right,1.3014462589926552,None,,,,,,,,,,,,,,,,,,,,,,,,,,,,,,,,,,,,,,,,,,,,,,238584,001,2024-12-03_12h26.55.303,Test,2024.2.1,59.589359948100395,2024-12-03 12h27.08.532035 +0100,
3,150,0,45,None,9,9,0,False,left,1.7056016380083747,None,,,,,,,,0,9,9,9,,,,,,,,,168.12939787399955,,,,,,,,,,,,,,,,,,,,,,,,,,,,,,,,,,,,,,168.12042532900523,168.12939787399955,169.1290387629997,170.11250051599927,170.11250051599927,170.11250051599927,171.8309967230016,left,1.7056016380083747,None,,,,,,,,,,,,,,,,,,,,,,,,,,,,,,,,,,,,,,,,,,,,,,238584,001,2024-12-03_12h26.55.303,Test,2024.2.1,59.589359948100395,2024-12-03 12h27.08.532035 +0100,
21,150,120,60,None,10,10,0,False,left,1.0242259509977885,None,,,,,,,,0,10,10,10,,,,,,,,,171.84650534500543,,,,,,,,,,,,,,,,,,,,,,,,,,,,,,,,,,,,,,171.83757520699874,171.84650534500543,172.84635425500164,173.8306204200053,173.8306204200053,173.8306204200053,174.86462927400135,left,1.0242259509977885,None,,,,,,,,,,,,,,,,,,,,,,,,,,,,,,,,,,,,,,,,,,,,,,238584,001,2024-12-03_12h26.55.303,Test,2024.2.1,59.589359948100395,2024-12-03 12h27.08.532035 +0100,
36,150,0,67,None,11,11,0,True,left,0.8718630999937886,None,,,,,,,,0,11,11,11,,,,,,,,,174.87992707900412,,,,,,,,,,,,,,,,,,,,,,,,,,,,,,,,,,,,,,174.87058881900157,174.87992707900412,175.87913727399427,176.87994835300196,176.87994835300196,176.87994835300196,177.76472128699243,left,0.8718630999937886,None,,,,,,,,,,,,,,,,,,,,,,,,,,,,,,,,,,,,,,,,,,,,,,238584,001,2024-12-03_12h26.55.303,Test,2024.2.1,59.589359948100395,2024-12-03 12h27.08.532035 +0100,
52,150,90,56,None,12,12,0,True,left,1.9305433010013076,None,,,,,,,,0,12,12,12,,,,,,,,,177.781289955994,,,,,,,,,,,,,,,,,,,,,,,,,,,,,,,,,,,,,,177.77191175600456,177.781289955994,178.79710605699802,179.77998912900512,179.77998912900512,179.77998912900512,181.71546716800367,left,1.9305433010013076,None,,,,,,,,,,,,,,,,,,,,,,,,,,,,,,,,,,,,,,,,,,,,,,238584,001,2024-12-03_12h26.55.303,Test,2024.2.1,59.589359948100395,2024-12-03 12h27.08.532035 +0100,
55,150,90,32,None,13,13,0,True,left,1.8175192799972137,None,,,,,,,,0,13,13,13,,,,,,,,,181.7298659819935,,,,,,,,,,,,,,,,,,,,,,,,,,,,,,,,,,,,,,181.72085000999505,181.7298659819935,182.73043311899528,183.73019470500003,183.73019470500003,183.73019470500003,185.5644504160009,left,1.8175192799972137,None,,,,,,,,,,,,,,,,,,,,,,,,,,,,,,,,,,,,,,,,,,,,,,238584,001,2024-12-03_12h26.55.303,Test,2024.2.1,59.589359948100395,2024-12-03 12h27.08.532035 +0100,
4,150,0,44,None,14,14,0,False,left,1.0846250709873857,None,,,,,,,,0,14,14,14,,,,,,,,,185.5799923930026,,,,,,,,,,,,,,,,,,,,,,,,,,,,,,,,,,,,,,185.57012965499598,185.5799923930026,186.58078598200518,187.56369285700202,187.56369285700202,187.56369285700202,188.66610387800029,left,1.0846250709873857,None,,,,,,,,,,,,,,,,,,,,,,,,,,,,,,,,,,,,,,,,,,,,,,238584,001,2024-12-03_12h26.55.303,Test,2024.2.1,59.589359948100395,2024-12-03 12h27.08.532035 +0100,
61,150,150,28,None,15,15,0,True,right,1.467904899007408,None,,,,,,,,0,15,15,15,,,,,,,,,188.68241006499738,,,,,,,,,,,,,,,,,,,,,,,,,,,,,,,,,,,,,,188.6735742650053,188.68241006499738,189.6968459859927,190.6809695999982,190.6809695999982,190.6809695999982,192.16581407099147,right,1.467904899007408,None,,,,,,,,,,,,,,,,,,,,,,,,,,,,,,,,,,,,,,,,,,,,,,238584,001,2024-12-03_12h26.55.303,Test,2024.2.1,59.589359948100395,2024-12-03 12h27.08.532035 +0100,
66,150,180,24,None,16,16,0,True,left,4.693190899997717,None,,,,,,,,0,16,16,16,,,,,,,,,192.1810966280027,,,,,,,,,,,,,,,,,,,,,,,,,,,,,,,,,,,,,,192.1716635789926,192.1810966280027,193.1803650889924,194.1809743460035,194.1809743460035,194.1809743460035,198.88321149999683,left,4.693190899997717,None,197.16485891200136,197.1813334509934,197.1813334509934,,,,,,,,,,,,,,,,,,,,,,,,,,,,,,,,,,,,,,,,,,,238584,001,2024-12-03_12h26.55.303,Test,2024.2.1,59.589359948100395,2024-12-03 12h27.08.532035 +0100,
33,150,180,27,None,17,17,0,False,right,1.2551771180005744,None,,,,,,,,0,17,17,17,,,,,,,,,198.8976264249941,,,,,,,,,,,,,,,,,,,,,,,,,,,,,,,,,,,,,,198.88834461699298,198.8976264249941,199.8977957169991,200.8979757950001,200.8979757950001,200.8979757950001,202.16649704899464,right,1.2551771180005744,None,,,,,,,,,,,,,,,,,,,,,,,,,,,,,,,,,,,,,,,,,,,,,,238584,001,2024-12-03_12h26.55.303,Test,2024.2.1,59.589359948100395,2024-12-03 12h27.08.532035 +0100,
30,150,150,12,None,18,18,0,False,right,1.5232355000043754,None,,,,,,,,0,18,18,18,,,,,,,,,202.18206750199897,,,,,,,,,,,,,,,,,,,,,,,,,,,,,,,,,,,,,,202.1722863199975,202.18206750199897,203.18172778999724,204.18152154299605,204.18152154299605,204.18152154299605,205.71597918699263,right,1.5232355000043754,None,,,,,,,,,,,,,,,,,,,,,,,,,,,,,,,,,,,,,,,,,,,,,,238584,001,2024-12-03_12h26.55.303,Test,2024.2.1,59.589359948100395,2024-12-03 12h27.08.532035 +0100,
31,150,180,23,None,19,19,0,False,left,1.756275353996898,None,,,,,,,,0,19,19,19,,,,,,,,,205.7322068729991,,,,,,,,,,,,,,,,,,,,,,,,,,,,,,,,,,,,,,205.7226985939924,205.7322068729991,206.73182463999547,207.7318848349969,207.7318848349969,207.7318848349969,209.49965483699634,left,1.756275353996898,None,,,,,,,,,,,,,,,,,,,,,,,,,,,,,,,,,,,,,,,,,,,,,,238584,001,2024-12-03_12h26.55.303,Test,2024.2.1,59.589359948100395,2024-12-03 12h27.08.532035 +0100,
18,150,90,29,None,20,20,0,False,right,1.5356349759967998,None,,,,,,,,0,20,20,20,,,,,,,,,209.51460755099833,,,,,,,,,,,,,,,,,,,,,,,,,,,,,,,,,,,,,,209.50540071399882,209.51460755099833,210.5151681839925,211.51526043699414,211.51526043699414,211.51526043699414,213.0676454140048,right,1.5356349759967998,None,,,,,,,,,,,,,,,,,,,,,,,,,,,,,,,,,,,,,,,,,,,,,,238584,001,2024-12-03_12h26.55.303,Test,2024.2.1,59.589359948100395,2024-12-03 12h27.08.532035 +0100,
9,150,30,19,None,21,21,0,False,right,0.9847261340037221,None,,,,,,,,0,21,21,21,,,,,,,,,213.08281764399726,,,,,,,,,,,,,,,,,,,,,,,,,,,,,,,,,,,,,,213.07331956899725,213.08281764399726,214.08252780599287,215.08202759099368,215.08202759099368,215.08202759099368,216.08325439899636,right,0.9847261340037221,None,,,,,,,,,,,,,,,,,,,,,,,,,,,,,,,,,,,,,,,,,,,,,,238584,001,2024-12-03_12h26.55.303,Test,2024.2.1,59.589359948100395,2024-12-03 12h27.08.532035 +0100,
32,150,180,57,None,22,22,0,False,right,0.9248313299904112,None,,,,,,,,0,22,22,22,,,,,,,,,216.0989361690008,,,,,,,,,,,,,,,,,,,,,,,,,,,,,,,,,,,,,,216.0902980259998,216.0989361690008,217.09924966499966,218.0828777019924,218.0828777019924,218.0828777019924,219.0168246139947,right,0.9248313299904112,None,,,,,,,,,,,,,,,,,,,,,,,,,,,,,,,,,,,,,,,,,,,,,,238584,001,2024-12-03_12h26.55.303,Test,2024.2.1,59.589359948100395,2024-12-03 12h27.08.532035 +0100,
16,150,90,18,None,23,23,0,False,left,0.7908156350022182,None,,,,,,,,0,23,23,23,,,,,,,,,219.0322585649992,,,,,,,,,,,,,,,,,,,,,,,,,,,,,,,,,,,,,,219.02313496699207,219.0322585649992,220.03264119499363,221.01594268799818,221.01594268799818,221.01594268799818,221.81717562700214,left,0.7908156350022182,None,,,,,,,,,,,,,,,,,,,,,,,,,,,,,,,,,,,,,,,,,,,,,,238584,001,2024-12-03_12h26.55.303,Test,2024.2.1,59.589359948100395,2024-12-03 12h27.08.532035 +0100,
63,150,150,62,None,24,24,0,True,left,0.9560838850011351,None,,,,,,,,0,24,24,24,,,,,,,,,221.8328221970005,,,,,,,,,,,,,,,,,,,,,,,,,,,,,,,,,,,,,,221.82337311799347,221.8328221970005,222.83226658200147,223.83275051499368,223.83275051499368,223.83275051499368,224.8012522249919,left,0.9560838850011351,None,,,,,,,,,,,,,,,,,,,,,,,,,,,,,,,,,,,,,,,,,,,,,,238584,001,2024-12-03_12h26.55.303,Test,2024.2.1,59.589359948100395,2024-12-03 12h27.08.532035 +0100,
22,150,120,59,None,25,25,0,False,left,1.6673269830062054,None,,,,,,,,0,25,25,25,,,,,,,,,224.81611043500016,,,,,,,,,,,,,,,,,,,,,,,,,,,,,,,,,,,,,,224.80711435400008,224.81611043500016,225.8161584479967,226.81673021099414,226.81673021099414,226.81673021099414,228.48659720900469,left,1.6673269830062054,None,,,,,,,,,,,,,,,,,,,,,,,,,,,,,,,,,,,,,,,,,,,,,,238584,001,2024-12-03_12h26.55.303,Test,2024.2.1,59.589359948100395,2024-12-03 12h27.08.532035 +0100,
6,150,30,49,None,26,26,0,False,left,0.8850412379979389,None,,,,,,,,0,26,26,26,,,,,,,,,228.51524952199543,,,,,,,,,,,,,,,,,,,,,,,,,,,,,,,,,,,,,,228.4922868970025,228.51524952199543,229.51638187799836,230.49977807799587,230.49977807799587,230.49977807799587,231.40219271900423,left,0.8850412379979389,None,,,,,,,,,,,,,,,,,,,,,,,,,,,,,,,,,,,,,,,,,,,,,,238584,001,2024-12-03_12h26.55.303,Test,2024.2.1,59.589359948100395,2024-12-03 12h27.08.532035 +0100,
57,150,120,15,None,27,27,0,True,left,1.0588213640003232,None,,,,,,,,0,27,27,27,,,,,,,,,231.416702565999,,,,,,,,,,,,,,,,,,,,,,,,,,,,,,,,,,,,,,231.40784443299344,231.416702565999,232.41777277299843,233.41725067599327,233.41725067599327,233.41725067599327,234.4853941439942,left,1.0588213640003232,None,,,,,,,,,,,,,,,,,,,,,,,,,,,,,,,,,,,,,,,,,,,,,,238584,001,2024-12-03_12h26.55.303,Test,2024.2.1,59.589359948100395,2024-12-03 12h27.08.532035 +0100,
10,150,30,39,None,28,28,0,False,left,1.6313499980024062,None,,,,,,,,0,28,28,28,,,,,,,,,234.50058091399842,,,,,,,,,,,,,,,,,,,,,,,,,,,,,,,,,,,,,,234.49129123499733,234.50058091399842,235.5005774290039,236.5007256819954,236.5007256819954,236.5007256819954,238.13631632100441,left,1.6313499980024062,None,,,,,,,,,,,,,,,,,,,,,,,,,,,,,,,,,,,,,,,,,,,,,,238584,001,2024-12-03_12h26.55.303,Test,2024.2.1,59.589359948100395,2024-12-03 12h27.08.532035 +0100,
68,150,180,21,None,29,29,0,True,right,1.0836826599988854,None,,,,,,,,0,29,29,29,,,,,,,,,238.1507268419955,,,,,,,,,,,,,,,,,,,,,,,,,,,,,,,,,,,,,,238.14178882699343,238.1507268419955,239.15053217299283,240.15166559899808,240.15166559899808,240.15166559899808,241.25279408499773,right,1.0836826599988854,None,,,,,,,,,,,,,,,,,,,,,,,,,,,,,,,,,,,,,,,,,,,,,,238584,001,2024-12-03_12h26.55.303,Test,2024.2.1,59.589359948100395,2024-12-03 12h27.08.532035 +0100,
62,150,150,14,None,30,30,0,True,left,2.058891100998153,None,,,,,,,,0,30,30,30,,,,,,,,,241.28701020199514,,,,,,,,,,,,,,,,,,,,,,,,,,,,,,,,,,,,,,241.27916684999946,241.28701020199514,242.3003975939937,243.26698902099452,243.26698902099452,243.26698902099452,245.33539945300436,left,2.058891100998153,None,,,,,,,,,,,,,,,,,,,,,,,,,,,,,,,,,,,,,,,,,,,,,,238584,001,2024-12-03_12h26.55.303,Test,2024.2.1,59.589359948100395,2024-12-03 12h27.08.532035 +0100,
27,150,150,13,None,31,31,0,False,right,1.2177986650058301,None,,,,,,,,0,31,31,31,,,,,,,,,245.351788104992,,,,,,,,,,,,,,,,,,,,,,,,,,,,,,,,,,,,,,245.3430094380019,245.351788104992,246.35094226899673,247.3348595379939,247.3348595379939,247.3348595379939,248.57037376800145,right,1.2177986650058301,None,,,,,,,,,,,,,,,,,,,,,,,,,,,,,,,,,,,,,,,,,,,,,,238584,001,2024-12-03_12h26.55.303,Test,2024.2.1,59.589359948100395,2024-12-03 12h27.08.532035 +0100,
51,150,90,8,None,32,32,0,True,left,0.7896495629975107,None,,,,,,,,0,32,32,32,,,,,,,,,248.5849651030003,,,,,,,,,,,,,,,,,,,,,,,,,,,,,,,,,,,,,,248.5763298249949,248.5849651030003,249.5845131620008,250.58465606099344,250.58465606099344,250.58465606099344,251.38585128300474,left,0.7896495629975107,None,,,,,,,,,,,,,,,,,,,,,,,,,,,,,,,,,,,,,,,,,,,,,,238584,001,2024-12-03_12h26.55.303,Test,2024.2.1,59.589359948100395,2024-12-03 12h27.08.532035 +0100,
67,150,180,50,None,33,33,0,True,left,1.9272701000008965,None,,,,,,,,0,33,33,33,,,,,,,,,251.40239683199616,,,,,,,,,,,,,,,,,,,,,,,,,,,,,,,,,,,,,,251.39296049899713,251.40239683199616,252.45650806699996,253.38525163699524,253.38525163699524,253.38525163699524,255.31967940100003,left,1.9272701000008965,None,,,,,,,,,,,,,,,,,,,,,,,,,,,,,,,,,,,,,,,,,,,,,,238584,001,2024-12-03_12h26.55.303,Test,2024.2.1,59.589359948100395,2024-12-03 12h27.08.532035 +0100,
5,150,0,52,None,34,34,0,False,right,1.493136584002059,None,,,,,,,,0,34,34,34,,,,,,,,,255.33601504500257,,,,,,,,,,,,,,,,,,,,,,,,,,,,,,,,,,,,,,255.32618186699983,255.33601504500257,256.3518840769975,257.3351247679966,257.3351247679966,257.3351247679966,258.8364659039944,right,1.493136584002059,None,,,,,,,,,,,,,,,,,,,,,,,,,,,,,,,,,,,,,,,,,,,,,,238584,001,2024-12-03_12h26.55.303,Test,2024.2.1,59.589359948100395,2024-12-03 12h27.08.532035 +0100,
54,150,90,35,None,35,35,0,True,right,2.6869608660053927,None,,,,,,,,0,35,35,35,,,,,,,,,258.8515610769973,,,,,,,,,,,,,,,,,,,,,,,,,,,,,,,,,,,,,,258.84223881800426,258.8515610769973,259.8524175549974,260.8522945549921,260.8522945549921,260.8522945549921,263.55385244199715,right,2.6869608660053927,None,,,,,,,,,,,,,,,,,,,,,,,,,,,,,,,,,,,,,,,,,,,,,,238584,001,2024-12-03_12h26.55.303,Test,2024.2.1,59.589359948100395,2024-12-03 12h27.08.532035 +0100,
42,150,30,40,None,36,36,0,True,left,5.502112287998898,None,,,,,,,,0,36,36,36,,,,,,,,,263.56860285899893,,,,,,,,,,,,,,,,,,,,,,,,,,,,,,,,,,,,,,263.55903739899804,263.56860285899893,264.5687948669947,265.56897938399925,265.56897938399925,265.56897938399925,271.0884284269996,left,5.502112287998898,None,268.55388418000075,268.57015225299983,268.57015225299983,,,,,,,,,,,,,,,,,,,,,,,,,,,,,,,,,,,,,,,,,,,238584,001,2024-12-03_12h26.55.303,Test,2024.2.1,59.589359948100395,2024-12-03 12h27.08.532035 +0100,
11,150,60,54,None,37,37,0,False,left,2.2832031120051397,None,,,,,,,,0,37,37,37,,,,,,,,,271.10326923699176,,,,,,,,,,,,,,,,,,,,,,,,,,,,,,,,,,,,,,271.09462430399435,271.10326923699176,272.10315768899454,273.10272174900456,273.10272174900456,273.10272174900456,275.3906149770046,left,2.2832031120051397,None,,,,,,,,,,,,,,,,,,,,,,,,,,,,,,,,,,,,,,,,,,,,,,238584,001,2024-12-03_12h26.55.303,Test,2024.2.1,59.589359948100395,2024-12-03 12h27.08.532035 +0100,
8,150,30,26,None,38,38,0,False,left,0.9638148349913536,None,,,,,,,,0,38,38,38,,,,,,,,,275.4053521780006,,,,,,,,,,,,,,,,,,,,,,,,,,,,,,,,,,,,,,275.39596154099854,275.4053521780006,276.4040892500052,277.40344521000225,277.40344521000225,277.40344521000225,278.37247326399665,left,0.9638148349913536,None,,,,,,,,,,,,,,,,,,,,,,,,,,,,,,,,,,,,,,,,,,,,,,238584,001,2024-12-03_12h26.55.303,Test,2024.2.1,59.589359948100395,2024-12-03 12h27.08.532035 +0100,
59,150,120,55,None,39,39,0,True,left,2.3523770839965437,None,,,,,,,,0,39,39,39,,,,,,,,,278.3880491739983,,,,,,,,,,,,,,,,,,,,,,,,,,,,,,,,,,,,,,278.37850446399534,278.3880491739983,279.40382228999806,280.387133035998,280.387133035998,280.387133035998,282.7546580969938,left,2.3523770839965437,None,,,,,,,,,,,,,,,,,,,,,,,,,,,,,,,,,,,,,,,,,,,,,,238584,001,2024-12-03_12h26.55.303,Test,2024.2.1,59.589359948100395,2024-12-03 12h27.08.532035 +0100,
7,150,30,63,None,40,40,0,False,right,1.1899888839980122,None,,,,,,,,0,40,40,40,,,,,,,,,282.77013729399187,,,,,,,,,,,,,,,,,,,,,,,,,,,,,,,,,,,,,,282.7604224789975,282.77013729399187,283.7701377339981,284.7539125619951,284.7539125619951,284.7539125619951,285.9554916259949,right,1.1899888839980122,None,,,,,,,,,,,,,,,,,,,,,,,,,,,,,,,,,,,,,,,,,,,,,,238584,001,2024-12-03_12h26.55.303,Test,2024.2.1,59.589359948100395,2024-12-03 12h27.08.532035 +0100,
50,150,60,47,None,41,41,0,True,left,2.0016871970001375,None,,,,,,,,0,41,41,41,,,,,,,,,285.9856947490043,,,,,,,,,,,,,,,,,,,,,,,,,,,,,,,,,,,,,,285.9629742669931,285.9856947490043,286.9872392459947,287.9705557779962,287.9705557779962,287.9705557779962,289.98858350800583,left,2.0016871970001375,None,,,,,,,,,,,,,,,,,,,,,,,,,,,,,,,,,,,,,,,,,,,,,,238584,001,2024-12-03_12h26.55.303,Test,2024.2.1,59.589359948100395,2024-12-03 12h27.08.532035 +0100,
19,150,90,9,None,42,42,0,False,right,1.3546348189993296,None,,,,,,,,0,42,42,42,,,,,,,,,290.00376930199855,,,,,,,,,,,,,,,,,,,,,,,,,,,,,,,,,,,,,,289.99430624399974,290.00376930199855,291.00455063499976,292.00450701599766,292.00450701599766,292.00450701599766,293.37336434199824,right,1.3546348189993296,None,,,,,,,,,,,,,,,,,,,,,,,,,,,,,,,,,,,,,,,,,,,,,,238584,001,2024-12-03_12h26.55.303,Test,2024.2.1,59.589359948100395,2024-12-03 12h27.08.532035 +0100,
38,150,0,16,None,43,43,0,True,left,0.8688246059900848,None,,,,,,,,0,43,43,43,,,,,,,,,293.3898175889917,,,,,,,,,,,,,,,,,,,,,,,,,,,,,,,,,,,,,,293.3810014969931,293.3898175889917,294.40435135200096,295.3875956580014,295.3875956580014,295.3875956580014,296.283016026995,left,0.8688246059900848,None,,,,,,,,,,,,,,,,,,,,,,,,,,,,,,,,,,,,,,,,,,,,,,238584,001,2024-12-03_12h26.55.303,Test,2024.2.1,59.589359948100395,2024-12-03 12h27.08.532035 +0100,
37,150,0,36,None,44,44,0,True,left,0.8952972160041099,None,,,,,,,,0,44,44,44,,,,,,,,,296.30225144499855,,,,,,,,,,,,,,,,,,,,,,,,,,,,,,,,,,,,,,296.29013479499554,296.30225144499855,297.3044398310012,298.28759584599175,298.28759584599175,298.28759584599175,299.18986697999935,left,0.8952972160041099,None,,,,,,,,,,,,,,,,,,,,,,,,,,,,,,,,,,,,,,,,,,,,,,238584,001,2024-12-03_12h26.55.303,Test,2024.2.1,59.589359948100395,2024-12-03 12h27.08.532035 +0100,
56,150,120,38,None,45,45,0,True,right,1.0975923000078183,None,,,,,,,,0,45,45,45,,,,,,,,,299.2049746480043,,,,,,,,,,,,,,,,,,,,,,,,,,,,,,,,,,,,,,299.1960573020042,299.2049746480043,300.2050451289979,301.20493101800093,301.20493101800093,301.20493101800093,302.31287539500045,right,1.0975923000078183,None,,,,,,,,,,,,,,,,,,,,,,,,,,,,,,,,,,,,,,,,,,,,,,238584,001,2024-12-03_12h26.55.303,Test,2024.2.1,59.589359948100395,2024-12-03 12h27.08.532035 +0100,
40,150,0,33,None,46,46,0,True,left,1.9227564620086923,None,,,,,,,,0,46,46,46,,,,,,,,,302.3262204880011,,,,,,,,,,,,,,,,,,,,,,,,,,,,,,,,,,,,,,302.31955878899316,302.3262204880011,303.3383224559948,304.3222034319915,304.3222034319915,304.3222034319915,306.2578047040006,left,1.9227564620086923,None,,,,,,,,,,,,,,,,,,,,,,,,,,,,,,,,,,,,,,,,,,,,,,238584,001,2024-12-03_12h26.55.303,Test,2024.2.1,59.589359948100395,2024-12-03 12h27.08.532035 +0100,
47,150,60,48,None,47,47,0,True,left,1.6047749590070453,None,,,,,,,,0,47,47,47,,,,,,,,,306.28776476799976,,,,,,,,,,,,,,,,,,,,,,,,,,,,,,,,,,,,,,306.26435316199786,306.28776476799976,307.28839896200225,308.27177466500143,308.27177466500143,308.27177466500143,309.88971844900516,left,1.6047749590070453,None,,,,,,,,,,,,,,,,,,,,,,,,,,,,,,,,,,,,,,,,,,,,,,238584,001,2024-12-03_12h26.55.303,Test,2024.2.1,59.589359948100395,2024-12-03 12h27.08.532035 +0100,
49,150,60,41,None,48,48,0,True,left,0.8715770109993173,None,,,,,,,,0,48,48,48,,,,,,,,,309.90506113700394,,,,,,,,,,,,,,,,,,,,,,,,,,,,,,,,,,,,,,309.8951606310002,309.90506113700394,310.9054665330041,311.8888659899967,311.8888659899967,311.8888659899967,312.77338141200016,left,0.8715770109993173,None,,,,,,,,,,,,,,,,,,,,,,,,,,,,,,,,,,,,,,,,,,,,,,238584,001,2024-12-03_12h26.55.303,Test,2024.2.1,59.589359948100395,2024-12-03 12h27.08.532035 +0100,
69,150,180,43,None,49,49,0,True,left,1.0271916330093518,None,,,,,,,,0,49,49,49,,,,,,,,,312.788960373,,,,,,,,,,,,,,,,,,,,,,,,,,,,,,,,,,,,,,312.7796526579914,312.788960373,313.7897870339948,314.77286157499475,314.77286157499475,314.77286157499475,315.80726377099927,left,1.0271916330093518,None,,,,,,,,,,,,,,,,,,,,,,,,,,,,,,,,,,,,,,,,,,,,,,238584,001,2024-12-03_12h26.55.303,Test,2024.2.1,59.589359948100395,2024-12-03 12h27.08.532035 +0100,
41,150,30,6,None,50,50,0,True,left,1.272175165999215,None,,,,,,,,0,50,50,50,,,,,,,,,315.82209574799344,,,,,,,,,,,,,,,,,,,,,,,,,,,,,,,,,,,,,,315.81240263600193,315.82209574799344,316.8225610590016,317.8059110829927,317.8059110829927,317.8059110829927,319.090314355999,left,1.272175165999215,None,,,,,,,,,,,,,,,,,,,,,,,,,,,,,,,,,,,,,,,,,,,,,,238584,001,2024-12-03_12h26.55.303,Test,2024.2.1,59.589359948100395,2024-12-03 12h27.08.532035 +0100,
14,150,60,3,None,51,51,0,False,left,4.35084603499854,None,,,,,,,,0,51,51,51,,,,,,,,,319.1064861710038,,,,,,,,,,,,,,,,,,,,,,,,,,,,,,,,,,,,,,319.0961837560026,319.1064861710038,320.1064797040017,321.0897560519952,321.0897560519952,321.0897560519952,325.4430264120019,left,4.35084603499854,None,324.1060806739988,324.08925171999726,324.08925171999726,,,,,,,,,,,,,,,,,,,,,,,,,,,,,,,,,,,,,,,,,,,238584,001,2024-12-03_12h26.55.303,Test,2024.2.1,59.589359948100395,2024-12-03 12h27.08.532035 +0100,
26,150,150,37,None,52,52,0,False,right,1.6907160760019906,None,,,,,,,,0,52,52,52,,,,,,,,,325.4572557499923,,,,,,,,,,,,,,,,,,,,,,,,,,,,,,,,,,,,,,325.4486350310035,325.4572557499923,326.4563702010055,327.4573112749931,327.4573112749931,327.4573112749931,329.1577280640049,right,1.6907160760019906,None,,,,,,,,,,,,,,,,,,,,,,,,,,,,,,,,,,,,,,,,,,,,,,238584,001,2024-12-03_12h26.55.303,Test,2024.2.1,59.589359948100395,2024-12-03 12h27.08.532035 +0100,
60,150,120,61,None,53,53,0,True,left,1.7141031789942645,None,,,,,,,,0,53,53,53,,,,,,,,,329.1737709949957,,,,,,,,,,,,,,,,,,,,,,,,,,,,,,,,,,,,,,329.1645155120059,329.1737709949957,330.1735925730027,331.15671203400416,331.15671203400416,331.15671203400416,332.87610311899334,left,1.7141031789942645,None,,,,,,,,,,,,,,,,,,,,,,,,,,,,,,,,,,,,,,,,,,,,,,238584,001,2024-12-03_12h26.55.303,Test,2024.2.1,59.589359948100395,2024-12-03 12h27.08.532035 +0100,
35,150,180,4,None,54,54,0,False,left,1.6223045969964005,None,,,,,,,,0,54,54,54,,,,,,,,,332.9001582179917,,,,,,,,,,,,,,,,,,,,,,,,,,,,,,,,,,,,,,332.8924490710051,332.9001582179917,333.90700458000356,334.8905364329985,334.8905364329985,334.8905364329985,336.5255455979932,left,1.6223045969964005,None,,,,,,,,,,,,,,,,,,,,,,,,,,,,,,,,,,,,,,,,,,,,,,238584,001,2024-12-03_12h26.55.303,Test,2024.2.1,59.589359948100395,2024-12-03 12h27.08.532035 +0100,
46,150,60,34,None,55,55,0,True,left,2.2007792580116075,None,,,,,,,,0,55,55,55,,,,,,,,,336.55938482399506,,,,,,,,,,,,,,,,,,,,,,,,,,,,,,,,,,,,,,336.5500689729961,336.55938482399506,337.5737320059998,338.54033929599973,338.54033929599973,338.54033929599973,340.74393138899177,left,2.2007792580116075,None,,,,,,,,,,,,,,,,,,,,,,,,,,,,,,,,,,,,,,,,,,,,,,238584,001,2024-12-03_12h26.55.303,Test,2024.2.1,59.589359948100395,2024-12-03 12h27.08.532035 +0100,
44,150,30,64,None,56,56,0,True,right,1.902065248999861,None,,,,,,,,0,56,56,56,,,,,,,,,340.7620700559928,,,,,,,,,,,,,,,,,,,,,,,,,,,,,,,,,,,,,,340.75299468799494,340.7620700559928,341.77383773699694,342.75743932899786,342.75743932899786,342.75743932899786,344.6764971399971,right,1.902065248999861,None,,,,,,,,,,,,,,,,,,,,,,,,,,,,,,,,,,,,,,,,,,,,,,238584,001,2024-12-03_12h26.55.303,Test,2024.2.1,59.589359948100395,2024-12-03 12h27.08.532035 +0100,
43,150,30,2,None,57,57,0,True,left,3.944180814010906,None,,,,,,,,0,57,57,57,,,,,,,,,344.70630329199776,,,,,,,,,,,,,,,,,,,,,,,,,,,,,,,,,,,,,,344.68357032399217,344.70630329199776,345.7077646020043,346.6912998619955,346.6912998619955,346.6912998619955,350.64304192599957,left,3.944180814010906,None,349.69113071099855,349.69113071099855,349.69113071099855,,,,,,,,,,,,,,,,,,,,,,,,,,,,,,,,,,,,,,,,,,,238584,001,2024-12-03_12h26.55.303,Test,2024.2.1,59.589359948100395,2024-12-03 12h27.08.532035 +0100,
13,150,60,70,None,58,58,0,False,left,2.217291883993312,None,,,,,,,,0,58,58,58,,,,,,,,,350.6579479909997,,,,,,,,,,,,,,,,,,,,,,,,,,,,,,,,,,,,,,350.648526044999,350.6579479909997,351.65777328600234,352.6578926959919,352.6578926959919,352.6578926959919,354.8793783440051,left,2.217291883993312,None,,,,,,,,,,,,,,,,,,,,,,,,,,,,,,,,,,,,,,,,,,,,,,238584,001,2024-12-03_12h26.55.303,Test,2024.2.1,59.589359948100395,2024-12-03 12h27.08.532035 +0100,
28,150,150,42,None,59,59,0,False,right,0.9180853809957625,None,,,,,,,,0,59,59,59,,,,,,,,,354.8999789060035,,,,,,,,,,,,,,,,,,,,,,,,,,,,,,,,,,,,,,354.892468385995,354.8999789060035,355.90837913499854,356.89140646699525,356.89140646699525,356.89140646699525,357.82674945300096,right,0.9180853809957625,None,,,,,,,,,,,,,,,,,,,,,,,,,,,,,,,,,,,,,,,,,,,,,,238584,001,2024-12-03_12h26.55.303,Test,2024.2.1,59.589359948100395,2024-12-03 12h27.08.532035 +0100,
12,150,60,20,None,60,60,0,False,right,1.38380419400346,None,,,,,,,,0,60,60,60,,,,,,,,,357.8421864109987,,,,,,,,,,,,,,,,,,,,,,,,,,,,,,,,,,,,,,357.832593618994,357.8421864109987,358.84257391099527,359.826429149005,359.826429149005,359.826429149005,361.22680765899713,right,1.38380419400346,None,,,,,,,,,,,,,,,,,,,,,,,,,,,,,,,,,,,,,,,,,,,,,,238584,001,2024-12-03_12h26.55.303,Test,2024.2.1,59.589359948100395,2024-12-03 12h27.08.532035 +0100,
15,150,60,65,None,61,61,0,False,left,1.8717269059998216,None,,,,,,,,0,61,61,61,,,,,,,,,361.2422920480021,,,,,,,,,,,,,,,,,,,,,,,,,,,,,,,,,,,,,,361.2333241830056,361.2422920480021,362.241810446998,363.24313264999364,363.24313264999364,363.24313264999364,365.12818464500015,left,1.8717269059998216,None,,,,,,,,,,,,,,,,,,,,,,,,,,,,,,,,,,,,,,,,,,,,,,238584,001,2024-12-03_12h26.55.303,Test,2024.2.1,59.589359948100395,2024-12-03 12h27.08.532035 +0100,
17,150,90,46,None,62,62,0,False,right,1.4068820220127236,None,,,,,,,,0,62,62,62,,,,,,,,,365.14364774800197,,,,,,,,,,,,,,,,,,,,,,,,,,,,,,,,,,,,,,365.1343287250056,365.14364774800197,366.1586641199974,367.14335404799203,367.14335404799203,367.14335404799203,368.5608464669931,right,1.4068820220127236,None,,,,,,,,,,,,,,,,,,,,,,,,,,,,,,,,,,,,,,,,,,,,,,238584,001,2024-12-03_12h26.55.303,Test,2024.2.1,59.589359948100395,2024-12-03 12h27.08.532035 +0100,
70,150,180,17,None,63,63,0,True,right,2.087339076999342,None,,,,,,,,0,63,63,63,,,,,,,,,368.57688194500224,,,,,,,,,,,,,,,,,,,,,,,,,,,,,,,,,,,,,,368.56745218600554,368.57688194500224,369.57600078299583,370.5767639489932,370.5767639489932,370.5767639489932,372.6787242680002,right,2.087339076999342,None,,,,,,,,,,,,,,,,,,,,,,,,,,,,,,,,,,,,,,,,,,,,,,238584,001,2024-12-03_12h26.55.303,Test,2024.2.1,59.589359948100395,2024-12-03 12h27.08.532035 +0100,
53,150,90,51,None,64,64,0,True,left,1.2059563389921095,None,,,,,,,,0,64,64,64,,,,,,,,,372.6926616109995,,,,,,,,,,,,,,,,,,,,,,,,,,,,,,,,,,,,,,372.68315406799957,372.6926616109995,373.69431631099724,374.6931921159994,374.6931921159994,374.6931921159994,375.9111381559924,left,1.2059563389921095,None,,,,,,,,,,,,,,,,,,,,,,,,,,,,,,,,,,,,,,,,,,,,,,238584,001,2024-12-03_12h26.55.303,Test,2024.2.1,59.589359948100395,2024-12-03 12h27.08.532035 +0100,
25,150,120,66,None,65,65,0,False,left,1.5765655790019082,None,,,,,,,,0,65,65,65,,,,,,,,,375.92650088999653,,,,,,,,,,,,,,,,,,,,,,,,,,,,,,,,,,,,,,375.91732068700367,375.92650088999653,376.9266436439939,377.91064736500266,377.91064736500266,377.91064736500266,379.49492991399893,left,1.5765655790019082,None,,,,,,,,,,,,,,,,,,,,,,,,,,,,,,,,,,,,,,,,,,,,,,238584,001,2024-12-03_12h26.55.303,Test,2024.2.1,59.589359948100395,2024-12-03 12h27.08.532035 +0100,
48,150,60,30,None,66,66,0,True,left,1.372926632000599,None,,,,,,,,0,66,66,66,,,,,,,,,379.5100613770046,,,,,,,,,,,,,,,,,,,,,,,,,,,,,,,,,,,,,,379.5007680359995,379.5100613770046,380.51078296400374,381.5102165349963,381.5102165349963,381.5102165349963,382.8944103859976,left,1.372926632000599,None,,,,,,,,,,,,,,,,,,,,,,,,,,,,,,,,,,,,,,,,,,,,,,238584,001,2024-12-03_12h26.55.303,Test,2024.2.1,59.589359948100395,2024-12-03 12h27.08.532035 +0100,
64,150,150,22,None,67,67,0,True,right,1.3881519740098156,None,,,,,,,,0,67,67,67,,,,,,,,,382.9103460320039,,,,,,,,,,,,,,,,,,,,,,,,,,,,,,,,,,,,,,382.899925382997,382.9103460320039,383.91087425200385,384.8942401660024,384.8942401660024,384.8942401660024,386.2978282959957,right,1.3881519740098156,None,,,,,,,,,,,,,,,,,,,,,,,,,,,,,,,,,,,,,,,,,,,,,,238584,001,2024-12-03_12h26.55.303,Test,2024.2.1,59.589359948100395,2024-12-03 12h27.08.532035 +0100,
34,150,180,68,None,68,68,0,False,left,1.8180743970006006,None,,,,,,,,0,68,68,68,,,,,,,,,386.3126581499964,,,,,,,,,,,,,,,,,,,,,,,,,,,,,,,,,,,,,,386.30430543099646,386.3126581499964,387.3277270539984,388.3277378479979,388.3277378479979,388.3277378479979,390.16297640999255,left,1.8180743970006006,None,,,,,,,,,,,,,,,,,,,,,,,,,,,,,,,,,,,,,,,,,,,,,,238584,001,2024-12-03_12h26.55.303,Test,2024.2.1,59.589359948100395,2024-12-03 12h27.08.532035 +0100,
45,150,30,31,None,69,69,0,True,left,0.9517875119927339,None,,,,,,,,0,69,69,69,,,,,,,,,390.1782795009931,,,,,,,,,,,,,,,,,,,,,,,,,,,,,,,,,,,,,,390.16918744999566,390.1782795009931,391.1783410030039,392.1782445139979,392.1782445139979,392.1782445139979,393.14670716700493,left,0.9517875119927339,None,,,,,,,,,,,,,,,,,,,,,,,,,,,,,,,,,,,,,,,,,,,,,,238584,001,2024-12-03_12h26.55.303,Test,2024.2.1,59.589359948100395,2024-12-03 12h27.08.532035 +0100,
,,,,,,,,,,,,,,,,,,,,,,,,,,,,,,,,,,,,,,,,,,,,,,,,,,,,,,,,,,,,,,,,,,,,,,,,,,,,,,,,,,393.1469224169996,393.1615567510016,393.1615567510016,396.7293729189987,space,3.555849683994893,None,,,,,,,,,,,,,,,,,,,,,,,,,,,,,,,,,,,,238584,001,2024-12-03_12h26.55.303,Test,2024.2.1,59.589359948100395,2024-12-03 12h27.08.532035 +0100,
31,150,180,23,None,0,0,0,,,,,,,,,,,,,,,,0,0,0,30,,,,,396.7532502739923,,,,,,,,,,,,,,,,,,,,,,,,,,,,,,,,,,,,,,,,,,,,,,,,,,,,,,,,,,396.7443461560033,396.7532502739923,396.9288380749931,396.9288380749931,396.96295148799254,398.6276241650048,398.6276241650048,398.6125370590016,,,,,,,,,,,,,,,,,,,,,,,,,,,,238584,001,2024-12-03_12h26.55.303,Test,2024.2.1,59.589359948100395,2024-12-03 12h27.08.532035 +0100,
4,150,0,44,None,1,1,0,,,,,,,,,,,,,,,,0,1,1,3,,,,,398.6276241650048,,,,,,,,,,,,,,,,,,,,,,,,,,,,,,,,,,,,,,,,,,,,,,,,,,,,,,,,,,398.6188011159975,398.64483130899316,398.8445560190012,398.8445560190012,398.8445560190012,400.54507313799695,400.54507313799695,400.5293086330057,,,,,,,,,,,,,,,,,,,,,,,,,,,,238584,001,2024-12-03_12h26.55.303,Test,2024.2.1,59.589359948100395,2024-12-03 12h27.08.532035 +0100,
9,150,30,19,None,2,2,0,,,,,,,,,,,,,,,,0,2,2,8,,,,,400.54507313799695,,,,,,,,,,,,,,,,,,,,,,,,,,,,,,,,,,,,,,,,,,,,,,,,,,,,,,,,,,400.53511757799424,400.54507313799695,400.74520186299924,400.74520186299924,400.74520186299924,402.445445609992,402.445445609992,402.42944975699356,,,,,,,,,,,,,,,,,,,,,,,,,,,,238584,001,2024-12-03_12h26.55.303,Test,2024.2.1,59.589359948100395,2024-12-03 12h27.08.532035 +0100,
11,150,60,54,None,3,3,0,,,,,,,,,,,,,,,,0,3,3,10,,,,,402.445445609992,,,,,,,,,,,,,,,,,,,,,,,,,,,,,,,,,,,,,,,,,,,,,,,,,,,,,,,,,,402.4354428229999,402.445445609992,402.6282246710034,402.6282246710034,402.64505009500135,404.32902624500275,404.32902624500275,404.31486734800274,,,,,,,,,,,,,,,,,,,,,,,,,,,,238584,001,2024-12-03_12h26.55.303,Test,2024.2.1,59.589359948100395,2024-12-03 12h27.08.532035 +0100,
10,150,30,39,None,4,4,0,,,,,,,,,,,,,,,,0,4,4,9,,,,,404.32902624500275,,,,,,,,,,,,,,,,,,,,,,,,,,,,,,,,,,,,,,,,,,,,,,,,,,,,,,,,,,404.3206339689932,404.32902624500275,404.52915021800436,404.52915021800436,404.52915021800436,406.22825313899375,406.22825313899375,406.2130477860046,,,,,,,,,,,,,,,,,,,,,,,,,,,,238584,001,2024-12-03_12h26.55.303,Test,2024.2.1,59.589359948100395,2024-12-03 12h27.08.532035 +0100,
22,150,120,59,None,5,5,0,,,,,,,,,,,,,,,,0,5,5,21,,,,,406.22825313899375,,,,,,,,,,,,,,,,,,,,,,,,,,,,,,,,,,,,,,,,,,,,,,,,,,,,,,,,,,406.2184308300057,406.22825313899375,406.42875763100164,406.42875763100164,406.42875763100164,408.12873744800163,408.12873744800163,408.1134612159949,,,,,,,,,,,,,,,,,,,,,,,,,,,,238584,001,2024-12-03_12h26.55.303,Test,2024.2.1,59.589359948100395,2024-12-03 12h27.08.532035 +0100,
14,150,60,3,None,6,6,0,,,,,,,,,,,,,,,,0,6,6,13,,,,,408.12873744800163,,,,,,,,,,,,,,,,,,,,,,,,,,,,,,,,,,,,,,,,,,,,,,,,,,,,,,,,,,408.1195414209942,408.12873744800163,408.3458725859964,408.3458725859964,408.32871321600396,410.045234625999,410.045234625999,410.0296850369923,,,,,,,,,,,,,,,,,,,,,,,,,,,,238584,001,2024-12-03_12h26.55.303,Test,2024.2.1,59.589359948100395,2024-12-03 12h27.08.532035 +0100,
21,150,120,60,None,7,7,0,,,,,,,,,,,,,,,,0,7,7,20,,,,,410.045234625999,,,,,,,,,,,,,,,,,,,,,,,,,,,,,,,,,,,,,,,,,,,,,,,,,,,,,,,,,,410.035695640996,410.045234625999,410.2288805839926,410.2288805839926,410.2458320709993,411.9291416210035,411.9291416210035,411.91309797699796,,,,,,,,,,,,,,,,,,,,,,,,,,,,238584,001,2024-12-03_12h26.55.303,Test,2024.2.1,59.589359948100395,2024-12-03 12h27.08.532035 +0100,
30,150,150,12,None,8,8,0,,,,,,,,,,,,,,,,0,8,8,29,,,,,411.9291416210035,,,,,,,,,,,,,,,,,,,,,,,,,,,,,,,,,,,,,,,,,,,,,,,,,,,,,,,,,,411.9188413069933,411.9291416210035,412.12981155699526,412.12981155699526,412.12981155699526,413.82907752699975,413.82907752699975,413.8132506270049,,,,,,,,,,,,,,,,,,,,,,,,,,,,238584,001,2024-12-03_12h26.55.303,Test,2024.2.1,59.589359948100395,2024-12-03 12h27.08.532035 +0100,
32,150,180,57,None,9,9,0,,,,,,,,,,,,,,,,0,9,9,31,,,,,413.82907752699975,,,,,,,,,,,,,,,,,,,,,,,,,,,,,,,,,,,,,,,,,,,,,,,,,,,,,,,,,,413.8201911569922,413.82907752699975,414.0297725319979,414.0297725319979,414.0297725319979,415.72904513200046,415.72904513200046,415.71349905399256,,,,,,,,,,,,,,,,,,,,,,,,,,,,238584,001,2024-12-03_12h26.55.303,Test,2024.2.1,59.589359948100395,2024-12-03 12h27.08.532035 +0100,
27,150,150,13,None,10,10,0,,,,,,,,,,,,,,,,0,10,10,26,,,,,415.72904513200046,,,,,,,,,,,,,,,,,,,,,,,,,,,,,,,,,,,,,,,,,,,,,,,,,,,,,,,,,,415.71969280799385,415.72904513200046,415.9296192239999,415.9296192239999,415.9296192239999,417.6294946709968,417.6294946709968,417.61383713000396,,,,,,,,,,,,,,,,,,,,,,,,,,,,238584,001,2024-12-03_12h26.55.303,Test,2024.2.1,59.589359948100395,2024-12-03 12h27.08.532035 +0100,
8,150,30,26,None,11,11,0,,,,,,,,,,,,,,,,0,11,11,7,,,,,417.6294946709968,,,,,,,,,,,,,,,,,,,,,,,,,,,,,,,,,,,,,,,,,,,,,,,,,,,,,,,,,,417.61990426700504,417.6294946709968,417.83058768000046,417.83058768000046,417.83058768000046,,,419.53007572499337,,,,,,,,,,,,,,,,,,,,,,,,,,,,238584,001,2024-12-03_12h26.55.303,Test,2024.2.1,59.589359948100395,2024-12-03 12h27.08.532035 +0100,
17,150,90,46,None,12,12,0,,,,,,,,,,,,,,,,0,12,12,16,,,,,419.5458982620039,,,,,,,,,,,,,,,,,,,,,,,,,,,,,,,,,,,,,,,,,,,,,,,,,,,,,,,,,,419.53604788500525,419.5458982620039,419.7297451469931,419.7297451469931,419.7464212420018,421.43033909499354,421.43033909499354,421.4145570730034,,,,,,,,,,,,,,,,,,,,,,,,,,,,238584,001,2024-12-03_12h26.55.303,Test,2024.2.1,59.589359948100395,2024-12-03 12h27.08.532035 +0100,
3,150,0,45,None,13,13,0,,,,,,,,,,,,,,,,0,13,13,2,,,,,421.43033909499354,,,,,,,,,,,,,,,,,,,,,,,,,,,,,,,,,,,,,,,,,,,,,,,,,,,,,,,,,,421.4222291009937,421.43033909499354,421.629829108002,421.629829108002,421.629829108002,423.33002561000467,423.33002561000467,423.31398090599396,,,,,,,,,,,,,,,,,,,,,,,,,,,,238584,001,2024-12-03_12h26.55.303,Test,2024.2.1,59.589359948100395,2024-12-03 12h27.08.532035 +0100,
33,150,180,27,None,14,14,0,,,,,,,,,,,,,,,,0,14,14,32,,,,,423.33002561000467,,,,,,,,,,,,,,,,,,,,,,,,,,,,,,,,,,,,,,,,,,,,,,,,,,,,,,,,,,423.3201996179996,423.33002561000467,423.5300065759948,423.5300065759948,423.5300065759948,425.2295142410003,425.2295142410003,425.21395235900127,,,,,,,,,,,,,,,,,,,,,,,,,,,,238584,001,2024-12-03_12h26.55.303,Test,2024.2.1,59.589359948100395,2024-12-03 12h27.08.532035 +0100,
18,150,90,29,None,15,15,0,,,,,,,,,,,,,,,,0,15,15,17,,,,,425.2295142410003,,,,,,,,,,,,,,,,,,,,,,,,,,,,,,,,,,,,,,,,,,,,,,,,,,,,,,,,,,425.2213581120013,425.2295142410003,425.430512773004,425.430512773004,425.430512773004,427.13078006499563,427.13078006499563,427.11452686900157,,,,,,,,,,,,,,,,,,,,,,,,,,,,238584,001,2024-12-03_12h26.55.303,Test,2024.2.1,59.589359948100395,2024-12-03 12h27.08.532035 +0100,
34,150,180,68,None,16,16,0,,,,,,,,,,,,,,,,0,16,16,33,,,,,427.13078006499563,,,,,,,,,,,,,,,,,,,,,,,,,,,,,,,,,,,,,,,,,,,,,,,,,,,,,,,,,,427.1225653510046,427.13078006499563,427.33037082399824,427.33037082399824,427.33037082399824,429.0302705140057,429.0302705140057,429.0146279259934,,,,,,,,,,,,,,,,,,,,,,,,,,,,238584,001,2024-12-03_12h26.55.303,Test,2024.2.1,59.589359948100395,2024-12-03 12h27.08.532035 +0100,
25,150,120,66,None,17,17,0,,,,,,,,,,,,,,,,0,17,17,24,,,,,429.0302705140057,,,,,,,,,,,,,,,,,,,,,,,,,,,,,,,,,,,,,,,,,,,,,,,,,,,,,,,,,,429.02197689599416,429.0302705140057,429.2309070820047,429.2309070820047,429.2309070820047,430.929966191994,430.929966191994,430.91467470600037,,,,,,,,,,,,,,,,,,,,,,,,,,,,238584,001,2024-12-03_12h26.55.303,Test,2024.2.1,59.589359948100395,2024-12-03 12h27.08.532035 +0100,
6,150,30,49,None,18,18,0,,,,,,,,,,,,,,,,0,18,18,5,,,,,430.929966191994,,,,,,,,,,,,,,,,,,,,,,,,,,,,,,,,,,,,,,,,,,,,,,,,,,,,,,,,,,430.9205506409926,430.929966191994,431.1307806410041,431.1307806410041,431.1307806410041,432.8302837299998,432.8302837299998,432.81470882899885,,,,,,,,,,,,,,,,,,,,,,,,,,,,238584,001,2024-12-03_12h26.55.303,Test,2024.2.1,59.589359948100395,2024-12-03 12h27.08.532035 +0100,
28,150,150,42,None,19,19,0,,,,,,,,,,,,,,,,0,19,19,27,,,,,432.8302837299998,,,,,,,,,,,,,,,,,,,,,,,,,,,,,,,,,,,,,,,,,,,,,,,,,,,,,,,,,,432.82142287900206,432.8302837299998,433.0307408039953,433.0307408039953,433.0307408039953,434.7345202550059,434.7345202550059,434.7160550550034,,,,,,,,,,,,,,,,,,,,,,,,,,,,238584,001,2024-12-03_12h26.55.303,Test,2024.2.1,59.589359948100395,2024-12-03 12h27.08.532035 +0100,
1,150,0,58,None,20,20,0,,,,,,,,,,,,,,,,0,20,20,0,,,,,434.7345202550059,,,,,,,,,,,,,,,,,,,,,,,,,,,,,,,,,,,,,,,,,,,,,,,,,,,,,,,,,,434.7260800310032,434.7345202550059,434.93068667300395,434.93068667300395,434.94745507200423,436.63072231000115,436.63072231000115,436.6153174229985,,,,,,,,,,,,,,,,,,,,,,,,,,,,238584,001,2024-12-03_12h26.55.303,Test,2024.2.1,59.589359948100395,2024-12-03 12h27.08.532035 +0100,
15,150,60,65,None,21,21,0,,,,,,,,,,,,,,,,0,21,21,14,,,,,436.63072231000115,,,,,,,,,,,,,,,,,,,,,,,,,,,,,,,,,,,,,,,,,,,,,,,,,,,,,,,,,,436.62207607299206,436.63072231000115,436.83161326700065,436.83161326700065,436.83161326700065,438.5304209439928,438.5304209439928,438.51549034999334,,,,,,,,,,,,,,,,,,,,,,,,,,,,238584,001,2024-12-03_12h26.55.303,Test,2024.2.1,59.589359948100395,2024-12-03 12h27.08.532035 +0100,
16,150,90,18,None,22,22,0,,,,,,,,,,,,,,,,0,22,22,15,,,,,438.5304209439928,,,,,,,,,,,,,,,,,,,,,,,,,,,,,,,,,,,,,,,,,,,,,,,,,,,,,,,,,,438.5210383289959,438.5304209439928,438.73082490600063,438.73082490600063,438.73082490600063,440.43505750100303,440.43505750100303,440.4162919240043,,,,,,,,,,,,,,,,,,,,,,,,,,,,238584,001,2024-12-03_12h26.55.303,Test,2024.2.1,59.589359948100395,2024-12-03 12h27.08.532035 +0100,
12,150,60,20,None,23,23,0,,,,,,,,,,,,,,,,0,23,23,11,,,,,440.43505750100303,,,,,,,,,,,,,,,,,,,,,,,,,,,,,,,,,,,,,,,,,,,,,,,,,,,,,,,,,,440.42539844999555,440.43505750100303,440.63151713499974,440.63151713499974,440.6476771699963,442.3311391939933,442.3311391939933,442.3145779799961,,,,,,,,,,,,,,,,,,,,,,,,,,,,238584,001,2024-12-03_12h26.55.303,Test,2024.2.1,59.589359948100395,2024-12-03 12h27.08.532035 +0100,
5,150,0,52,None,24,24,0,,,,,,,,,,,,,,,,0,24,24,4,,,,,442.3311391939933,,,,,,,,,,,,,,,,,,,,,,,,,,,,,,,,,,,,,,,,,,,,,,,,,,,,,,,,,,442.31986110999424,442.3311391939933,442.5311726020009,442.5311726020009,442.5311726020009,444.23138176300563,444.23138176300563,444.2155620709964,,,,,,,,,,,,,,,,,,,,,,,,,,,,238584,001,2024-12-03_12h26.55.303,Test,2024.2.1,59.589359948100395,2024-12-03 12h27.08.532035 +0100,
26,150,150,37,None,25,25,0,,,,,,,,,,,,,,,,0,25,25,25,,,,,444.23138176300563,,,,,,,,,,,,,,,,,,,,,,,,,,,,,,,,,,,,,,,,,,,,,,,,,,,,,,,,,,444.22235124099825,444.23138176300563,444.4315282549942,444.4315282549942,444.4315282549942,446.1312426789955,446.1312426789955,446.1158343510033,,,,,,,,,,,,,,,,,,,,,,,,,,,,238584,001,2024-12-03_12h26.55.303,Test,2024.2.1,59.589359948100395,2024-12-03 12h27.08.532035 +0100,
13,150,60,70,None,26,26,0,,,,,,,,,,,,,,,,0,26,26,12,,,,,446.1312426789955,,,,,,,,,,,,,,,,,,,,,,,,,,,,,,,,,,,,,,,,,,,,,,,,,,,,,,,,,,446.1224459829973,446.1312426789955,446.364643820998,446.364643820998,446.364643820998,,,448.03213969399803,,,,,,,,,,,,,,,,,,,,,,,,,,,,238584,001,2024-12-03_12h26.55.303,Test,2024.2.1,59.589359948100395,2024-12-03 12h27.08.532035 +0100,
20,150,90,5,None,27,27,0,,,,,,,,,,,,,,,,0,27,27,19,,,,,448.0478649470024,,,,,,,,,,,,,,,,,,,,,,,,,,,,,,,,,,,,,,,,,,,,,,,,,,,,,,,,,,448.0381635060039,448.0478649470024,448.2318408019928,448.2318408019928,448.2489096670033,449.9320974739967,449.9320974739967,449.9164461890032,,,,,,,,,,,,,,,,,,,,,,,,,,,,238584,001,2024-12-03_12h26.55.303,Test,2024.2.1,59.589359948100395,2024-12-03 12h27.08.532035 +0100,
23,150,120,1,None,28,28,0,,,,,,,,,,,,,,,,0,28,28,22,,,,,449.9320974739967,,,,,,,,,,,,,,,,,,,,,,,,,,,,,,,,,,,,,,,,,,,,,,,,,,,,,,,,,,449.9238117000059,449.9320974739967,450.13175873,450.13175873,450.13175873,451.831804595,451.831804595,451.815750046997,,,,,,,,,,,,,,,,,,,,,,,,,,,,238584,001,2024-12-03_12h26.55.303,Test,2024.2.1,59.589359948100395,2024-12-03 12h27.08.532035 +0100,
19,150,90,9,None,29,29,0,,,,,,,,,,,,,,,,0,29,29,18,,,,,451.831804595,,,,,,,,,,,,,,,,,,,,,,,,,,,,,,,,,,,,,,,,,,,,,,,,,,,,,,,,,,451.82149804399523,451.831804595,452.03191757699824,452.03191757699824,452.03191757699824,453.73141588999715,453.73141588999715,453.7163228330028,,,,,,,,,,,,,,,,,,,,,,,,,,,,238584,001,2024-12-03_12h26.55.303,Test,2024.2.1,59.589359948100395,2024-12-03 12h27.08.532035 +0100,
29,150,150,25,None,30,30,0,,,,,,,,,,,,,,,,0,30,30,28,,,,,453.73141588999715,,,,,,,,,,,,,,,,,,,,,,,,,,,,,,,,,,,,,,,,,,,,,,,,,,,,,,,,,,453.7224904589966,453.73141588999715,453.931957200999,453.931957200999,453.931957200999,455.63498535199324,455.63498535199324,455.61662191800133,,,,,,,,,,,,,,,,,,,,,,,,,,,,238584,001,2024-12-03_12h26.55.303,Test,2024.2.1,59.589359948100395,2024-12-03 12h27.08.532035 +0100,
2,150,0,11,None,31,31,0,,,,,,,,,,,,,,,,0,31,31,1,,,,,455.63498535199324,,,,,,,,,,,,,,,,,,,,,,,,,,,,,,,,,,,,,,,,,,,,,,,,,,,,,,,,,,455.62559470999986,455.63498535199324,455.8319497140037,455.8319497140037,455.8486151399993,457.53184840499307,457.53184840499307,457.51618505100487,,,,,,,,,,,,,,,,,,,,,,,,,,,,238584,001,2024-12-03_12h26.55.303,Test,2024.2.1,59.589359948100395,2024-12-03 12h27.08.532035 +0100,
7,150,30,63,None,32,32,0,,,,,,,,,,,,,,,,0,32,32,6,,,,,457.53184840499307,,,,,,,,,,,,,,,,,,,,,,,,,,,,,,,,,,,,,,,,,,,,,,,,,,,,,,,,,,457.5224075860024,457.53184840499307,457.73212695600523,457.73212695600523,457.73212695600523,459.4324838009925,459.4324838009925,459.4168644199963,,,,,,,,,,,,,,,,,,,,,,,,,,,,238584,001,2024-12-03_12h26.55.303,Test,2024.2.1,59.589359948100395,2024-12-03 12h27.08.532035 +0100,
24,150,120,7,None,33,33,0,,,,,,,,,,,,,,,,0,33,33,23,,,,,459.4324838009925,,,,,,,,,,,,,,,,,,,,,,,,,,,,,,,,,,,,,,,,,,,,,,,,,,,,,,,,,,459.42435766299604,459.4324838009925,459.6325559410034,459.6325559410034,459.6325559410034,461.33188361699285,461.33188361699285,461.316993497996,,,,,,,,,,,,,,,,,,,,,,,,,,,,238584,001,2024-12-03_12h26.55.303,Test,2024.2.1,59.589359948100395,2024-12-03 12h27.08.532035 +0100,
35,150,180,4,None,34,34,0,,,,,,,,,,,,,,,,0,34,34,34,,,,,461.33188361699285,,,,,,,,,,,,,,,,,,,,,,,,,,,,,,,,,,,,,,,,,,,,,,,,,,,,,,,,,,461.3233460170013,461.33188361699285,461.53334893299325,461.53334893299325,461.53334893299325,463.23299297099584,463.23299297099584,463.2167806880025,,,,,,,,,,,,,,,,,,,,,,,,,,,,238584,001,2024-12-03_12h26.55.303,Test,2024.2.1,59.589359948100395,2024-12-03 12h27.08.532035 +0100,
,,,,,,,,,,,,,,,,,,,,,,,,,,,,,,,,,,,,,,,,,,,,,,,,,,,,,,,,,,,,,,,,,,,,,,,,,,,,,,,,,,,,,,,,,,,,,,,,,463.2169345930015,463.23299297099584,463.23299297099584,475.33573099599744,space,12.092646846009302,None,,,,,,,,,,,,,,,,,,,,,238584,001,2024-12-03_12h26.55.303,Test,2024.2.1,59.589359948100395,2024-12-03 12h27.08.532035 +0100,
39,150,0,53,None,0,0,0,True,,,,left,0.6251686159957899,None,,,,,,,,,,,,,0,0,0,0,475.3608071810013,,,,,,,,,,,,,,,,,,,,,,,,,,,,,,,,,,,,,,,,,,,,,,,,,,,,,,,,,,,,,,,,,,,,,,,,,475.35133938799845,475.3608071810013,476.3670807000017,477.3507503680012,477.3507503680012,477.3507503680012,477.9848366219958,left,0.6251686159957899,None,,,,,,,,,,,238584,001,2024-12-03_12h26.55.303,Test,2024.2.1,59.589359948100395,2024-12-03 12h27.08.532035 +0100,
1,150,0,58,None,1,1,0,False,,,,right,0.8181676829990465,None,,,,,,,,,,,,,0,1,1,1,477.9999169090006,,,,,,,,,,,,,,,,,,,,,,,,,,,,,,,,,,,,,,,,,,,,,,,,,,,,,,,,,,,,,,,,,,,,,,,,,477.9904215120041,477.9999169090006,479.0002294790029,480.0004440880002,480.0004440880002,480.0004440880002,480.83608422099496,right,0.8181676829990465,None,,,,,,,,,,,238584,001,2024-12-03_12h26.55.303,Test,2024.2.1,59.589359948100395,2024-12-03 12h27.08.532035 +0100,
29,150,150,25,None,2,2,0,False,,,,right,0.7717118080036016,None,,,,,,,,,,,,,0,2,2,2,480.8500303680048,,,,,,,,,,,,,,,,,,,,,,,,,,,,,,,,,,,,,,,,,,,,,,,,,,,,,,,,,,,,,,,,,,,,,,,,,480.83959192599286,480.8500303680048,481.8505084089993,482.8508403960004,482.8508403960004,482.8508403960004,483.63529318300425,right,0.7717118080036016,None,,,,,,,,,,,238584,001,2024-12-03_12h26.55.303,Test,2024.2.1,59.589359948100395,2024-12-03 12h27.08.532035 +0100,
24,150,120,7,None,3,3,0,False,,,,right,0.9170928920066217,None,,,,,,,,,,,,,0,3,3,3,483.65055124000355,,,,,,,,,,,,,,,,,,,,,,,,,,,,,,,,,,,,,,,,,,,,,,,,,,,,,,,,,,,,,,,,,,,,,,,,,483.64118795399554,483.65055124000355,484.65157159299997,485.65090722999594,485.65090722999594,485.65090722999594,486.5705359669955,right,0.9170928920066217,None,,,,,,,,,,,238584,001,2024-12-03_12h26.55.303,Test,2024.2.1,59.589359948100395,2024-12-03 12h27.08.532035 +0100,
65,150,150,69,None,4,4,0,True,,,,right,1.0357129680051003,None,,,,,,,,,,,,,0,4,4,4,486.58510267699603,,,,,,,,,,,,,,,,,,,,,,,,,,,,,,,,,,,,,,,,,,,,,,,,,,,,,,,,,,,,,,,,,,,,,,,,,486.57633877999615,486.58510267699603,487.58468646700203,488.58444697299274,488.58444697299274,488.58444697299274,489.6365345469967,right,1.0357129680051003,None,,,,,,,,,,,238584,001,2024-12-03_12h26.55.303,Test,2024.2.1,59.589359948100395,2024-12-03 12h27.08.532035 +0100,
2,150,0,11,None,5,5,0,False,,,,right,1.0386249809962464,None,,,,,,,,,,,,,0,5,5,5,489.666475289996,,,,,,,,,,,,,,,,,,,,,,,,,,,,,,,,,,,,,,,,,,,,,,,,,,,,,,,,,,,,,,,,,,,,,,,,,489.6429875189933,489.666475289996,490.6679923180054,491.6512993780052,491.6512993780052,491.6512993780052,492.69871403000434,right,1.0386249809962464,None,,,,,,,,,,,238584,001,2024-12-03_12h26.55.303,Test,2024.2.1,59.589359948100395,2024-12-03 12h27.08.532035 +0100,
20,150,90,5,None,6,6,0,False,,,,right,1.1837604090105742,None,,,,,,,,,,,,,0,6,6,6,492.7194132299919,,,,,,,,,,,,,,,,,,,,,,,,,,,,,,,,,,,,,,,,,,,,,,,,,,,,,,,,,,,,,,,,,,,,,,,,,492.70862595099607,492.7194132299919,493.71931343499455,494.7017878500046,494.7017878500046,494.7017878500046,495.88855499599595,right,1.1837604090105742,None,,,,,,,,,,,238584,001,2024-12-03_12h26.55.303,Test,2024.2.1,59.589359948100395,2024-12-03 12h27.08.532035 +0100,
58,150,120,10,None,7,7,0,True,,,,left,2.522048562997952,None,,,,,,,,,,,,,0,7,7,7,495.904425323999,,,,,,,,,,,,,,,,,,,,,,,,,,,,,,,,,,,,,,,,,,,,,,,,,,,,,,,,,,,,,,,,,,,,,,,,,495.8950767789938,495.904425323999,496.9179530849942,497.90164198799175,497.90164198799175,497.90164198799175,500.4378935720015,left,2.522048562997952,None,,,,,,,,,,,238584,001,2024-12-03_12h26.55.303,Test,2024.2.1,59.589359948100395,2024-12-03 12h27.08.532035 +0100,
23,150,120,1,None,8,8,0,False,,,,left,1.450810996000655,None,,,,,,,,,,,,,0,8,8,8,500.4530582669977,,,,,,,,,,,,,,,,,,,,,,,,,,,,,,,,,,,,,,,,,,,,,,,,,,,,,,,,,,,,,,,,,,,,,,,,,500.4443721300049,500.4530582669977,501.4516849280044,502.4523747070052,502.4523747070052,502.4523747070052,503.9200439929991,left,1.450810996000655,None,,,,,,,,,,,238584,001,2024-12-03_12h26.55.303,Test,2024.2.1,59.589359948100395,2024-12-03 12h27.08.532035 +0100,
3,150,0,45,None,9,9,0,False,,,,right,0.8345872079953551,None,,,,,,,,,,,,,0,9,9,9,503.93490732800274,,,,,,,,,,,,,,,,,,,,,,,,,,,,,,,,,,,,,,,,,,,,,,,,,,,,,,,,,,,,,,,,,,,,,,,,,503.92626106299576,503.93490732800274,504.9354992939916,505.9354596089979,505.9354596089979,505.9354596089979,506.7864015130035,right,0.8345872079953551,None,,,,,,,,,,,238584,001,2024-12-03_12h26.55.303,Test,2024.2.1,59.589359948100395,2024-12-03 12h27.08.532035 +0100,
21,150,120,60,None,10,10,0,False,,,,right,0.7646844899863936,None,,,,,,,,,,,,,0,10,10,10,506.8022686250042,,,,,,,,,,,,,,,,,,,,,,,,,,,,,,,,,,,,,,,,,,,,,,,,,,,,,,,,,,,,,,,,,,,,,,,,,506.79246417299146,506.8022686250042,507.8029035219952,508.78613834299904,508.78613834299904,508.78613834299904,509.55494287400506,right,0.7646844899863936,None,,,,,,,,,,,238584,001,2024-12-03_12h26.55.303,Test,2024.2.1,59.589359948100395,2024-12-03 12h27.08.532035 +0100,
36,150,0,67,None,11,11,0,True,,,,right,0.8010416409961181,None,,,,,,,,,,,,,0,11,11,11,509.569740891995,,,,,,,,,,,,,,,,,,,,,,,,,,,,,,,,,,,,,,,,,,,,,,,,,,,,,,,,,,,,,,,,,,,,,,,,,509.5609588600055,509.569740891995,510.56944776599994,511.56952078100585,511.56952078100585,511.56952078100585,512.3883285350021,right,0.8010416409961181,None,,,,,,,,,,,238584,001,2024-12-03_12h26.55.303,Test,2024.2.1,59.589359948100395,2024-12-03 12h27.08.532035 +0100,
52,150,90,56,None,12,12,0,True,,,,right,1.1015225290029775,None,,,,,,,,,,,,,0,12,12,12,512.4044945969945,,,,,,,,,,,,,,,,,,,,,,,,,,,,,,,,,,,,,,,,,,,,,,,,,,,,,,,,,,,,,,,,,,,,,,,,,512.3954803950037,512.4044945969945,513.4195725180034,514.403186355994,514.403186355994,514.403186355994,515.5217808400048,right,1.1015225290029775,None,,,,,,,,,,,238584,001,2024-12-03_12h26.55.303,Test,2024.2.1,59.589359948100395,2024-12-03 12h27.08.532035 +0100,
55,150,90,32,None,13,13,0,True,,,,right,1.290905229994678,None,,,,,,,,,,,,,0,13,13,13,515.5370139279985,,,,,,,,,,,,,,,,,,,,,,,,,,,,,,,,,,,,,,,,,,,,,,,,,,,,,,,,,,,,,,,,,,,,,,,,,515.5282615979959,515.5370139279985,516.5367438009998,517.5364951869997,517.5364951869997,517.5364951869997,518.8377831169928,right,1.290905229994678,None,,,,,,,,,,,238584,001,2024-12-03_12h26.55.303,Test,2024.2.1,59.589359948100395,2024-12-03 12h27.08.532035 +0100,
4,150,0,44,None,14,14,0,False,,,,right,0.9103599719965132,None,,,,,,,,,,,,,0,14,14,14,518.8534376140015,,,,,,,,,,,,,,,,,,,,,,,,,,,,,,,,,,,,,,,,,,,,,,,,,,,,,,,,,,,,,,,,,,,,,,,,,518.8439199279965,518.8534376140015,519.8544397660007,520.8368773200054,520.8368773200054,520.8368773200054,521.7549787369935,right,0.9103599719965132,None,,,,,,,,,,,238584,001,2024-12-03_12h26.55.303,Test,2024.2.1,59.589359948100395,2024-12-03 12h27.08.532035 +0100,
61,150,150,28,None,15,15,0,True,,,,right,0.9183230880007613,None,,,,,,,,,,,,,0,15,15,15,521.7703480320051,,,,,,,,,,,,,,,,,,,,,,,,,,,,,,,,,,,,,,,,,,,,,,,,,,,,,,,,,,,,,,,,,,,,,,,,,521.7610793259955,521.7703480320051,522.7698596480041,523.7531679649983,523.7531679649983,523.7531679649983,524.6882404070057,right,0.9183230880007613,None,,,,,,,,,,,238584,001,2024-12-03_12h26.55.303,Test,2024.2.1,59.589359948100395,2024-12-03 12h27.08.532035 +0100,
66,150,180,24,None,16,16,0,True,,,,right,0.9404781970079057,None,,,,,,,,,,,,,0,16,16,16,524.7066948069987,,,,,,,,,,,,,,,,,,,,,,,,,,,,,,,,,,,,,,,,,,,,,,,,,,,,,,,,,,,,,,,,,,,,,,,,,524.6976071829995,524.7066948069987,525.7202823319967,526.7043049030035,526.7043049030035,526.7043049030035,527.6555063749984,right,0.9404781970079057,None,,,,,,,,,,,238584,001,2024-12-03_12h26.55.303,Test,2024.2.1,59.589359948100395,2024-12-03 12h27.08.532035 +0100,
33,150,180,27,None,17,17,0,False,,,,left,1.3554922550101765,None,,,,,,,,,,,,,0,17,17,17,527.670381421005,,,,,,,,,,,,,,,,,,,,,,,,,,,,,,,,,,,,,,,,,,,,,,,,,,,,,,,,,,,,,,,,,,,,,,,,,527.6609997799969,527.670381421005,528.6708339729958,529.6707632549951,529.6707632549951,529.6707632549951,531.0395935199922,left,1.3554922550101765,None,,,,,,,,,,,238584,001,2024-12-03_12h26.55.303,Test,2024.2.1,59.589359948100395,2024-12-03 12h27.08.532035 +0100,
30,150,150,12,None,18,18,0,False,,,,right,2.0723808619950432,None,,,,,,,,,,,,,0,18,18,18,531.0562327730004,,,,,,,,,,,,,,,,,,,,,,,,,,,,,,,,,,,,,,,,,,,,,,,,,,,,,,,,,,,,,,,,,,,,,,,,,531.0470032159938,531.0562327730004,532.0717663649993,533.0541913189954,533.0541913189954,533.0541913189954,535.1398601160035,right,2.0723808619950432,None,,,,,,,,,,,238584,001,2024-12-03_12h26.55.303,Test,2024.2.1,59.589359948100395,2024-12-03 12h27.08.532035 +0100,
31,150,180,23,None,19,19,0,False,,,,right,0.8361637710040668,None,,,,,,,,,,,,,0,19,19,19,535.1550208109984,,,,,,,,,,,,,,,,,,,,,,,,,,,,,,,,,,,,,,,,,,,,,,,,,,,,,,,,,,,,,,,,,,,,,,,,,535.1461577699956,535.1550208109984,536.1549267060036,537.1548087840056,537.1548087840056,537.1548087840056,538.0069251719979,right,0.8361637710040668,None,,,,,,,,,,,238584,001,2024-12-03_12h26.55.303,Test,2024.2.1,59.589359948100395,2024-12-03 12h27.08.532035 +0100,
18,150,90,29,None,20,20,0,False,,,,right,0.6707508599938592,None,,,,,,,,,,,,,0,20,20,20,538.023754986003,,,,,,,,,,,,,,,,,,,,,,,,,,,,,,,,,,,,,,,,,,,,,,,,,,,,,,,,,,,,,,,,,,,,,,,,,538.0146214069973,538.023754986003,539.0379910649935,540.0214501699957,540.0214501699957,540.0214501699957,540.7063494500035,right,0.6707508599938592,None,,,,,,,,,,,238584,001,2024-12-03_12h26.55.303,Test,2024.2.1,59.589359948100395,2024-12-03 12h27.08.532035 +0100,
9,150,30,19,None,21,21,0,False,,,,left,1.054264713995508,None,,,,,,,,,,,,,0,21,21,21,540.7218876849947,,,,,,,,,,,,,,,,,,,,,,,,,,,,,,,,,,,,,,,,,,,,,,,,,,,,,,,,,,,,,,,,,,,,,,,,,540.7131628380012,540.7218876849947,541.7214156650007,542.7057598459942,542.7057598459942,542.7057598459942,543.7732216299919,left,1.054264713995508,None,,,,,,,,,,,238584,001,2024-12-03_12h26.55.303,Test,2024.2.1,59.589359948100395,2024-12-03 12h27.08.532035 +0100,
32,150,180,57,None,22,22,0,False,,,,right,0.9113939390081214,None,,,,,,,,,,,,,0,22,22,22,543.7883246379934,,,,,,,,,,,,,,,,,,,,,,,,,,,,,,,,,,,,,,,,,,,,,,,,,,,,,,,,,,,,,,,,,,,,,,,,,543.7792708859924,543.7883246379934,544.7885671849945,545.7715929099941,545.7715929099941,545.7715929099941,546.6899835530057,right,0.9113939390081214,None,,,,,,,,,,,238584,001,2024-12-03_12h26.55.303,Test,2024.2.1,59.589359948100395,2024-12-03 12h27.08.532035 +0100,
16,150,90,18,None,23,23,0,False,,,,right,1.134818771010032,None,,,,,,,,,,,,,0,23,23,23,546.7049798329972,,,,,,,,,,,,,,,,,,,,,,,,,,,,,,,,,,,,,,,,,,,,,,,,,,,,,,,,,,,,,,,,,,,,,,,,,546.6960470180056,546.7049798329972,547.7052065899916,548.6884551809926,548.6884551809926,548.6884551809926,549.8406506530009,right,1.134818771010032,None,,,,,,,,,,,238584,001,2024-12-03_12h26.55.303,Test,2024.2.1,59.589359948100395,2024-12-03 12h27.08.532035 +0100,
63,150,150,62,None,24,24,0,True,,,,right,0.820521697998629,None,,,,,,,,,,,,,0,24,24,24,549.8583387489925,,,,,,,,,,,,,,,,,,,,,,,,,,,,,,,,,,,,,,,,,,,,,,,,,,,,,,,,,,,,,,,,,,,,,,,,,549.8480614360014,549.8583387489925,550.8719691809965,551.8550880910043,551.8550880910043,551.8550880910043,552.6906558310002,right,0.820521697998629,None,,,,,,,,,,,238584,001,2024-12-03_12h26.55.303,Test,2024.2.1,59.589359948100395,2024-12-03 12h27.08.532035 +0100,
22,150,120,59,None,25,25,0,False,,,,right,1.7272371319995727,None,,,,,,,,,,,,,0,25,25,25,552.7069462810032,,,,,,,,,,,,,,,,,,,,,,,,,,,,,,,,,,,,,,,,,,,,,,,,,,,,,,,,,,,,,,,,,,,,,,,,,552.6979796029918,552.7069462810032,553.7221350909967,554.7055016810045,554.7055016810045,554.7055016810045,556.4409133720037,right,1.7272371319995727,None,,,,,,,,,,,238584,001,2024-12-03_12h26.55.303,Test,2024.2.1,59.589359948100395,2024-12-03 12h27.08.532035 +0100,
6,150,30,49,None,26,26,0,False,,,,left,1.6599308400036534,None,,,,,,,,,,,,,0,26,26,26,556.4562808820046,,,,,,,,,,,,,,,,,,,,,,,,,,,,,,,,,,,,,,,,,,,,,,,,,,,,,,,,,,,,,,,,,,,,,,,,,556.4469257949968,556.4562808820046,557.456140662005,558.4562394919922,558.4562394919922,558.4562394919922,560.1238279249956,left,1.6599308400036534,None,,,,,,,,,,,238584,001,2024-12-03_12h26.55.303,Test,2024.2.1,59.589359948100395,2024-12-03 12h27.08.532035 +0100,
57,150,120,15,None,27,27,0,True,,,,left,1.308046406993526,None,,,,,,,,,,,,,0,27,27,27,560.1395734779944,,,,,,,,,,,,,,,,,,,,,,,,,,,,,,,,,,,,,,,,,,,,,,,,,,,,,,,,,,,,,,,,,,,,,,,,,560.1301423529949,560.1395734779944,561.1405217669962,562.1226039399917,562.1226039399917,562.1226039399917,563.4407516990032,left,1.308046406993526,None,,,,,,,,,,,238584,001,2024-12-03_12h26.55.303,Test,2024.2.1,59.589359948100395,2024-12-03 12h27.08.532035 +0100,
10,150,30,39,None,28,28,0,False,,,,left,1.8262815719936043,None,,,,,,,,,,,,,0,28,28,28,563.4566593329946,,,,,,,,,,,,,,,,,,,,,,,,,,,,,,,,,,,,,,,,,,,,,,,,,,,,,,,,,,,,,,,,,,,,,,,,,563.4476460669975,563.4566593329946,564.4561888710014,565.4398171929934,565.4398171929934,565.4398171929934,567.2745196149917,left,1.8262815719936043,None,,,,,,,,,,,238584,001,2024-12-03_12h26.55.303,Test,2024.2.1,59.589359948100395,2024-12-03 12h27.08.532035 +0100,
68,150,180,21,None,29,29,0,True,,,,left,1.3510382370004663,None,,,,,,,,,,,,,0,29,29,29,567.2906443259999,,,,,,,,,,,,,,,,,,,,,,,,,,,,,,,,,,,,,,,,,,,,,,,,,,,,,,,,,,,,,,,,,,,,,,,,,567.2808009360015,567.2906443259999,568.3408846009988,569.290000078996,569.290000078996,569.290000078996,570.6579128830053,left,1.3510382370004663,None,,,,,,,,,,,238584,001,2024-12-03_12h26.55.303,Test,2024.2.1,59.589359948100395,2024-12-03 12h27.08.532035 +0100,
62,150,150,14,None,30,30,0,True,,,,right,0.9474153940100223,None,,,,,,,,,,,,,0,30,30,30,570.6731701770041,,,,,,,,,,,,,,,,,,,,,,,,,,,,,,,,,,,,,,,,,,,,,,,,,,,,,,,,,,,,,,,,,,,,,,,,,570.6637796229916,570.6731701770041,571.6737299599918,572.673648128999,572.673648128999,572.673648128999,573.6275557619956,right,0.9474153940100223,None,,,,,,,,,,,238584,001,2024-12-03_12h26.55.303,Test,2024.2.1,59.589359948100395,2024-12-03 12h27.08.532035 +0100,
27,150,150,13,None,31,31,0,False,,,,left,1.3431785090069752,None,,,,,,,,,,,,,0,31,31,31,573.6434162420046,,,,,,,,,,,,,,,,,,,,,,,,,,,,,,,,,,,,,,,,,,,,,,,,,,,,,,,,,,,,,,,,,,,,,,,,,573.6342744839931,573.6434162420046,574.6574954370008,575.6403556250007,575.6403556250007,575.6403556250007,576.9923181799968,left,1.3431785090069752,None,,,,,,,,,,,238584,001,2024-12-03_12h26.55.303,Test,2024.2.1,59.589359948100395,2024-12-03 12h27.08.532035 +0100,
51,150,90,8,None,32,32,0,True,,,,left,1.9385623800044414,None,,,,,,,,,,,,,0,32,32,32,577.0079538069986,,,,,,,,,,,,,,,,,,,,,,,,,,,,,,,,,,,,,,,,,,,,,,,,,,,,,,,,,,,,,,,,,,,,,,,,,576.9982218249934,577.0079538069986,578.0240380699979,579.0074218249938,579.0074218249938,579.0074218249938,580.9595095450059,left,1.9385623800044414,None,,,,,,,,,,,238584,001,2024-12-03_12h26.55.303,Test,2024.2.1,59.589359948100395,2024-12-03 12h27.08.532035 +0100,
67,150,180,50,None,33,33,0,True,,,,left,1.3896848849981325,None,,,,,,,,,,,,,0,33,33,33,580.9749486469955,,,,,,,,,,,,,,,,,,,,,,,,,,,,,,,,,,,,,,,,,,,,,,,,,,,,,,,,,,,,,,,,,,,,,,,,,580.9663587340037,580.9749486469955,581.9741850449936,582.9742823550041,582.9742823550041,582.9742823550041,584.3766887170059,left,1.3896848849981325,None,,,,,,,,,,,238584,001,2024-12-03_12h26.55.303,Test,2024.2.1,59.589359948100395,2024-12-03 12h27.08.532035 +0100,
5,150,0,52,None,34,34,0,False,,,,left,2.6707878559973324,None,,,,,,,,,,,,,0,34,34,34,584.3935517210048,,,,,,,,,,,,,,,,,,,,,,,,,,,,,,,,,,,,,,,,,,,,,,,,,,,,,,,,,,,,,,,,,,,,,,,,,584.3830781379947,584.3935517210048,585.4078218240029,586.3913533379964,586.3913533379964,586.3913533379964,589.0767804939969,left,2.6707878559973324,None,,,,,,,,,,,238584,001,2024-12-03_12h26.55.303,Test,2024.2.1,59.589359948100395,2024-12-03 12h27.08.532035 +0100,
54,150,90,35,None,35,35,0,True,,,,left,2.1564932390028844,None,,,,,,,,,,,,,0,35,35,35,589.0923794709961,,,,,,,,,,,,,,,,,,,,,,,,,,,,,,,,,,,,,,,,,,,,,,,,,,,,,,,,,,,,,,,,,,,,,,,,,589.0835914589989,589.0923794709961,590.0915642460022,591.0914328409999,591.0914328409999,591.0914328409999,593.2602498789929,left,2.1564932390028844,None,,,,,,,,,,,238584,001,2024-12-03_12h26.55.303,Test,2024.2.1,59.589359948100395,2024-12-03 12h27.08.532035 +0100,
42,150,30,40,None,36,36,0,True,,,,left,2.0995720180071658,None,,,,,,,,,,,,,0,36,36,36,593.2769977519929,,,,,,,,,,,,,,,,,,,,,,,,,,,,,,,,,,,,,,,,,,,,,,,,,,,,,,,,,,,,,,,,,,,,,,,,,593.2677217089949,593.2769977519929,594.4003125099989,595.2751022459997,595.2751022459997,595.2751022459997,597.3778502719942,left,2.0995720180071658,None,,,,,,,,,,,238584,001,2024-12-03_12h26.55.303,Test,2024.2.1,59.589359948100395,2024-12-03 12h27.08.532035 +0100,
11,150,60,54,None,37,37,0,False,,,,left,4.009438459994271,None,,,,,,,,,,,,,0,37,37,37,597.3928375599935,,,,,,,,,,,,,,,,,,,,,,,,,,,,,,,,,,,,,,,,,,,,,,,,,,,,,,,,,,,,,,,,,,,,,,,,,597.3837988580053,597.3928375599935,598.3919972199947,599.392014912999,599.392014912999,599.392014912999,603.4109045389923,left,4.009438459994271,None,602.3919927579991,602.3919927579991,602.3919927579991,,,,,,,,238584,001,2024-12-03_12h26.55.303,Test,2024.2.1,59.589359948100395,2024-12-03 12h27.08.532035 +0100,
8,150,30,26,None,38,38,0,False,,,,right,1.017516665000585,None,,,,,,,,,,,,,0,38,38,38,603.4262271379994,,,,,,,,,,,,,,,,,,,,,,,,,,,,,,,,,,,,,,,,,,,,,,,,,,,,,,,,,,,,,,,,,,,,,,,,,603.4170339840057,603.4262271379994,604.4418787659961,605.4262616960041,605.4262616960041,605.4262616960041,606.4618845179939,right,1.017516665000585,None,,,,,,,,,,,238584,001,2024-12-03_12h26.55.303,Test,2024.2.1,59.589359948100395,2024-12-03 12h27.08.532035 +0100,
59,150,120,55,None,39,39,0,True,,,,left,0.8516862179967575,None,,,,,,,,,,,,,0,39,39,39,606.4771410639951,,,,,,,,,,,,,,,,,,,,,,,,,,,,,,,,,,,,,,,,,,,,,,,,,,,,,,,,,,,,,,,,,,,,,,,,,606.4679183699918,606.4771410639951,607.4925641489972,608.4758020489971,608.4758020489971,608.4758020489971,609.3444149559946,left,0.8516862179967575,None,,,,,,,,,,,238584,001,2024-12-03_12h26.55.303,Test,2024.2.1,59.589359948100395,2024-12-03 12h27.08.532035 +0100,
7,150,30,63,None,40,40,0,False,,,,left,1.8363915130030364,None,,,,,,,,,,,,,0,40,40,40,609.359738233994,,,,,,,,,,,,,,,,,,,,,,,,,,,,,,,,,,,,,,,,,,,,,,,,,,,,,,,,,,,,,,,,,,,,,,,,,609.3506991759932,609.359738233994,610.3603013709944,611.3427632950043,611.3427632950043,611.3427632950043,613.1948738289939,left,1.8363915130030364,None,,,,,,,,,,,238584,001,2024-12-03_12h26.55.303,Test,2024.2.1,59.589359948100395,2024-12-03 12h27.08.532035 +0100,
50,150,60,47,None,41,41,0,True,,,,left,1.7420807059970684,None,,,,,,,,,,,,,0,41,41,41,613.2112938149949,,,,,,,,,,,,,,,,,,,,,,,,,,,,,,,,,,,,,,,,,,,,,,,,,,,,,,,,,,,,,,,,,,,,,,,,,613.2024454469938,613.2112938149949,614.2269035299978,615.2098410049948,615.2098410049948,615.2098410049948,616.9610225469951,left,1.7420807059970684,None,,,,,,,,,,,238584,001,2024-12-03_12h26.55.303,Test,2024.2.1,59.589359948100395,2024-12-03 12h27.08.532035 +0100,
19,150,90,9,None,42,42,0,False,,,,left,0.8613630899926648,None,,,,,,,,,,,,,0,42,42,42,616.9761524170026,,,,,,,,,,,,,,,,,,,,,,,,,,,,,,,,,,,,,,,,,,,,,,,,,,,,,,,,,,,,,,,,,,,,,,,,,616.9662835700001,616.9761524170026,617.9778947930026,618.9768823929917,618.9768823929917,618.9768823929917,619.8449791960011,left,0.8613630899926648,None,,,,,,,,,,,238584,001,2024-12-03_12h26.55.303,Test,2024.2.1,59.589359948100395,2024-12-03 12h27.08.532035 +0100,
38,150,0,16,None,43,43,0,True,,,,left,1.875481002003653,None,,,,,,,,,,,,,0,43,43,43,619.8608663210034,,,,,,,,,,,,,,,,,,,,,,,,,,,,,,,,,,,,,,,,,,,,,,,,,,,,,,,,,,,,,,,,,,,,,,,,,619.8511790500052,619.8608663210034,620.8603994699952,621.8602251559932,621.8602251559932,621.8602251559932,623.7461369660014,left,1.875481002003653,None,,,,,,,,,,,238584,001,2024-12-03_12h26.55.303,Test,2024.2.1,59.589359948100395,2024-12-03 12h27.08.532035 +0100,
37,150,0,36,None,44,44,0,True,,,,left,2.3133407150016865,None,,,,,,,,,,,,,0,44,44,44,623.7615626229963,,,,,,,,,,,,,,,,,,,,,,,,,,,,,,,,,,,,,,,,,,,,,,,,,,,,,,,,,,,,,,,,,,,,,,,,,623.7527484879975,623.7615626229963,624.760811715998,625.7619627200038,625.7619627200038,625.7619627200038,628.0796753040049,left,2.3133407150016865,None,,,,,,,,,,,238584,001,2024-12-03_12h26.55.303,Test,2024.2.1,59.589359948100395,2024-12-03 12h27.08.532035 +0100,
56,150,120,38,None,45,45,0,True,,,,left,1.0882879379933001,None,,,,,,,,,,,,,0,45,45,45,628.0949895619997,,,,,,,,,,,,,,,,,,,,,,,,,,,,,,,,,,,,,,,,,,,,,,,,,,,,,,,,,,,,,,,,,,,,,,,,,628.0855492300034,628.0949895619997,629.0946585269994,630.0940943019959,630.0940943019959,630.0940943019959,631.1960135739937,left,1.0882879379933001,None,,,,,,,,,,,238584,001,2024-12-03_12h26.55.303,Test,2024.2.1,59.589359948100395,2024-12-03 12h27.08.532035 +0100,
40,150,0,33,None,46,46,0,True,,,,left,0.7779631480079843,None,,,,,,,,,,,,,0,46,46,46,631.2122448640002,,,,,,,,,,,,,,,,,,,,,,,,,,,,,,,,,,,,,,,,,,,,,,,,,,,,,,,,,,,,,,,,,,,,,,,,,631.2031428619957,631.2122448640002,632.2282247700059,633.1947171420034,633.1947171420034,633.1947171420034,633.9797222009947,left,0.7779631480079843,None,,,,,,,,,,,238584,001,2024-12-03_12h26.55.303,Test,2024.2.1,59.589359948100395,2024-12-03 12h27.08.532035 +0100,
47,150,60,48,None,47,47,0,True,,,,left,1.828838622008334,None,,,,,,,,,,,,,0,47,47,47,633.9949501020019,,,,,,,,,,,,,,,,,,,,,,,,,,,,,,,,,,,,,,,,,,,,,,,,,,,,,,,,,,,,,,,,,,,,,,,,,633.9855811909947,633.9949501020019,634.9948589269916,635.9945182230003,635.9945182230003,635.9945182230003,637.8316890909919,left,1.828838622008334,None,,,,,,,,,,,238584,001,2024-12-03_12h26.55.303,Test,2024.2.1,59.589359948100395,2024-12-03 12h27.08.532035 +0100,
49,150,60,41,None,48,48,0,True,,,,left,3.46908459700353,None,,,,,,,,,,,,,0,48,48,48,637.8481577960047,,,,,,,,,,,,,,,,,,,,,,,,,,,,,,,,,,,,,,,,,,,,,,,,,,,,,,,,,,,,,,,,,,,,,,,,,637.8394264779927,637.8481577960047,638.8611048739986,639.844923067998,639.844923067998,639.844923067998,643.3298934299964,left,3.46908459700353,None,642.8456712210027,642.8456712210027,642.8456712210027,,,,,,,,238584,001,2024-12-03_12h26.55.303,Test,2024.2.1,59.589359948100395,2024-12-03 12h27.08.532035 +0100,
69,150,180,43,None,49,49,0,True,,,,left,2.50957249799103,None,,,,,,,,,,,,,0,49,49,49,643.3452892810019,,,,,,,,,,,,,,,,,,,,,,,,,,,,,,,,,,,,,,,,,,,,,,,,,,,,,,,,,,,,,,,,,,,,,,,,,643.3360890839976,643.3452892810019,644.3455704850057,645.3453968459944,645.3453968459944,645.3453968459944,647.8637871349929,left,2.50957249799103,None,,,,,,,,,,,238584,001,2024-12-03_12h26.55.303,Test,2024.2.1,59.589359948100395,2024-12-03 12h27.08.532035 +0100,
41,150,30,6,None,50,50,0,True,,,,left,1.1240295519965002,None,,,,,,,,,,,,,0,50,50,50,647.8790157619951,,,,,,,,,,,,,,,,,,,,,,,,,,,,,,,,,,,,,,,,,,,,,,,,,,,,,,,,,,,,,,,,,,,,,,,,,647.8692490450048,647.8790157619951,648.8786608619994,649.8779535130016,649.8779535130016,649.8779535130016,651.0135331990023,left,1.1240295519965002,None,,,,,,,,,,,238584,001,2024-12-03_12h26.55.303,Test,2024.2.1,59.589359948100395,2024-12-03 12h27.08.532035 +0100,
14,150,60,3,None,51,51,0,False,,,,left,1.158792235000874,None,,,,,,,,,,,,,0,51,51,51,651.0288125749939,,,,,,,,,,,,,,,,,,,,,,,,,,,,,,,,,,,,,,,,,,,,,,,,,,,,,,,,,,,,,,,,,,,,,,,,,651.0192794659961,651.0288125749939,652.0293367569975,653.0295328420034,653.0295328420034,653.0295328420034,654.1970088410017,left,1.158792235000874,None,,,,,,,,,,,238584,001,2024-12-03_12h26.55.303,Test,2024.2.1,59.589359948100395,2024-12-03 12h27.08.532035 +0100,
26,150,150,37,None,52,52,0,False,,,,left,1.4752297429949977,None,,,,,,,,,,,,,0,52,52,52,654.212223141003,,,,,,,,,,,,,,,,,,,,,,,,,,,,,,,,,,,,,,,,,,,,,,,,,,,,,,,,,,,,,,,,,,,,,,,,,654.2026226739981,654.212223141003,655.2124096210027,656.2128244109917,656.2128244109917,656.2128244109917,657.697522610004,left,1.4752297429949977,None,,,,,,,,,,,238584,001,2024-12-03_12h26.55.303,Test,2024.2.1,59.589359948100395,2024-12-03 12h27.08.532035 +0100,
60,150,120,61,None,53,53,0,True,,,,left,2.1095159590040566,None,,,,,,,,,,,,,0,53,53,53,657.712547150004,,,,,,,,,,,,,,,,,,,,,,,,,,,,,,,,,,,,,,,,,,,,,,,,,,,,,,,,,,,,,,,,,,,,,,,,,657.7032688259933,657.712547150004,658.713173119002,659.7125382279919,659.7125382279919,659.7125382279919,661.8313217709947,left,2.1095159590040566,None,,,,,,,,,,,238584,001,2024-12-03_12h26.55.303,Test,2024.2.1,59.589359948100395,2024-12-03 12h27.08.532035 +0100,
35,150,180,4,None,54,54,0,False,,,,left,1.893927593002445,None,,,,,,,,,,,,,0,54,54,54,661.8462294399942,,,,,,,,,,,,,,,,,,,,,,,,,,,,,,,,,,,,,,,,,,,,,,,,,,,,,,,,,,,,,,,,,,,,,,,,,661.835678317002,661.8462294399942,662.8465248010034,663.8465734789934,663.8465734789934,663.8465734789934,665.7493304700038,left,1.893927593002445,None,,,,,,,,,,,238584,001,2024-12-03_12h26.55.303,Test,2024.2.1,59.589359948100395,2024-12-03 12h27.08.532035 +0100,
46,150,60,34,None,55,55,0,True,,,,left,2.0756381590035744,None,,,,,,,,,,,,,0,55,55,55,665.7641779469996,,,,,,,,,,,,,,,,,,,,,,,,,,,,,,,,,,,,,,,,,,,,,,,,,,,,,,,,,,,,,,,,,,,,,,,,,665.7551060580008,665.7641779469996,666.7627465989935,667.7637531530054,667.7637531530054,667.7637531530054,669.8484762449953,left,2.0756381590035744,None,,,,,,,,,,,238584,001,2024-12-03_12h26.55.303,Test,2024.2.1,59.589359948100395,2024-12-03 12h27.08.532035 +0100,
44,150,30,64,None,56,56,0,True,,,,left,1.2108321679988876,None,,,,,,,,,,,,,0,56,56,56,669.8651292379946,,,,,,,,,,,,,,,,,,,,,,,,,,,,,,,,,,,,,,,,,,,,,,,,,,,,,,,,,,,,,,,,,,,,,,,,,669.8559486169979,669.8651292379946,670.8800107550051,671.8638444950047,671.8638444950047,671.8638444950047,673.0815434899996,left,1.2108321679988876,None,,,,,,,,,,,238584,001,2024-12-03_12h26.55.303,Test,2024.2.1,59.589359948100395,2024-12-03 12h27.08.532035 +0100,
43,150,30,2,None,57,57,0,True,,,,right,0.9089511780039174,None,,,,,,,,,,,,,0,57,57,57,673.0966554070037,,,,,,,,,,,,,,,,,,,,,,,,,,,,,,,,,,,,,,,,,,,,,,,,,,,,,,,,,,,,,,,,,,,,,,,,,673.0874956089974,673.0966554070037,674.0970846160053,675.0968244349933,675.0968244349933,675.0968244349933,676.0151936600014,right,0.9089511780039174,None,,,,,,,,,,,238584,001,2024-12-03_12h26.55.303,Test,2024.2.1,59.589359948100395,2024-12-03 12h27.08.532035 +0100,
13,150,60,70,None,58,58,0,False,,,,right,1.0398573900019983,None,,,,,,,,,,,,,0,58,58,58,676.0304089809943,,,,,,,,,,,,,,,,,,,,,,,,,,,,,,,,,,,,,,,,,,,,,,,,,,,,,,,,,,,,,,,,,,,,,,,,,676.0202605520026,676.0304089809943,677.0310506179958,678.0310399779992,678.0310399779992,678.0310399779992,679.0824975120049,right,1.0398573900019983,None,,,,,,,,,,,238584,001,2024-12-03_12h26.55.303,Test,2024.2.1,59.589359948100395,2024-12-03 12h27.08.532035 +0100,
28,150,150,42,None,59,59,0,False,,,,right,0.9606299989973195,None,,,,,,,,,,,,,0,59,59,59,679.1004921620042,,,,,,,,,,,,,,,,,,,,,,,,,,,,,,,,,,,,,,,,,,,,,,,,,,,,,,,,,,,,,,,,,,,,,,,,,679.0889290789928,679.1004921620042,680.1144808880053,681.0976846020058,681.0976846020058,681.0976846020058,682.0663836400054,right,0.9606299989973195,None,,,,,,,,,,,238584,001,2024-12-03_12h26.55.303,Test,2024.2.1,59.589359948100395,2024-12-03 12h27.08.532035 +0100,
12,150,60,20,None,60,60,0,False,,,,left,1.1324736039969139,None,,,,,,,,,,,,,0,60,60,60,682.0860935929959,,,,,,,,,,,,,,,,,,,,,,,,,,,,,,,,,,,,,,,,,,,,,,,,,,,,,,,,,,,,,,,,,,,,,,,,,682.0788197280053,682.0860935929959,683.0973885179992,684.0809859150031,684.0809859150031,684.0809859150031,685.2169300550013,left,1.1324736039969139,None,,,,,,,,,,,238584,001,2024-12-03_12h26.55.303,Test,2024.2.1,59.589359948100395,2024-12-03 12h27.08.532035 +0100,
15,150,60,65,None,61,61,0,False,,,,right,0.7234750409988919,None,,,,,,,,,,,,,0,61,61,61,685.2322351969924,,,,,,,,,,,,,,,,,,,,,,,,,,,,,,,,,,,,,,,,,,,,,,,,,,,,,,,,,,,,,,,,,,,,,,,,,685.2228436760051,685.2322351969924,686.2473426880024,687.2307217210036,687.2307217210036,687.2307217210036,687.9665360869985,right,0.7234750409988919,None,,,,,,,,,,,238584,001,2024-12-03_12h26.55.303,Test,2024.2.1,59.589359948100395,2024-12-03 12h27.08.532035 +0100,
17,150,90,46,None,62,62,0,False,,,,right,2.0188287620112533,None,,,,,,,,,,,,,0,62,62,62,687.9906878269976,,,,,,,,,,,,,,,,,,,,,,,,,,,,,,,,,,,,,,,,,,,,,,,,,,,,,,,,,,,,,,,,,,,,,,,,,687.9827999389963,687.9906878269976,688.9978881949937,689.9810441080044,689.9810441080044,689.9810441080044,692.0161229410005,right,2.0188287620112533,None,,,,,,,,,,,238584,001,2024-12-03_12h26.55.303,Test,2024.2.1,59.589359948100395,2024-12-03 12h27.08.532035 +0100,
70,150,180,17,None,63,63,0,True,,,,left,1.4779220089985756,None,,,,,,,,,,,,,0,63,63,63,692.0346813249926,,,,,,,,,,,,,,,,,,,,,,,,,,,,,,,,,,,,,,,,,,,,,,,,,,,,,,,,,,,,,,,,,,,,,,,,,692.0255716399988,692.0346813249926,693.0483147780033,694.0147018499993,694.0147018499993,694.0147018499993,695.5004538409994,left,1.4779220089985756,None,,,,,,,,,,,238584,001,2024-12-03_12h26.55.303,Test,2024.2.1,59.589359948100395,2024-12-03 12h27.08.532035 +0100,
53,150,90,51,None,64,64,0,True,,,,left,1.5594155629951274,None,,,,,,,,,,,,,0,64,64,64,695.515872724005,,,,,,,,,,,,,,,,,,,,,,,,,,,,,,,,,,,,,,,,,,,,,,,,,,,,,,,,,,,,,,,,,,,,,,,,,695.5064319630037,695.515872724005,696.5153575709992,697.5157140369993,697.5157140369993,697.5157140369993,699.0844036339986,left,1.5594155629951274,None,,,,,,,,,,,238584,001,2024-12-03_12h26.55.303,Test,2024.2.1,59.589359948100395,2024-12-03 12h27.08.532035 +0100,
25,150,120,66,None,65,65,0,False,,,,right,0.8224737659911625,None,,,,,,,,,,,,,0,65,65,65,699.0994280209998,,,,,,,,,,,,,,,,,,,,,,,,,,,,,,,,,,,,,,,,,,,,,,,,,,,,,,,,,,,,,,,,,,,,,,,,,699.0906497539982,699.0994280209998,700.1154458719975,701.0989499989955,701.0989499989955,701.0989499989955,701.9347667179973,right,0.8224737659911625,None,,,,,,,,,,,238584,001,2024-12-03_12h26.55.303,Test,2024.2.1,59.589359948100395,2024-12-03 12h27.08.532035 +0100,
48,150,60,30,None,66,66,0,True,,,,left,1.4510430629889015,None,,,,,,,,,,,,,0,66,66,66,701.9512577040005,,,,,,,,,,,,,,,,,,,,,,,,,,,,,,,,,,,,,,,,,,,,,,,,,,,,,,,,,,,,,,,,,,,,,,,,,701.9423800299992,701.9512577040005,702.9658216639946,703.9493701979954,703.9493701979954,703.9493701979954,705.4169419419923,left,1.4510430629889015,None,,,,,,,,,,,238584,001,2024-12-03_12h26.55.303,Test,2024.2.1,59.589359948100395,2024-12-03 12h27.08.532035 +0100,
64,150,150,22,None,67,67,0,True,,,,left,3.894102574005956,None,,,,,,,,,,,,,0,67,67,67,705.4321920560033,,,,,,,,,,,,,,,,,,,,,,,,,,,,,,,,,,,,,,,,,,,,,,,,,,,,,,,,,,,,,,,,,,,,,,,,,705.4234757859958,705.4321920560033,706.4324112540053,707.4157228879922,707.4157228879922,707.4157228879922,711.3184228989994,left,3.894102574005956,None,710.4166684649972,710.4328628380026,710.4166684649972,,,,,,,,238584,001,2024-12-03_12h26.55.303,Test,2024.2.1,59.589359948100395,2024-12-03 12h27.08.532035 +0100,
34,150,180,68,None,68,68,0,False,,,,right,0.7046986250061309,None,,,,,,,,,,,,,0,68,68,68,711.3333828059986,,,,,,,,,,,,,,,,,,,,,,,,,,,,,,,,,,,,,,,,,,,,,,,,,,,,,,,,,,,,,,,,,,,,,,,,,711.3244525129994,711.3333828059986,712.3331700790004,713.3340017489973,713.3340017489973,713.3340017489973,714.0511075989925,right,0.7046986250061309,None,,,,,,,,,,,238584,001,2024-12-03_12h26.55.303,Test,2024.2.1,59.589359948100395,2024-12-03 12h27.08.532035 +0100,
45,150,30,31,None,69,69,0,True,,,,left,1.453130380003131,None,,,,,,,,,,,,,0,69,69,69,714.0663250859943,,,,,,,,,,,,,,,,,,,,,,,,,,,,,,,,,,,,,,,,,,,,,,,,,,,,,,,,,,,,,,,,,,,,,,,,,714.056956675995,714.0663250859943,715.0667841989925,716.0674627959961,716.0674627959961,716.0674627959961,717.5349145799992,left,1.453130380003131,None,,,,,,,,,,,238584,001,2024-12-03_12h26.55.303,Test,2024.2.1,59.589359948100395,2024-12-03 12h27.08.532035 +0100,
,,,,,,,,,,,,,,,,,,,,,,,,,,,,,,,,,,,,,,,,,,,,,,,,,,,,,,,,,,,,,,,,,,,,,,,,,,,,,,,,,,,,,,,,,,,,,,,,,,,,,,,,,,,,,,,,,,,,,717.5350775480038,717.5504080690007,717.5504080690007,720.3154760990001,space,2.7419591979996767,None,238584,001,2024-12-03_12h26.55.303,Test,2024.2.1,59.589359948100395,2024-12-03 12h27.08.532035 +0100,
