Trial_Number,Exposure_Duration,Displacement_Angle,Stimulus,Response,thisN,thisTrialN,thisRepN,Is_Distractor,key_resp_3.keys,key_resp_3.rt,key_resp_3.duration,key_resp_7.keys,key_resp_7.rt,key_resp_7.duration,trials.thisRepN,trials.thisTrialN,trials.thisN,trials.thisIndex,trials_2.thisRepN,trials_2.thisTrialN,trials_2.thisN,trials_2.thisIndex,trials_3.thisRepN,trials_3.thisTrialN,trials_3.thisN,trials_3.thisIndex,trials_4.thisRepN,trials_4.thisTrialN,trials_4.thisN,trials_4.thisIndex,thisRow.t,notes,Intro_to_experiment.started,important1_2.started,key_resp_8.started,Intro_to_experiment.stopped,key_resp_8.keys,key_resp_8.rt,key_resp_8.duration,important.started,important1.started,key_resp_4.started,important.stopped,key_resp_4.keys,key_resp_4.rt,key_resp_4.duration,instruction.started,text_7.started,key_resp_9.started,instruction.stopped,key_resp_9.keys,key_resp_9.rt,key_resp_9.duration,training_trial.started,cross.started,image.started,aperture.started,cross.stopped,image.stopped,aperture.stopped,training_trial.stopped,New_instruction.started,text.started,key_resp_2.started,New_instruction.stopped,key_resp_2.keys,key_resp_2.rt,key_resp_2.duration,test_trial.started,cross2.started,cross2.stopped,image_2.started,key_resp_3.started,aperture_2.started,image_2.stopped,text_3.started,aperture_2.stopped,test_trial.stopped,trials_2.key_resp_3.keys,trials_2.key_resp_3.rt,trials_2.key_resp_3.duration,start_blok_2.started,key_resp_5.started,text_4.started,start_blok_2.stopped,key_resp_5.keys,key_resp_5.rt,key_resp_5.duration,training_2.started,cross_2.started,image_3.started,aperture_3.started,cross_2.stopped,image_3.stopped,aperture_3.stopped,training_2.stopped,nyeste_instruks.started,text_5.started,key_resp_6.started,nyeste_instruks.stopped,key_resp_6.keys,key_resp_6.rt,key_resp_6.duration,test_2.started,cross2_2.started,cross2_2.stopped,image_4.started,key_resp_7.started,aperture_4.started,test_2.stopped,trials_4.key_resp_7.keys,trials_4.key_resp_7.rt,trials_4.key_resp_7.duration,image_4.stopped,text_6.started,aperture_4.stopped,Instruction1.started,Instruktion.started,key_resp.started,Instruction1.stopped,key_resp.keys,key_resp.rt,key_resp.duration,participant,session,date,expName,psychopyVersion,frameRate,expStart,
,,,,,,,,,,,,,,,,,,,,,,,,,,,,,,,,,0.009279469988541678,0.02127171598840505,0.02127171598840505,72.72463694299222,space,72.67351894101012,None,,,,,,,,,,,,,,,,,,,,,,,,,,,,,,,,,,,,,,,,,,,,,,,,,,,,,,,,,,,,,,,,,,,,,,,,,,,,,,,,,,,,,253054,001,2024-12-05_12h54.55.171,Test,2024.2.1,59.10287986638457,2024-12-05 12h55.23.515902 +0100,
,,,,,,,,,,,,,,,,,,,,,,,,,,,,,,,,,,,,,,,,72.72471248799411,72.74716736099799,72.74716736099799,89.64120345799893,space,16.883073018005234,None,,,,,,,,,,,,,,,,,,,,,,,,,,,,,,,,,,,,,,,,,,,,,,,,,,,,,,,,,,,,,,,,,,,,,,,,,,,,,,253054,001,2024-12-05_12h54.55.171,Test,2024.2.1,59.10287986638457,2024-12-05 12h55.23.515902 +0100,
,,,,,,,,,,,,,,,,,,,,,,,,,,,,,,,,,,,,,,,,,,,,,,,89.64130013999238,89.65643610799452,89.65643610799452,99.95838281098986,space,10.292986280997866,None,,,,,,,,,,,,,,,,,,,,,,,,,,,,,,,,,,,,,,,,,,,,,,,,,,,,,,,,,,,,,,,,,,,,,,,253054,001,2024-12-05_12h54.55.171,Test,2024.2.1,59.10287986638457,2024-12-05 12h55.23.515902 +0100,
15,150,60,18,None,0,0,0,,,,,,,,0,0,0,14,,,,,,,,,,,,,99.98453769998741,,,,,,,,,,,,,,,,,,,,,,,99.97506228799466,99.98453769998741,100.17360906398972,100.17360906398972,100.18988248599635,101.87440029199934,101.87440029199934,101.85833078199357,,,,,,,,,,,,,,,,,,,,,,,,,,,,,,,,,,,,,,,,,,,,,,,,,,,,,,,,,,,,,,,253054,001,2024-12-05_12h54.55.171,Test,2024.2.1,59.10287986638457,2024-12-05 12h55.23.515902 +0100,
35,150,180,7,None,1,1,0,,,,,,,,0,1,1,34,,,,,,,,,,,,,101.87440029199934,,,,,,,,,,,,,,,,,,,,,,,101.86538025499613,101.87440029199934,102.0566378569929,102.0566378569929,102.08970525499899,103.7573949489888,103.7573949489888,103.74086270098633,,,,,,,,,,,,,,,,,,,,,,,,,,,,,,,,,,,,,,,,,,,,,,,,,,,,,,,,,,,,,,,253054,001,2024-12-05_12h54.55.171,Test,2024.2.1,59.10287986638457,2024-12-05 12h55.23.515902 +0100,
5,150,0,31,None,2,2,0,,,,,,,,0,2,2,4,,,,,,,,,,,,,103.7573949489888,,,,,,,,,,,,,,,,,,,,,,,103.74698299598822,103.77347079699393,103.97370775399031,103.97370775399031,103.97370775399031,105.67539214898716,105.67539214898716,105.65762115198595,,,,,,,,,,,,,,,,,,,,,,,,,,,,,,,,,,,,,,,,,,,,,,,,,,,,,,,,,,,,,,,253054,001,2024-12-05_12h54.55.171,Test,2024.2.1,59.10287986638457,2024-12-05 12h55.23.515902 +0100,
10,150,30,36,None,3,3,0,,,,,,,,0,3,3,9,,,,,,,,,,,,,105.67539214898716,,,,,,,,,,,,,,,,,,,,,,,105.66510769398883,105.67539214898716,105.87353936598811,105.87353936598811,105.89063716999954,107.57350755098742,107.57350755098742,107.55841118498938,,,,,,,,,,,,,,,,,,,,,,,,,,,,,,,,,,,,,,,,,,,,,,,,,,,,,,,,,,,,,,,253054,001,2024-12-05_12h54.55.171,Test,2024.2.1,59.10287986638457,2024-12-05 12h55.23.515902 +0100,
12,150,60,59,None,4,4,0,,,,,,,,0,4,4,11,,,,,,,,,,,,,107.57350755098742,,,,,,,,,,,,,,,,,,,,,,,107.56521526198776,107.57350755098742,107.75769455599948,107.75769455599948,107.77359869099746,109.46009421099734,109.46009421099734,109.44163440699049,,,,,,,,,,,,,,,,,,,,,,,,,,,,,,,,,,,,,,,,,,,,,,,,,,,,,,,,,,,,,,,253054,001,2024-12-05_12h54.55.171,Test,2024.2.1,59.10287986638457,2024-12-05 12h55.23.515902 +0100,
27,150,150,42,None,5,5,0,,,,,,,,0,5,5,26,,,,,,,,,,,,,109.46009421099734,,,,,,,,,,,,,,,,,,,,,,,109.45106517599197,109.47383232899301,109.65712861299107,109.65712861299107,109.67441796899948,111.3574419409997,111.3574419409997,111.3410504989879,,,,,,,,,,,,,,,,,,,,,,,,,,,,,,,,,,,,,,,,,,,,,,,,,,,,,,,,,,,,,,,253054,001,2024-12-05_12h54.55.171,Test,2024.2.1,59.10287986638457,2024-12-05 12h55.23.515902 +0100,
24,150,120,50,None,6,6,0,,,,,,,,0,6,6,23,,,,,,,,,,,,,111.3574419409997,,,,,,,,,,,,,,,,,,,,,,,111.34687909799686,111.37400058699131,111.5571614359942,111.5571614359942,111.57437495599152,113.25805571698584,113.25805571698584,113.24229347499204,,,,,,,,,,,,,,,,,,,,,,,,,,,,,,,,,,,,,,,,,,,,,,,,,,,,,,,,,,,,,,,253054,001,2024-12-05_12h54.55.171,Test,2024.2.1,59.10287986638457,2024-12-05 12h55.23.515902 +0100,
7,150,30,10,None,7,7,0,,,,,,,,0,7,7,6,,,,,,,,,,,,,113.25805571698584,,,,,,,,,,,,,,,,,,,,,,,113.24890904099448,113.25805571698584,113.45760469399102,113.45760469399102,113.45760469399102,115.16290303099959,115.16290303099959,115.14158345999022,,,,,,,,,,,,,,,,,,,,,,,,,,,,,,,,,,,,,,,,,,,,,,,,,,,,,,,,,,,,,,,253054,001,2024-12-05_12h54.55.171,Test,2024.2.1,59.10287986638457,2024-12-05 12h55.23.515902 +0100,
17,150,90,34,None,8,8,0,,,,,,,,0,8,8,16,,,,,,,,,,,,,115.16290303099959,,,,,,,,,,,,,,,,,,,,,,,115.15548458699777,115.17424018098973,115.37416390699218,115.37416390699218,115.37416390699218,117.0822549029981,117.0822549029981,117.05848746599804,,,,,,,,,,,,,,,,,,,,,,,,,,,,,,,,,,,,,,,,,,,,,,,,,,,,,,,,,,,,,,,253054,001,2024-12-05_12h54.55.171,Test,2024.2.1,59.10287986638457,2024-12-05 12h55.23.515902 +0100,
4,150,0,27,None,9,9,0,,,,,,,,0,9,9,3,,,,,,,,,,,,,117.0822549029981,,,,,,,,,,,,,,,,,,,,,,,117.0752999749966,117.0822549029981,117.25800067199452,117.25800067199452,117.29167648399016,118.96559706199332,118.96559706199332,118.9419822459895,,,,,,,,,,,,,,,,,,,,,,,,,,,,,,,,,,,,,,,,,,,,,,,,,,,,,,,,,,,,,,,253054,001,2024-12-05_12h54.55.171,Test,2024.2.1,59.10287986638457,2024-12-05 12h55.23.515902 +0100,
28,150,150,32,None,10,10,0,,,,,,,,0,10,10,27,,,,,,,,,,,,,118.96559706199332,,,,,,,,,,,,,,,,,,,,,,,118.95901081999182,118.96559706199332,119.15798146599263,119.15798146599263,119.17445834699902,120.85773117099598,120.85773117099598,120.84247625299031,,,,,,,,,,,,,,,,,,,,,,,,,,,,,,,,,,,,,,,,,,,,,,,,,,,,,,,,,,,,,,,253054,001,2024-12-05_12h54.55.171,Test,2024.2.1,59.10287986638457,2024-12-05 12h55.23.515902 +0100,
3,150,0,14,None,11,11,0,,,,,,,,0,11,11,2,,,,,,,,,,,,,120.85773117099598,,,,,,,,,,,,,,,,,,,,,,,120.84961369499797,120.85773117099598,121.05810301699967,121.05810301699967,121.05810301699967,122.75839719299984,122.75839719299984,122.74267329699069,,,,,,,,,,,,,,,,,,,,,,,,,,,,,,,,,,,,,,,,,,,,,,,,,,,,,,,,,,,,,,,253054,001,2024-12-05_12h54.55.171,Test,2024.2.1,59.10287986638457,2024-12-05 12h55.23.515902 +0100,
23,150,120,65,None,12,12,0,,,,,,,,0,12,12,22,,,,,,,,,,,,,122.75839719299984,,,,,,,,,,,,,,,,,,,,,,,122.74860432998685,122.75839719299984,122.9588192099909,122.9588192099909,122.9588192099909,124.65855843298777,124.65855843298777,124.64278228298645,,,,,,,,,,,,,,,,,,,,,,,,,,,,,,,,,,,,,,,,,,,,,,,,,,,,,,,,,,,,,,,253054,001,2024-12-05_12h54.55.171,Test,2024.2.1,59.10287986638457,2024-12-05 12h55.23.515902 +0100,
18,150,90,60,None,13,13,0,,,,,,,,0,13,13,17,,,,,,,,,,,,,124.65855843298777,,,,,,,,,,,,,,,,,,,,,,,124.64837667599204,124.65855843298777,124.85887869499857,124.85887869499857,124.85887869499857,126.5583912509901,126.5583912509901,126.5432990299887,,,,,,,,,,,,,,,,,,,,,,,,,,,,,,,,,,,,,,,,,,,,,,,,,,,,,,,,,,,,,,,253054,001,2024-12-05_12h54.55.171,Test,2024.2.1,59.10287986638457,2024-12-05 12h55.23.515902 +0100,
31,150,180,20,None,14,14,0,,,,,,,,0,14,14,30,,,,,,,,,,,,,126.5583912509901,,,,,,,,,,,,,,,,,,,,,,,126.5493001099967,126.5583912509901,126.75941219099332,126.75941219099332,126.75941219099332,128.45867514499696,128.45867514499696,128.44383467399166,,,,,,,,,,,,,,,,,,,,,,,,,,,,,,,,,,,,,,,,,,,,,,,,,,,,,,,,,,,,,,,253054,001,2024-12-05_12h54.55.171,Test,2024.2.1,59.10287986638457,2024-12-05 12h55.23.515902 +0100,
1,150,0,9,None,15,15,0,,,,,,,,0,15,15,0,,,,,,,,,,,,,128.45867514499696,,,,,,,,,,,,,,,,,,,,,,,128.44967645399447,128.45867514499696,128.65908908798883,128.65908908798883,128.65908908798883,130.36006682198786,130.36006682198786,130.34371669098618,,,,,,,,,,,,,,,,,,,,,,,,,,,,,,,,,,,,,,,,,,,,,,,,,,,,,,,,,,,,,,,253054,001,2024-12-05_12h54.55.171,Test,2024.2.1,59.10287986638457,2024-12-05 12h55.23.515902 +0100,
19,150,90,12,None,16,16,0,,,,,,,,0,16,16,18,,,,,,,,,,,,,130.36006682198786,,,,,,,,,,,,,,,,,,,,,,,130.3514167409885,130.36006682198786,130.56119495199528,130.56119495199528,130.57574623099936,,,132.2593125919957,,,,,,,,,,,,,,,,,,,,,,,,,,,,,,,,,,,,,,,,,,,,,,,,,,,,,,,,,,,,,,,253054,001,2024-12-05_12h54.55.171,Test,2024.2.1,59.10287986638457,2024-12-05 12h55.23.515902 +0100,
13,150,60,15,None,17,17,0,,,,,,,,0,17,17,12,,,,,,,,,,,,,132.2751801819977,,,,,,,,,,,,,,,,,,,,,,,132.26481608799077,132.2751801819977,132.460121540993,132.460121540993,132.47709565999685,134.15946340998926,134.15946340998926,134.14392448899162,,,,,,,,,,,,,,,,,,,,,,,,,,,,,,,,,,,,,,,,,,,,,,,,,,,,,,,,,,,,,,,253054,001,2024-12-05_12h54.55.171,Test,2024.2.1,59.10287986638457,2024-12-05 12h55.23.515902 +0100,
8,150,30,28,None,18,18,0,,,,,,,,0,18,18,7,,,,,,,,,,,,,134.15946340998926,,,,,,,,,,,,,,,,,,,,,,,134.151328973996,134.15946340998926,134.35991931399622,134.35991931399622,134.35991931399622,136.05897776699567,136.05897776699567,136.04403684999852,,,,,,,,,,,,,,,,,,,,,,,,,,,,,,,,,,,,,,,,,,,,,,,,,,,,,,,,,,,,,,,253054,001,2024-12-05_12h54.55.171,Test,2024.2.1,59.10287986638457,2024-12-05 12h55.23.515902 +0100,
30,150,150,4,None,19,19,0,,,,,,,,0,19,19,29,,,,,,,,,,,,,136.05897776699567,,,,,,,,,,,,,,,,,,,,,,,136.05015255699982,136.05897776699567,136.2594396689965,136.2594396689965,136.2594396689965,137.9597945919959,137.9597945919959,137.94407959199452,,,,,,,,,,,,,,,,,,,,,,,,,,,,,,,,,,,,,,,,,,,,,,,,,,,,,,,,,,,,,,,253054,001,2024-12-05_12h54.55.171,Test,2024.2.1,59.10287986638457,2024-12-05 12h55.23.515902 +0100,
32,150,180,21,None,20,20,0,,,,,,,,0,20,20,31,,,,,,,,,,,,,137.9597945919959,,,,,,,,,,,,,,,,,,,,,,,137.95117438099987,137.9597945919959,138.15960021299543,138.15960021299543,138.15960021299543,139.85970179899596,139.85970179899596,139.8437008309993,,,,,,,,,,,,,,,,,,,,,,,,,,,,,,,,,,,,,,,,,,,,,,,,,,,,,,,,,,,,,,,253054,001,2024-12-05_12h54.55.171,Test,2024.2.1,59.10287986638457,2024-12-05 12h55.23.515902 +0100,
16,150,90,25,None,21,21,0,,,,,,,,0,21,21,15,,,,,,,,,,,,,139.85970179899596,,,,,,,,,,,,,,,,,,,,,,,139.84877370898903,139.85970179899596,140.06012346698844,140.06012346698844,140.06012346698844,141.76276886599953,141.76276886599953,141.74506551999366,,,,,,,,,,,,,,,,,,,,,,,,,,,,,,,,,,,,,,,,,,,,,,,,,,,,,,,,,,,,,,,253054,001,2024-12-05_12h54.55.171,Test,2024.2.1,59.10287986638457,2024-12-05 12h55.23.515902 +0100,
26,150,150,57,None,22,22,0,,,,,,,,0,22,22,25,,,,,,,,,,,,,141.76276886599953,,,,,,,,,,,,,,,,,,,,,,,141.75445358299476,141.76276886599953,141.95968215999892,141.95968215999892,141.97650112898555,143.6595993069932,143.6595993069932,143.64404295598797,,,,,,,,,,,,,,,,,,,,,,,,,,,,,,,,,,,,,,,,,,,,,,,,,,,,,,,,,,,,,,,253054,001,2024-12-05_12h54.55.171,Test,2024.2.1,59.10287986638457,2024-12-05 12h55.23.515902 +0100,
6,150,30,17,None,23,23,0,,,,,,,,0,23,23,5,,,,,,,,,,,,,143.6595993069932,,,,,,,,,,,,,,,,,,,,,,,143.65133491999586,143.6595993069932,143.86043491099554,143.86043491099554,143.86043491099554,145.56060808099573,145.56060808099573,145.54485787299927,,,,,,,,,,,,,,,,,,,,,,,,,,,,,,,,,,,,,,,,,,,,,,,,,,,,,,,,,,,,,,,253054,001,2024-12-05_12h54.55.171,Test,2024.2.1,59.10287986638457,2024-12-05 12h55.23.515902 +0100,
14,150,60,5,None,24,24,0,,,,,,,,0,24,24,13,,,,,,,,,,,,,145.56060808099573,,,,,,,,,,,,,,,,,,,,,,,145.55176662899612,145.56060808099573,145.76013180299196,145.76013180299196,145.76013180299196,147.46019161898585,147.46019161898585,147.4442640129855,,,,,,,,,,,,,,,,,,,,,,,,,,,,,,,,,,,,,,,,,,,,,,,,,,,,,,,,,,,,,,,253054,001,2024-12-05_12h54.55.171,Test,2024.2.1,59.10287986638457,2024-12-05 12h55.23.515902 +0100,
22,150,120,40,None,25,25,0,,,,,,,,0,25,25,21,,,,,,,,,,,,,147.46019161898585,,,,,,,,,,,,,,,,,,,,,,,147.4508218869887,147.46019161898585,147.66010539099807,147.66010539099807,147.66010539099807,149.3601790459943,149.3601790459943,149.34446523299266,,,,,,,,,,,,,,,,,,,,,,,,,,,,,,,,,,,,,,,,,,,,,,,,,,,,,,,,,,,,,,,253054,001,2024-12-05_12h54.55.171,Test,2024.2.1,59.10287986638457,2024-12-05 12h55.23.515902 +0100,
11,150,60,46,None,26,26,0,,,,,,,,0,26,26,10,,,,,,,,,,,,,149.3601790459943,,,,,,,,,,,,,,,,,,,,,,,149.34967579098884,149.3601790459943,149.56079311198846,149.56079311198846,149.56079311198846,151.2600025779975,151.2600025779975,151.244344516992,,,,,,,,,,,,,,,,,,,,,,,,,,,,,,,,,,,,,,,,,,,,,,,,,,,,,,,,,,,,,,,253054,001,2024-12-05_12h54.55.171,Test,2024.2.1,59.10287986638457,2024-12-05 12h55.23.515902 +0100,
2,150,0,41,None,27,27,0,,,,,,,,0,27,27,1,,,,,,,,,,,,,151.2600025779975,,,,,,,,,,,,,,,,,,,,,,,151.25020782799402,151.2600025779975,151.46018367999932,151.46018367999932,151.46018367999932,153.16042938899773,153.16042938899773,153.14491646199895,,,,,,,,,,,,,,,,,,,,,,,,,,,,,,,,,,,,,,,,,,,,,,,,,,,,,,,,,,,,,,,253054,001,2024-12-05_12h54.55.171,Test,2024.2.1,59.10287986638457,2024-12-05 12h55.23.515902 +0100,
33,150,180,54,None,28,28,0,,,,,,,,0,28,28,32,,,,,,,,,,,,,153.16042938899773,,,,,,,,,,,,,,,,,,,,,,,153.15080803798628,153.16042938899773,153.36086229799548,153.36086229799548,153.36086229799548,155.06429981198744,155.06429981198744,155.04624871099077,,,,,,,,,,,,,,,,,,,,,,,,,,,,,,,,,,,,,,,,,,,,,,,,,,,,,,,,,,,,,,,253054,001,2024-12-05_12h54.55.171,Test,2024.2.1,59.10287986638457,2024-12-05 12h55.23.515902 +0100,
20,150,90,44,None,29,29,0,,,,,,,,0,29,29,19,,,,,,,,,,,,,155.06429981198744,,,,,,,,,,,,,,,,,,,,,,,155.05610038198938,155.06429981198744,155.261114162,155.261114162,155.2772433279897,156.96041622899065,156.96041622899065,156.94488450199424,,,,,,,,,,,,,,,,,,,,,,,,,,,,,,,,,,,,,,,,,,,,,,,,,,,,,,,,,,,,,,,253054,001,2024-12-05_12h54.55.171,Test,2024.2.1,59.10287986638457,2024-12-05 12h55.23.515902 +0100,
9,150,30,47,None,30,30,0,,,,,,,,0,30,30,8,,,,,,,,,,,,,156.96041622899065,,,,,,,,,,,,,,,,,,,,,,,156.9505029689899,156.96041622899065,157.16176471899962,157.16176471899962,157.16176471899962,158.8639012079948,158.8639012079948,158.84613546999753,,,,,,,,,,,,,,,,,,,,,,,,,,,,,,,,,,,,,,,,,,,,,,,,,,,,,,,,,,,,,,,253054,001,2024-12-05_12h54.55.171,Test,2024.2.1,59.10287986638457,2024-12-05 12h55.23.515902 +0100,
34,150,180,38,None,31,31,0,,,,,,,,0,31,31,33,,,,,,,,,,,,,158.8639012079948,,,,,,,,,,,,,,,,,,,,,,,158.85548424099397,158.8639012079948,159.06099131099472,159.06099131099472,159.077678843998,160.76114471099572,160.76114471099572,160.7455036129977,,,,,,,,,,,,,,,,,,,,,,,,,,,,,,,,,,,,,,,,,,,,,,,,,,,,,,,,,,,,,,,253054,001,2024-12-05_12h54.55.171,Test,2024.2.1,59.10287986638457,2024-12-05 12h55.23.515902 +0100,
29,150,150,35,None,32,32,0,,,,,,,,0,32,32,28,,,,,,,,,,,,,160.76114471099572,,,,,,,,,,,,,,,,,,,,,,,160.7525697779929,160.76114471099572,160.96093277499313,160.96093277499313,160.96093277499313,162.66120793599111,162.66120793599111,162.64555825399293,,,,,,,,,,,,,,,,,,,,,,,,,,,,,,,,,,,,,,,,,,,,,,,,,,,,,,,,,,,,,,,253054,001,2024-12-05_12h54.55.171,Test,2024.2.1,59.10287986638457,2024-12-05 12h55.23.515902 +0100,
25,150,120,22,None,33,33,0,,,,,,,,0,33,33,24,,,,,,,,,,,,,162.66120793599111,,,,,,,,,,,,,,,,,,,,,,,162.65138494198618,162.66120793599111,162.8615957479924,162.8615957479924,162.8615957479924,164.56091711699264,164.56091711699264,164.54545131899067,,,,,,,,,,,,,,,,,,,,,,,,,,,,,,,,,,,,,,,,,,,,,,,,,,,,,,,,,,,,,,,253054,001,2024-12-05_12h54.55.171,Test,2024.2.1,59.10287986638457,2024-12-05 12h55.23.515902 +0100,
21,150,120,23,None,34,34,0,,,,,,,,0,34,34,20,,,,,,,,,,,,,164.56091711699264,,,,,,,,,,,,,,,,,,,,,,,164.5509102079959,164.56091711699264,164.761580210994,164.761580210994,164.761580210994,166.4614278159861,166.4614278159861,166.44624262599973,,,,,,,,,,,,,,,,,,,,,,,,,,,,,,,,,,,,,,,,,,,,,,,,,,,,,,,,,,,,,,,253054,001,2024-12-05_12h54.55.171,Test,2024.2.1,59.10287986638457,2024-12-05 12h55.23.515902 +0100,
,,,,,,,,,,,,,,,,,,,,,,,,,,,,,,,,,,,,,,,,,,,,,,,,,,,,,,,,,,,,,,166.44643451098818,166.4614278159861,166.4614278159861,179.84792655499768,space,13.369701425996027,None,,,,,,,,,,,,,,,,,,,,,,,,,,,,,,,,,,,,,,,,,,,,,,,,,,,,,,,,253054,001,2024-12-05_12h54.55.171,Test,2024.2.1,59.10287986638457,2024-12-05 12h55.23.515902 +0100,
44,150,30,11,None,0,0,0,True,right,6.253758488994208,None,,,,,,,,0,0,0,0,,,,,,,,,179.87329429099918,,,,,,,,,,,,,,,,,,,,,,,,,,,,,,,,,,,,,,179.86466900799132,179.87329429099918,180.87915458298812,181.86275732298964,181.86275732298964,181.86275732298964,184.8633601909969,184.8633601909969,184.8633601909969,188.13157194199448,right,6.253758488994208,None,,,,,,,,,,,,,,,,,,,,,,,,,,,,,,,,,,,,,,,,,,,253054,001,2024-12-05_12h54.55.171,Test,2024.2.1,59.10287986638457,2024-12-05 12h55.23.515902 +0100,
20,150,90,44,None,1,1,0,False,right,1.2860221900045872,None,,,,,,,,0,1,1,1,,,,,,,,,188.1594502819935,,,,,,,,,,,,,,,,,,,,,,,,,,,,,,,,,,,,,,188.1351791529887,188.1594502819935,189.1632646319922,190.146414524992,190.146414524992,190.146414524992,,,,191.4484126499883,right,1.2860221900045872,None,,,,,,,,,,,,,,,,,,,,,,,,,,,,,,,,,,,,,,,,,,,253054,001,2024-12-05_12h54.55.171,Test,2024.2.1,59.10287986638457,2024-12-05 12h55.23.515902 +0100,
28,150,150,32,None,2,2,0,False,right,1.568363179001608,None,,,,,,,,0,2,2,2,,,,,,,,,191.46366686798865,,,,,,,,,,,,,,,,,,,,,,,,,,,,,,,,,,,,,,191.45399410498794,191.46366686798865,192.46415957499994,193.4636683419958,193.4636683419958,193.4636683419958,,,,195.048896865992,right,1.568363179001608,None,,,,,,,,,,,,,,,,,,,,,,,,,,,,,,,,,,,,,,,,,,,253054,001,2024-12-05_12h54.55.171,Test,2024.2.1,59.10287986638457,2024-12-05 12h55.23.515902 +0100,
49,150,60,30,None,3,3,0,True,left,1.5250079990073573,None,,,,,,,,0,3,3,3,,,,,,,,,195.0645272559923,,,,,,,,,,,,,,,,,,,,,,,,,,,,,,,,,,,,,,195.05499130499084,195.0645272559923,196.08041467799922,197.04789592699672,197.04789592699672,197.04789592699672,,,,198.58147862598707,left,1.5250079990073573,None,,,,,,,,,,,,,,,,,,,,,,,,,,,,,,,,,,,,,,,,,,,253054,001,2024-12-05_12h54.55.171,Test,2024.2.1,59.10287986638457,2024-12-05 12h55.23.515902 +0100,
40,150,0,45,None,4,4,0,True,left,1.5352007540059276,None,,,,,,,,0,4,4,4,,,,,,,,,198.5981385759951,,,,,,,,,,,,,,,,,,,,,,,,,,,,,,,,,,,,,,198.5888512609963,198.5981385759951,199.59825498699502,200.58140436898975,200.58140436898975,200.58140436898975,,,,202.13213782499952,left,1.5352007540059276,None,,,,,,,,,,,,,,,,,,,,,,,,,,,,,,,,,,,,,,,,,,,253054,001,2024-12-05_12h54.55.171,Test,2024.2.1,59.10287986638457,2024-12-05 12h55.23.515902 +0100,
6,150,30,17,None,5,5,0,False,right,1.4558391419996042,None,,,,,,,,0,5,5,5,,,,,,,,,202.14692202498554,,,,,,,,,,,,,,,,,,,,,,,,,,,,,,,,,,,,,,202.13582321199647,202.14692202498554,203.1483002419991,204.14733326599526,204.14733326599526,204.14733326599526,,,,205.61617171298712,right,1.4558391419996042,None,,,,,,,,,,,,,,,,,,,,,,,,,,,,,,,,,,,,,,,,,,,253054,001,2024-12-05_12h54.55.171,Test,2024.2.1,59.10287986638457,2024-12-05 12h55.23.515902 +0100,
22,150,120,40,None,6,6,0,False,right,1.0183977459964808,None,,,,,,,,0,6,6,6,,,,,,,,,205.6304671639955,,,,,,,,,,,,,,,,,,,,,,,,,,,,,,,,,,,,,,205.61976275399502,205.6304671639955,206.63122759299586,207.630797943988,207.630797943988,207.630797943988,,,,208.66678155699628,right,1.0183977459964808,None,,,,,,,,,,,,,,,,,,,,,,,,,,,,,,,,,,,,,,,,,,,253054,001,2024-12-05_12h54.55.171,Test,2024.2.1,59.10287986638457,2024-12-05 12h55.23.515902 +0100,
5,150,0,31,None,7,7,0,False,right,0.9275269030040363,None,,,,,,,,0,7,7,7,,,,,,,,,208.6821488239948,,,,,,,,,,,,,,,,,,,,,,,,,,,,,,,,,,,,,,208.6723411189887,208.6821488239948,209.68189026899927,210.68200099399837,210.68200099399837,210.68200099399837,,,,211.61631750699598,right,0.9275269030040363,None,,,,,,,,,,,,,,,,,,,,,,,,,,,,,,,,,,,,,,,,,,,253054,001,2024-12-05_12h54.55.171,Test,2024.2.1,59.10287986638457,2024-12-05 12h55.23.515902 +0100,
14,150,60,5,None,8,8,0,False,right,2.40001659700647,None,,,,,,,,0,8,8,8,,,,,,,,,211.63121545799368,,,,,,,,,,,,,,,,,,,,,,,,,,,,,,,,,,,,,,211.6201005699986,211.63121545799368,212.63243769999826,213.63194341099006,213.63194341099006,213.63194341099006,,,,216.03423755399126,right,2.40001659700647,None,,,,,,,,,,,,,,,,,,,,,,,,,,,,,,,,,,,,,,,,,,,253054,001,2024-12-05_12h54.55.171,Test,2024.2.1,59.10287986638457,2024-12-05 12h55.23.515902 +0100,
58,150,120,51,None,9,9,0,True,left,1.3147253600036493,None,,,,,,,,0,9,9,9,,,,,,,,,216.04988887099898,,,,,,,,,,,,,,,,,,,,,,,,,,,,,,,,,,,,,,216.04078989899426,216.04988887099898,217.0485007679963,218.04850227599673,218.04850227599673,218.04850227599673,,,,219.36728314998618,left,1.3147253600036493,None,,,,,,,,,,,,,,,,,,,,,,,,,,,,,,,,,,,,,,,,,,,253054,001,2024-12-05_12h54.55.171,Test,2024.2.1,59.10287986638457,2024-12-05 12h55.23.515902 +0100,
31,150,180,20,None,10,10,0,False,right,1.9773438139964128,None,,,,,,,,0,10,10,10,,,,,,,,,219.38320351399307,,,,,,,,,,,,,,,,,,,,,,,,,,,,,,,,,,,,,,219.37459214299452,219.38320351399307,220.38214782399882,221.38186293898616,221.38186293898616,221.38186293898616,,,,223.36780838899722,right,1.9773438139964128,None,,,,,,,,,,,,,,,,,,,,,,,,,,,,,,,,,,,,,,,,,,,253054,001,2024-12-05_12h54.55.171,Test,2024.2.1,59.10287986638457,2024-12-05 12h55.23.515902 +0100,
68,150,180,43,None,11,11,0,True,left,1.905225366994273,None,,,,,,,,0,11,11,11,,,,,,,,,223.38233959198988,,,,,,,,,,,,,,,,,,,,,,,,,,,,,,,,,,,,,,223.37349214298592,223.38233959198988,224.38219518099504,225.38261908499408,225.38261908499408,225.38261908499408,,,,227.30115701499744,left,1.905225366994273,None,,,,,,,,,,,,,,,,,,,,,,,,,,,,,,,,,,,,,,,,,,,253054,001,2024-12-05_12h54.55.171,Test,2024.2.1,59.10287986638457,2024-12-05 12h55.23.515902 +0100,
33,150,180,54,None,12,12,0,False,right,2.1069204149971483,None,,,,,,,,0,12,12,12,,,,,,,,,227.31618981999054,,,,,,,,,,,,,,,,,,,,,,,,,,,,,,,,,,,,,,227.30577585299034,227.31618981999054,228.31605400198896,229.3161457919923,229.3161457919923,229.3161457919923,,,,231.43411457398906,right,2.1069204149971483,None,,,,,,,,,,,,,,,,,,,,,,,,,,,,,,,,,,,,,,,,,,,253054,001,2024-12-05_12h54.55.171,Test,2024.2.1,59.10287986638457,2024-12-05 12h55.23.515902 +0100,
54,150,90,63,None,13,13,0,True,left,4.452490244002547,None,,,,,,,,0,13,13,13,,,,,,,,,231.45053539599758,,,,,,,,,,,,,,,,,,,,,,,,,,,,,,,,,,,,,,231.44158970999706,231.45053539599758,232.44975487599731,233.44992279500002,233.44992279500002,233.44992279500002,236.44956686398655,236.44956686398655,236.44956686398655,237.91867883199302,left,4.452490244002547,None,,,,,,,,,,,,,,,,,,,,,,,,,,,,,,,,,,,,,,,,,,,253054,001,2024-12-05_12h54.55.171,Test,2024.2.1,59.10287986638457,2024-12-05 12h55.23.515902 +0100,
52,150,90,69,None,14,14,0,True,left,2.000815049992525,None,,,,,,,,0,14,14,14,,,,,,,,,237.9334105619928,,,,,,,,,,,,,,,,,,,,,,,,,,,,,,,,,,,,,,237.92441611299,237.9334105619928,238.93304667899793,239.9331441319955,239.9331441319955,239.9331441319955,,,,241.95258052299323,left,2.000815049992525,None,,,,,,,,,,,,,,,,,,,,,,,,,,,,,,,,,,,,,,,,,,,253054,001,2024-12-05_12h54.55.171,Test,2024.2.1,59.10287986638457,2024-12-05 12h55.23.515902 +0100,
64,150,150,55,None,15,15,0,True,right,1.360812878003344,None,,,,,,,,0,15,15,15,,,,,,,,,241.96947260499292,,,,,,,,,,,,,,,,,,,,,,,,,,,,,,,,,,,,,,241.9601964669855,241.96947260499292,242.98399743699702,243.96686641099222,243.96686641099222,243.96686641099222,,,,245.33501827999135,right,1.360812878003344,None,,,,,,,,,,,,,,,,,,,,,,,,,,,,,,,,,,,,,,,,,,,253054,001,2024-12-05_12h54.55.171,Test,2024.2.1,59.10287986638457,2024-12-05 12h55.23.515902 +0100,
35,150,180,7,None,16,16,0,False,right,1.8287134819984203,None,,,,,,,,0,16,16,16,,,,,,,,,245.3509267979971,,,,,,,,,,,,,,,,,,,,,,,,,,,,,,,,,,,,,,245.3422508329968,245.3509267979971,246.35034014799749,247.35029195298557,247.35029195298557,247.35029195298557,,,,249.186172865986,right,1.8287134819984203,None,,,,,,,,,,,,,,,,,,,,,,,,,,,,,,,,,,,,,,,,,,,253054,001,2024-12-05_12h54.55.171,Test,2024.2.1,59.10287986638457,2024-12-05 12h55.23.515902 +0100,
24,150,120,50,None,17,17,0,False,right,1.4526514500030316,None,,,,,,,,0,17,17,17,,,,,,,,,249.20164962799754,,,,,,,,,,,,,,,,,,,,,,,,,,,,,,,,,,,,,,249.19280351499037,249.20164962799754,250.21720726099738,251.2014339849993,251.2014339849993,251.2014339849993,,,,252.66885856899898,right,1.4526514500030316,None,,,,,,,,,,,,,,,,,,,,,,,,,,,,,,,,,,,,,,,,,,,253054,001,2024-12-05_12h54.55.171,Test,2024.2.1,59.10287986638457,2024-12-05 12h55.23.515902 +0100,
60,150,120,58,None,18,18,0,True,left,2.458023747007246,None,,,,,,,,0,18,18,18,,,,,,,,,252.68348411499755,,,,,,,,,,,,,,,,,,,,,,,,,,,,,,,,,,,,,,252.67410785298853,252.68348411499755,253.68488069198793,254.68455045399605,254.68455045399605,254.68455045399605,,,,257.1529130469862,left,2.458023747007246,None,,,,,,,,,,,,,,,,,,,,,,,,,,,,,,,,,,,,,,,,,,,253054,001,2024-12-05_12h54.55.171,Test,2024.2.1,59.10287986638457,2024-12-05 12h55.23.515902 +0100,
46,150,60,68,None,19,19,0,True,left,3.5006275869964156,None,,,,,,,,0,19,19,19,,,,,,,,,257.18296962199383,,,,,,,,,,,,,,,,,,,,,,,,,,,,,,,,,,,,,,257.1604041499959,257.18296962199383,258.1846466559946,259.1678765599936,259.1678765599936,259.1678765599936,262.1776393669861,262.1776393669861,262.1776393669861,262.6709020649869,left,3.5006275869964156,None,,,,,,,,,,,,,,,,,,,,,,,,,,,,,,,,,,,,,,,,,,,253054,001,2024-12-05_12h54.55.171,Test,2024.2.1,59.10287986638457,2024-12-05 12h55.23.515902 +0100,
23,150,120,65,None,20,20,0,False,right,1.3679416829982074,None,,,,,,,,0,20,20,20,,,,,,,,,262.6863407849887,,,,,,,,,,,,,,,,,,,,,,,,,,,,,,,,,,,,,,262.67770905198995,262.6863407849887,263.70198116998654,264.6847800129908,264.6847800129908,264.6847800129908,,,,266.05501046999416,right,1.3679416829982074,None,,,,,,,,,,,,,,,,,,,,,,,,,,,,,,,,,,,,,,,,,,,253054,001,2024-12-05_12h54.55.171,Test,2024.2.1,59.10287986638457,2024-12-05 12h55.23.515902 +0100,
45,150,30,37,None,21,21,0,True,left,1.7797174470033497,None,,,,,,,,0,21,21,21,,,,,,,,,266.07119482799317,,,,,,,,,,,,,,,,,,,,,,,,,,,,,,,,,,,,,,266.06222211899876,266.07119482799317,267.08520707099524,268.0698484329914,268.0698484329914,268.0698484329914,,,,269.85418553899217,left,1.7797174470033497,None,,,,,,,,,,,,,,,,,,,,,,,,,,,,,,,,,,,,,,,,,,,253054,001,2024-12-05_12h54.55.171,Test,2024.2.1,59.10287986638457,2024-12-05 12h55.23.515902 +0100,
32,150,180,21,None,22,22,0,False,right,1.1521664169995347,None,,,,,,,,0,22,22,22,,,,,,,,,269.87096062699857,,,,,,,,,,,,,,,,,,,,,,,,,,,,,,,,,,,,,,269.86161025598994,269.87096062699857,270.88517262598907,271.8688663089997,271.8688663089997,271.8688663089997,,,,273.037475153993,right,1.1521664169995347,None,,,,,,,,,,,,,,,,,,,,,,,,,,,,,,,,,,,,,,,,,,,253054,001,2024-12-05_12h54.55.171,Test,2024.2.1,59.10287986638457,2024-12-05 12h55.23.515902 +0100,
66,150,180,62,None,23,23,0,True,left,1.9717590079962974,None,,,,,,,,0,23,23,23,,,,,,,,,273.0542817789974,,,,,,,,,,,,,,,,,,,,,,,,,,,,,,,,,,,,,,273.044738297991,273.0542817789974,274.06902763899416,275.05268685698684,275.05268685698684,275.05268685698684,,,,277.03724098599923,left,1.9717590079962974,None,,,,,,,,,,,,,,,,,,,,,,,,,,,,,,,,,,,,,,,,,,,253054,001,2024-12-05_12h54.55.171,Test,2024.2.1,59.10287986638457,2024-12-05 12h55.23.515902 +0100,
11,150,60,46,None,24,24,0,False,right,1.2810638820083113,None,,,,,,,,0,24,24,24,,,,,,,,,277.0530964869977,,,,,,,,,,,,,,,,,,,,,,,,,,,,,,,,,,,,,,277.04465480998624,277.0530964869977,278.0524676819914,279.0363260419981,279.0363260419981,279.0363260419981,,,,280.3215253119997,right,1.2810638820083113,None,,,,,,,,,,,,,,,,,,,,,,,,,,,,,,,,,,,,,,,,,,,253054,001,2024-12-05_12h54.55.171,Test,2024.2.1,59.10287986638457,2024-12-05 12h55.23.515902 +0100,
15,150,60,18,None,25,25,0,False,left,6.40707589800877,None,,,,,,,,0,25,25,25,,,,,,,,,280.33591329699266,,,,,,,,,,,,,,,,,,,,,,,,,,,,,,,,,,,,,,280.3268680439942,280.33591329699266,281.33594347999315,282.33627984499617,282.33627984499617,282.33627984499617,285.3362224429875,285.3362224429875,285.3362224429875,288.7545537119877,left,6.40707589800877,None,,,,,,,,,,,,,,,,,,,,,,,,,,,,,,,,,,,,,,,,,,,253054,001,2024-12-05_12h54.55.171,Test,2024.2.1,59.10287986638457,2024-12-05 12h55.23.515902 +0100,
10,150,30,36,None,26,26,0,False,right,0.8595807609963231,None,,,,,,,,0,26,26,26,,,,,,,,,288.7709169039881,,,,,,,,,,,,,,,,,,,,,,,,,,,,,,,,,,,,,,288.7612512279884,288.7709169039881,289.7699738879892,290.77009662899945,290.77009662899945,290.77009662899945,,,,291.63827648998995,right,0.8595807609963231,None,,,,,,,,,,,,,,,,,,,,,,,,,,,,,,,,,,,,,,,,,,,253054,001,2024-12-05_12h54.55.171,Test,2024.2.1,59.10287986638457,2024-12-05 12h55.23.515902 +0100,
2,150,0,41,None,27,27,0,False,right,0.8532157970039407,None,,,,,,,,0,27,27,27,,,,,,,,,291.65388259099564,,,,,,,,,,,,,,,,,,,,,,,,,,,,,,,,,,,,,,291.6438947519928,291.65388259099564,292.6530374419963,293.6535801769933,293.6535801769933,293.6535801769933,,,,294.522467073999,right,0.8532157970039407,None,,,,,,,,,,,,,,,,,,,,,,,,,,,,,,,,,,,,,,,,,,,253054,001,2024-12-05_12h54.55.171,Test,2024.2.1,59.10287986638457,2024-12-05 12h55.23.515902 +0100,
36,150,0,2,None,28,28,0,True,left,1.8265454079955816,None,,,,,,,,0,28,28,28,,,,,,,,,294.5387168189918,,,,,,,,,,,,,,,,,,,,,,,,,,,,,,,,,,,,,,294.5297910169902,294.5387168189918,295.553547626987,296.53732089098776,296.53732089098776,296.53732089098776,,,,298.37306108299526,left,1.8265454079955816,None,,,,,,,,,,,,,,,,,,,,,,,,,,,,,,,,,,,,,,,,,,,253054,001,2024-12-05_12h54.55.171,Test,2024.2.1,59.10287986638457,2024-12-05 12h55.23.515902 +0100,
47,150,60,52,None,29,29,0,True,left,1.4002970340079628,None,,,,,,,,0,29,29,29,,,,,,,,,298.39495646199794,,,,,,,,,,,,,,,,,,,,,,,,,,,,,,,,,,,,,,298.38715455599595,298.39495646199794,299.40437170698715,300.37121041199134,300.37121041199134,300.37121041199134,,,,301.77402719199017,left,1.4002970340079628,None,,,,,,,,,,,,,,,,,,,,,,,,,,,,,,,,,,,,,,,,,,,253054,001,2024-12-05_12h54.55.171,Test,2024.2.1,59.10287986638457,2024-12-05 12h55.23.515902 +0100,
18,150,90,60,None,30,30,0,False,right,0.9050257729977602,None,,,,,,,,0,30,30,30,,,,,,,,,301.7884942219971,,,,,,,,,,,,,,,,,,,,,,,,,,,,,,,,,,,,,,301.77911720199336,301.7884942219971,302.78787967399694,303.78793443799077,303.78793443799077,303.78793443799077,,,,304.7064007359877,right,0.9050257729977602,None,,,,,,,,,,,,,,,,,,,,,,,,,,,,,,,,,,,,,,,,,,,253054,001,2024-12-05_12h54.55.171,Test,2024.2.1,59.10287986638457,2024-12-05 12h55.23.515902 +0100,
4,150,0,27,None,31,31,0,False,right,1.7102668459992856,None,,,,,,,,0,31,31,31,,,,,,,,,304.72228557799826,,,,,,,,,,,,,,,,,,,,,,,,,,,,,,,,,,,,,,304.7133488099935,304.72228557799826,305.72126343999116,306.72223532899807,306.72223532899807,306.72223532899807,,,,308.4414022159908,right,1.7102668459992856,None,,,,,,,,,,,,,,,,,,,,,,,,,,,,,,,,,,,,,,,,,,,253054,001,2024-12-05_12h54.55.171,Test,2024.2.1,59.10287986638457,2024-12-05 12h55.23.515902 +0100,
21,150,120,23,None,32,32,0,False,right,1.15124044699769,None,,,,,,,,0,32,32,32,,,,,,,,,308.4579696199944,,,,,,,,,,,,,,,,,,,,,,,,,,,,,,,,,,,,,,308.44877268398704,308.4579696199944,309.47141574299894,310.45464563398855,310.45464563398855,310.45464563398855,,,,311.6240072209912,right,1.15124044699769,None,,,,,,,,,,,,,,,,,,,,,,,,,,,,,,,,,,,,,,,,,,,253054,001,2024-12-05_12h54.55.171,Test,2024.2.1,59.10287986638457,2024-12-05 12h55.23.515902 +0100,
42,150,30,19,None,33,33,0,True,right,2.7853424030035967,None,,,,,,,,0,33,33,33,,,,,,,,,311.6386440829956,,,,,,,,,,,,,,,,,,,,,,,,,,,,,,,,,,,,,,311.62976291899395,311.6386440829956,312.63815001098556,313.63887359999353,313.63887359999353,313.63887359999353,,,,316.4405847119924,right,2.7853424030035967,None,,,,,,,,,,,,,,,,,,,,,,,,,,,,,,,,,,,,,,,,,,,253054,001,2024-12-05_12h54.55.171,Test,2024.2.1,59.10287986638457,2024-12-05 12h55.23.515902 +0100,
55,150,90,29,None,34,34,0,True,left,2.66811023199989,None,,,,,,,,0,34,34,34,,,,,,,,,316.4566812529956,,,,,,,,,,,,,,,,,,,,,,,,,,,,,,,,,,,,,,316.44718289199227,316.4566812529956,317.4724003579904,318.45516265799233,318.45516265799233,318.45516265799233,,,,321.14124765299493,left,2.66811023199989,None,,,,,,,,,,,,,,,,,,,,,,,,,,,,,,,,,,,,,,,,,,,253054,001,2024-12-05_12h54.55.171,Test,2024.2.1,59.10287986638457,2024-12-05 12h55.23.515902 +0100,
67,150,180,70,None,35,35,0,True,left,1.2665027839975664,None,,,,,,,,0,35,35,35,,,,,,,,,321.1562413699867,,,,,,,,,,,,,,,,,,,,,,,,,,,,,,,,,,,,,,321.14669066098577,321.1562413699867,322.15549138298957,323.1560831579991,323.1560831579991,323.1560831579991,,,,324.4249427369941,left,1.2665027839975664,None,,,,,,,,,,,,,,,,,,,,,,,,,,,,,,,,,,,,,,,,,,,253054,001,2024-12-05_12h54.55.171,Test,2024.2.1,59.10287986638457,2024-12-05 12h55.23.515902 +0100,
63,150,150,33,None,36,36,0,True,right,1.2018964630115079,None,,,,,,,,0,36,36,36,,,,,,,,,324.43998736399226,,,,,,,,,,,,,,,,,,,,,,,,,,,,,,,,,,,,,,324.4308406869968,324.43998736399226,325.45533738599624,326.4390373609931,326.4390373609931,326.4390373609931,,,,327.6581668539875,right,1.2018964630115079,None,,,,,,,,,,,,,,,,,,,,,,,,,,,,,,,,,,,,,,,,,,,253054,001,2024-12-05_12h54.55.171,Test,2024.2.1,59.10287986638457,2024-12-05 12h55.23.515902 +0100,
70,150,180,67,None,37,37,0,True,right,1.6433697409956949,None,,,,,,,,0,37,37,37,,,,,,,,,327.67320733999077,,,,,,,,,,,,,,,,,,,,,,,,,,,,,,,,,,,,,,327.66482445198926,327.67320733999077,328.6727492619975,329.67277259098773,329.67277259098773,329.67277259098773,,,,331.3243823149969,right,1.6433697409956949,None,,,,,,,,,,,,,,,,,,,,,,,,,,,,,,,,,,,,,,,,,,,253054,001,2024-12-05_12h54.55.171,Test,2024.2.1,59.10287986638457,2024-12-05 12h55.23.515902 +0100,
8,150,30,28,None,38,38,0,False,right,1.3529163780040108,None,,,,,,,,0,38,38,38,,,,,,,,,331.34045720899303,,,,,,,,,,,,,,,,,,,,,,,,,,,,,,,,,,,,,,331.33133227098733,331.34045720899303,332.3404601729999,333.3396197599941,333.3396197599941,333.3396197599941,,,,334.7084709099872,right,1.3529163780040108,None,,,,,,,,,,,,,,,,,,,,,,,,,,,,,,,,,,,,,,,,,,,253054,001,2024-12-05_12h54.55.171,Test,2024.2.1,59.10287986638457,2024-12-05 12h55.23.515902 +0100,
59,150,120,6,None,39,39,0,True,right,2.5896081660030177,None,,,,,,,,0,39,39,39,,,,,,,,,334.7243411029922,,,,,,,,,,,,,,,,,,,,,,,,,,,,,,,,,,,,,,334.715611112988,334.7243411029922,335.7232931349863,336.72337343699473,336.72337343699473,336.72337343699473,,,,339.3256686649984,right,2.5896081660030177,None,,,,,,,,,,,,,,,,,,,,,,,,,,,,,,,,,,,,,,,,,,,253054,001,2024-12-05_12h54.55.171,Test,2024.2.1,59.10287986638457,2024-12-05 12h55.23.515902 +0100,
51,150,90,66,None,40,40,0,True,left,3.01391034500557,None,,,,,,,,0,40,40,40,,,,,,,,,339.34229901299113,,,,,,,,,,,,,,,,,,,,,,,,,,,,,,,,,,,,,,339.3332691179967,339.34229901299113,340.3568543179863,341.34042792298715,341.34042792298715,341.34042792298715,344.3408819939941,344.3408819939941,344.3408819939941,344.3587752559979,left,3.01391034500557,None,,,,,,,,,,,,,,,,,,,,,,,,,,,,,,,,,,,,,,,,,,,253054,001,2024-12-05_12h54.55.171,Test,2024.2.1,59.10287986638457,2024-12-05 12h55.23.515902 +0100,
39,150,0,53,None,41,41,0,True,left,2.981426896993071,None,,,,,,,,0,41,41,41,,,,,,,,,344.37545154598774,,,,,,,,,,,,,,,,,,,,,,,,,,,,,,,,,,,,,,344.3663637349964,344.37545154598774,345.3906962519977,346.37393303199497,346.37393303199497,346.37393303199497,349.3752825889969,349.3752825889969,349.3752825889969,349.3601662759902,left,2.981426896993071,None,,,,,,,,,,,,,,,,,,,,,,,,,,,,,,,,,,,,,,,,,,,253054,001,2024-12-05_12h54.55.171,Test,2024.2.1,59.10287986638457,2024-12-05 12h55.23.515902 +0100,
27,150,150,42,None,42,42,0,False,right,1.451373447998776,None,,,,,,,,0,42,42,42,,,,,,,,,349.3752825889969,,,,,,,,,,,,,,,,,,,,,,,,,,,,,,,,,,,,,,349.36578331899364,349.3752825889969,350.3909201919887,351.3741961709893,351.3741961709893,351.3741961709893,,,,352.8428346159926,right,1.451373447998776,None,,,,,,,,,,,,,,,,,,,,,,,,,,,,,,,,,,,,,,,,,,,253054,001,2024-12-05_12h54.55.171,Test,2024.2.1,59.10287986638457,2024-12-05 12h55.23.515902 +0100,
17,150,90,34,None,43,43,0,False,left,5.865306020001299,None,,,,,,,,0,43,43,43,,,,,,,,,352.8600625629915,,,,,,,,,,,,,,,,,,,,,,,,,,,,,,,,,,,,,,352.85054018799565,352.8600625629915,353.8739739839948,354.85822052099684,354.85822052099684,354.85822052099684,357.85857289998967,357.85857289998967,357.85857289998967,360.72774742399633,left,5.865306020001299,None,,,,,,,,,,,,,,,,,,,,,,,,,,,,,,,,,,,,,,,,,,,253054,001,2024-12-05_12h54.55.171,Test,2024.2.1,59.10287986638457,2024-12-05 12h55.23.515902 +0100,
1,150,0,9,None,44,44,0,False,right,0.9614687049906934,None,,,,,,,,0,44,44,44,,,,,,,,,360.74369290299364,,,,,,,,,,,,,,,,,,,,,,,,,,,,,,,,,,,,,,360.73466214899963,360.74369290299364,361.75827164799557,362.7416452739999,362.7416452739999,362.7416452739999,,,,363.71391953798593,right,0.9614687049906934,None,,,,,,,,,,,,,,,,,,,,,,,,,,,,,,,,,,,,,,,,,,,253054,001,2024-12-05_12h54.55.171,Test,2024.2.1,59.10287986638457,2024-12-05 12h55.23.515902 +0100,
38,150,0,64,None,45,45,0,True,left,2.2512228799896548,None,,,,,,,,0,45,45,45,,,,,,,,,363.72925432698685,,,,,,,,,,,,,,,,,,,,,,,,,,,,,,,,,,,,,,363.72055582198664,363.72925432698685,364.7425164909946,365.7250891369913,365.7250891369913,365.7250891369913,,,,367.99266672199883,left,2.2512228799896548,None,,,,,,,,,,,,,,,,,,,,,,,,,,,,,,,,,,,,,,,,,,,253054,001,2024-12-05_12h54.55.171,Test,2024.2.1,59.10287986638457,2024-12-05 12h55.23.515902 +0100,
50,150,60,24,None,46,46,0,True,left,4.141433058000985,None,,,,,,,,0,46,46,46,,,,,,,,,368.0089089789981,,,,,,,,,,,,,,,,,,,,,,,,,,,,,,,,,,,,,,367.99812305199157,368.0089089789981,369.00888513898826,369.99329990799015,369.99329990799015,369.99329990799015,372.99242329699337,372.99242329699337,372.99242329699337,374.14484879598604,left,4.141433058000985,None,,,,,,,,,,,,,,,,,,,,,,,,,,,,,,,,,,,,,,,,,,,253054,001,2024-12-05_12h54.55.171,Test,2024.2.1,59.10287986638457,2024-12-05 12h55.23.515902 +0100,
65,150,150,3,None,47,47,0,True,right,2.8662333829997806,None,,,,,,,,0,47,47,47,,,,,,,,,374.17404890399484,,,,,,,,,,,,,,,,,,,,,,,,,,,,,,,,,,,,,,374.15091154098627,374.17404890399484,375.17588870799227,376.1595820049988,376.1595820049988,376.1595820049988,,,,379.02920906098734,right,2.8662333829997806,None,,,,,,,,,,,,,,,,,,,,,,,,,,,,,,,,,,,,,,,,,,,253054,001,2024-12-05_12h54.55.171,Test,2024.2.1,59.10287986638457,2024-12-05 12h55.23.515902 +0100,
37,150,0,13,None,48,48,0,True,left,2.0007166959985625,None,,,,,,,,0,48,48,48,,,,,,,,,379.0438355679944,,,,,,,,,,,,,,,,,,,,,,,,,,,,,,,,,,,,,,379.03494637898984,379.0438355679944,380.0435487109935,381.0430262259906,381.0430262259906,381.0430262259906,,,,383.0466972459981,left,2.0007166959985625,None,,,,,,,,,,,,,,,,,,,,,,,,,,,,,,,,,,,,,,,,,,,253054,001,2024-12-05_12h54.55.171,Test,2024.2.1,59.10287986638457,2024-12-05 12h55.23.515902 +0100,
34,150,180,38,None,49,49,0,False,right,1.5887462700047763,None,,,,,,,,0,49,49,49,,,,,,,,,383.0610942009953,,,,,,,,,,,,,,,,,,,,,,,,,,,,,,,,,,,,,,383.05190638499334,383.0610942009953,384.0608327779919,385.06005410899525,385.06005410899525,385.06005410899525,,,,386.6617217269959,right,1.5887462700047763,None,,,,,,,,,,,,,,,,,,,,,,,,,,,,,,,,,,,,,,,,,,,253054,001,2024-12-05_12h54.55.171,Test,2024.2.1,59.10287986638457,2024-12-05 12h55.23.515902 +0100,
48,150,60,56,None,50,50,0,True,right,1.5012887630000478,None,,,,,,,,0,50,50,50,,,,,,,,,386.6924279699888,,,,,,,,,,,,,,,,,,,,,,,,,,,,,,,,,,,,,,386.66921853399253,386.6924279699888,387.6934446699888,388.67675197299104,388.67675197299104,388.67675197299104,,,,390.1960158639995,right,1.5012887630000478,None,,,,,,,,,,,,,,,,,,,,,,,,,,,,,,,,,,,,,,,,,,,253054,001,2024-12-05_12h54.55.171,Test,2024.2.1,59.10287986638457,2024-12-05 12h55.23.515902 +0100,
61,150,150,39,None,51,51,0,True,left,1.9790400630008662,None,,,,,,,,0,51,51,51,,,,,,,,,390.2125433389883,,,,,,,,,,,,,,,,,,,,,,,,,,,,,,,,,,,,,,390.2034302659886,390.2125433389883,391.2269867869909,392.21029504299804,392.21029504299804,392.21029504299804,,,,394.1956113549968,left,1.9790400630008662,None,,,,,,,,,,,,,,,,,,,,,,,,,,,,,,,,,,,,,,,,,,,253054,001,2024-12-05_12h54.55.171,Test,2024.2.1,59.10287986638457,2024-12-05 12h55.23.515902 +0100,
25,150,120,22,None,52,52,0,False,right,2.831190674987738,None,,,,,,,,0,52,52,52,,,,,,,,,394.2114572619903,,,,,,,,,,,,,,,,,,,,,,,,,,,,,,,,,,,,,,394.20294016799016,394.2114572619903,395.2107158709987,396.21102140299627,396.21102140299627,396.21102140299627,,,,399.04635707499983,right,2.831190674987738,None,,,,,,,,,,,,,,,,,,,,,,,,,,,,,,,,,,,,,,,,,,,253054,001,2024-12-05_12h54.55.171,Test,2024.2.1,59.10287986638457,2024-12-05 12h55.23.515902 +0100,
19,150,90,12,None,53,53,0,False,left,1.5503191649913788,None,,,,,,,,0,53,53,53,,,,,,,,,399.0617302549945,,,,,,,,,,,,,,,,,,,,,,,,,,,,,,,,,,,,,,399.0523167249921,399.0617302549945,400.0613816959958,401.0609608999948,401.0609608999948,401.0609608999948,,,,402.6280260029889,left,1.5503191649913788,None,,,,,,,,,,,,,,,,,,,,,,,,,,,,,,,,,,,,,,,,,,,253054,001,2024-12-05_12h54.55.171,Test,2024.2.1,59.10287986638457,2024-12-05 12h55.23.515902 +0100,
43,150,30,49,None,54,54,0,True,right,1.9718921659950865,None,,,,,,,,0,54,54,54,,,,,,,,,402.6438231679931,,,,,,,,,,,,,,,,,,,,,,,,,,,,,,,,,,,,,,402.6335880479892,402.6438231679931,403.6449475539994,404.6276523589913,404.6276523589913,404.6276523589913,,,,406.6133547299978,right,1.9718921659950865,None,,,,,,,,,,,,,,,,,,,,,,,,,,,,,,,,,,,,,,,,,,,253054,001,2024-12-05_12h54.55.171,Test,2024.2.1,59.10287986638457,2024-12-05 12h55.23.515902 +0100,
16,150,90,25,None,55,55,0,False,right,1.0423459919984452,None,,,,,,,,0,55,55,55,,,,,,,,,406.62906067799486,,,,,,,,,,,,,,,,,,,,,,,,,,,,,,,,,,,,,,406.6188946339971,406.62906067799486,407.62908423699264,408.6286286879913,408.6286286879913,408.6286286879913,,,,409.67986498298706,right,1.0423459919984452,None,,,,,,,,,,,,,,,,,,,,,,,,,,,,,,,,,,,,,,,,,,,253054,001,2024-12-05_12h54.55.171,Test,2024.2.1,59.10287986638457,2024-12-05 12h55.23.515902 +0100,
3,150,0,14,None,56,56,0,False,right,0.9021345429937355,None,,,,,,,,0,56,56,56,,,,,,,,,409.7104086509935,,,,,,,,,,,,,,,,,,,,,,,,,,,,,,,,,,,,,,409.6871814109909,409.7104086509935,410.7118331249949,411.69531471599475,411.69531471599475,411.69531471599475,,,,412.61376748999464,right,0.9021345429937355,None,,,,,,,,,,,,,,,,,,,,,,,,,,,,,,,,,,,,,,,,,,,253054,001,2024-12-05_12h54.55.171,Test,2024.2.1,59.10287986638457,2024-12-05 12h55.23.515902 +0100,
57,150,120,61,None,57,57,0,True,left,2.2647102880000602,None,,,,,,,,0,57,57,57,,,,,,,,,412.6287159349886,,,,,,,,,,,,,,,,,,,,,,,,,,,,,,,,,,,,,,412.6192706589936,412.6287159349886,413.62846509598603,414.6292057729879,414.6292057729879,414.6292057729879,,,,416.89771275999374,left,2.2647102880000602,None,,,,,,,,,,,,,,,,,,,,,,,,,,,,,,,,,,,,,,,,,,,253054,001,2024-12-05_12h54.55.171,Test,2024.2.1,59.10287986638457,2024-12-05 12h55.23.515902 +0100,
29,150,150,35,None,58,58,0,False,right,2.433473138997215,None,,,,,,,,0,58,58,58,,,,,,,,,416.9129748409905,,,,,,,,,,,,,,,,,,,,,,,,,,,,,,,,,,,,,,416.90389442199375,416.9129748409905,417.9120957089908,418.91260086899274,418.91260086899274,418.91260086899274,,,,421.3486178739986,right,2.433473138997215,None,,,,,,,,,,,,,,,,,,,,,,,,,,,,,,,,,,,,,,,,,,,253054,001,2024-12-05_12h54.55.171,Test,2024.2.1,59.10287986638457,2024-12-05 12h55.23.515902 +0100,
41,150,30,1,None,59,59,0,True,left,1.8384787359973416,None,,,,,,,,0,59,59,59,,,,,,,,,421.364348076997,,,,,,,,,,,,,,,,,,,,,,,,,,,,,,,,,,,,,,421.35548592399573,421.364348076997,422.3794167639862,423.3623549719923,423.3623549719923,423.3623549719923,,,,425.21530014999735,left,1.8384787359973416,None,,,,,,,,,,,,,,,,,,,,,,,,,,,,,,,,,,,,,,,,,,,253054,001,2024-12-05_12h54.55.171,Test,2024.2.1,59.10287986638457,2024-12-05 12h55.23.515902 +0100,
13,150,60,15,None,60,60,0,False,right,0.977568276997772,None,,,,,,,,0,60,60,60,,,,,,,,,425.2299523719994,,,,,,,,,,,,,,,,,,,,,,,,,,,,,,,,,,,,,,425.2207540269883,425.2299523719994,426.22951682998973,427.2292694559874,427.2292694559874,427.2292694559874,,,,428.2148841419985,right,0.977568276997772,None,,,,,,,,,,,,,,,,,,,,,,,,,,,,,,,,,,,,,,,,,,,253054,001,2024-12-05_12h54.55.171,Test,2024.2.1,59.10287986638457,2024-12-05 12h55.23.515902 +0100,
7,150,30,10,None,61,61,0,False,left,1.67735146600171,None,,,,,,,,0,61,61,61,,,,,,,,,428.23326028499287,,,,,,,,,,,,,,,,,,,,,,,,,,,,,,,,,,,,,,428.22428171099455,428.23326028499287,429.24668049298634,430.2293174459919,430.2293174459919,430.2293174459919,,,,431.914686737,left,1.67735146600171,None,,,,,,,,,,,,,,,,,,,,,,,,,,,,,,,,,,,,,,,,,,,253054,001,2024-12-05_12h54.55.171,Test,2024.2.1,59.10287986638457,2024-12-05 12h55.23.515902 +0100,
12,150,60,59,None,62,62,0,False,right,1.1923450819886057,None,,,,,,,,0,62,62,62,,,,,,,,,431.9307230909908,,,,,,,,,,,,,,,,,,,,,,,,,,,,,,,,,,,,,,431.9211921269889,431.9307230909908,432.9468963009858,433.9297053459886,433.9297053459886,433.9297053459886,,,,435.13220359898696,right,1.1923450819886057,None,,,,,,,,,,,,,,,,,,,,,,,,,,,,,,,,,,,,,,,,,,,253054,001,2024-12-05_12h54.55.171,Test,2024.2.1,59.10287986638457,2024-12-05 12h55.23.515902 +0100,
30,150,150,4,None,63,63,0,False,right,1.3732378889981192,None,,,,,,,,0,63,63,63,,,,,,,,,435.1488159579894,,,,,,,,,,,,,,,,,,,,,,,,,,,,,,,,,,,,,,435.13943951998954,435.1488159579894,436.16462368599605,437.1469520559913,437.1469520559913,437.1469520559913,,,,438.532138124996,right,1.3732378889981192,None,,,,,,,,,,,,,,,,,,,,,,,,,,,,,,,,,,,,,,,,,,,253054,001,2024-12-05_12h54.55.171,Test,2024.2.1,59.10287986638457,2024-12-05 12h55.23.515902 +0100,
69,150,180,16,None,64,64,0,True,right,2.3714693399961106,None,,,,,,,,0,64,64,64,,,,,,,,,438.54709281399846,,,,,,,,,,,,,,,,,,,,,,,,,,,,,,,,,,,,,,438.5365481609915,438.54709281399846,439.5474255279987,440.54745884898875,440.54745884898875,440.54745884898875,,,,442.93240182199224,right,2.3714693399961106,None,,,,,,,,,,,,,,,,,,,,,,,,,,,,,,,,,,,,,,,,,,,253054,001,2024-12-05_12h54.55.171,Test,2024.2.1,59.10287986638457,2024-12-05 12h55.23.515902 +0100,
62,150,150,26,None,65,65,0,True,left,1.2386614679999184,None,,,,,,,,0,65,65,65,,,,,,,,,442.9479354419891,,,,,,,,,,,,,,,,,,,,,,,,,,,,,,,,,,,,,,442.9381747239968,442.9479354419891,443.96365482499823,444.94696309699793,444.94696309699793,444.94696309699793,,,,446.1992923269863,left,1.2386614679999184,None,,,,,,,,,,,,,,,,,,,,,,,,,,,,,,,,,,,,,,,,,,,253054,001,2024-12-05_12h54.55.171,Test,2024.2.1,59.10287986638457,2024-12-05 12h55.23.515902 +0100,
26,150,150,57,None,66,66,0,False,right,1.5685536220116774,None,,,,,,,,0,66,66,66,,,,,,,,,446.2203671729949,,,,,,,,,,,,,,,,,,,,,,,,,,,,,,,,,,,,,,446.2124975159968,446.2203671729949,447.23097687598784,448.2138624659856,448.2138624659856,448.2138624659856,,,,449.79973384799086,right,1.5685536220116774,None,,,,,,,,,,,,,,,,,,,,,,,,,,,,,,,,,,,,,,,,,,,253054,001,2024-12-05_12h54.55.171,Test,2024.2.1,59.10287986638457,2024-12-05 12h55.23.515902 +0100,
56,150,120,8,None,67,67,0,True,left,1.9145843629958108,None,,,,,,,,0,67,67,67,,,,,,,,,449.8160356879962,,,,,,,,,,,,,,,,,,,,,,,,,,,,,,,,,,,,,,449.806375027998,449.8160356879962,450.83083149799495,451.81418040899734,451.81418040899734,451.81418040899734,,,,453.73566966199724,left,1.9145843629958108,None,,,,,,,,,,,,,,,,,,,,,,,,,,,,,,,,,,,,,,,,,,,253054,001,2024-12-05_12h54.55.171,Test,2024.2.1,59.10287986638457,2024-12-05 12h55.23.515902 +0100,
9,150,30,47,None,68,68,0,False,right,2.997746911991271,None,,,,,,,,0,68,68,68,,,,,,,,,453.7522243059939,,,,,,,,,,,,,,,,,,,,,,,,,,,,,,,,,,,,,,453.7436760339915,453.7522243059939,454.7648680789862,455.74811945899273,455.74811945899273,455.74811945899273,458.7497829139902,458.7497829139902,458.7497829139902,458.7525652389886,right,2.997746911991271,None,,,,,,,,,,,,,,,,,,,,,,,,,,,,,,,,,,,,,,,,,,,253054,001,2024-12-05_12h54.55.171,Test,2024.2.1,59.10287986638457,2024-12-05 12h55.23.515902 +0100,
53,150,90,48,None,69,69,0,True,left,1.3114481939992402,None,,,,,,,,0,69,69,69,,,,,,,,,458.7679353339918,,,,,,,,,,,,,,,,,,,,,,,,,,,,,,,,,,,,,,458.7587584609864,458.7679353339918,459.78253840298567,460.7658621349983,460.7658621349983,460.7658621349983,,,,462.0835291129915,left,1.3114481939992402,None,,,,,,,,,,,,,,,,,,,,,,,,,,,,,,,,,,,,,,,,,,,253054,001,2024-12-05_12h54.55.171,Test,2024.2.1,59.10287986638457,2024-12-05 12h55.23.515902 +0100,
,,,,,,,,,,,,,,,,,,,,,,,,,,,,,,,,,,,,,,,,,,,,,,,,,,,,,,,,,,,,,,,,,,,,,,,,,,,,,,,,,,462.0837235839863,462.0985022219975,462.0985022219975,465.3513324059895,space,3.2351128440059256,None,,,,,,,,,,,,,,,,,,,,,,,,,,,,,,,,,,,,253054,001,2024-12-05_12h54.55.171,Test,2024.2.1,59.10287986638457,2024-12-05 12h55.23.515902 +0100,
29,150,150,35,None,0,0,0,,,,,,,,,,,,,,,,0,0,0,28,,,,,465.3747967629897,,,,,,,,,,,,,,,,,,,,,,,,,,,,,,,,,,,,,,,,,,,,,,,,,,,,,,,,,,465.3655039469886,465.3747967629897,465.56487251298677,465.56487251298677,465.58153016198776,467.26532315299846,467.26532315299846,467.2499281389901,,,,,,,,,,,,,,,,,,,,,,,,,,,,253054,001,2024-12-05_12h54.55.171,Test,2024.2.1,59.10287986638457,2024-12-05 12h55.23.515902 +0100,
19,150,90,12,None,1,1,0,,,,,,,,,,,,,,,,0,1,1,18,,,,,467.26532315299846,,,,,,,,,,,,,,,,,,,,,,,,,,,,,,,,,,,,,,,,,,,,,,,,,,,,,,,,,,467.2554941159906,467.26532315299846,467.46561551898776,467.46561551898776,467.46561551898776,469.1663307459967,469.1663307459967,469.1503420409863,,,,,,,,,,,,,,,,,,,,,,,,,,,,253054,001,2024-12-05_12h54.55.171,Test,2024.2.1,59.10287986638457,2024-12-05 12h55.23.515902 +0100,
21,150,120,23,None,2,2,0,,,,,,,,,,,,,,,,0,2,2,20,,,,,469.1663307459967,,,,,,,,,,,,,,,,,,,,,,,,,,,,,,,,,,,,,,,,,,,,,,,,,,,,,,,,,,469.1577510779898,469.1663307459967,469.36602316099743,469.36602316099743,469.36602316099743,471.0660449089919,471.0660449089919,471.0504717659933,,,,,,,,,,,,,,,,,,,,,,,,,,,,253054,001,2024-12-05_12h54.55.171,Test,2024.2.1,59.10287986638457,2024-12-05 12h55.23.515902 +0100,
5,150,0,31,None,3,3,0,,,,,,,,,,,,,,,,0,3,3,4,,,,,471.0660449089919,,,,,,,,,,,,,,,,,,,,,,,,,,,,,,,,,,,,,,,,,,,,,,,,,,,,,,,,,,471.0578438759985,471.0660449089919,471.26616142099374,471.26616142099374,471.26616142099374,472.9656367629941,472.9656367629941,472.94994475699787,,,,,,,,,,,,,,,,,,,,,,,,,,,,253054,001,2024-12-05_12h54.55.171,Test,2024.2.1,59.10287986638457,2024-12-05 12h55.23.515902 +0100,
15,150,60,18,None,4,4,0,,,,,,,,,,,,,,,,0,4,4,14,,,,,472.9656367629941,,,,,,,,,,,,,,,,,,,,,,,,,,,,,,,,,,,,,,,,,,,,,,,,,,,,,,,,,,472.95517560899316,472.9656367629941,473.1659666129999,473.1659666129999,473.1659666129999,474.8702839149919,474.8702839149919,474.8516108499898,,,,,,,,,,,,,,,,,,,,,,,,,,,,253054,001,2024-12-05_12h54.55.171,Test,2024.2.1,59.10287986638457,2024-12-05 12h55.23.515902 +0100,
25,150,120,22,None,5,5,0,,,,,,,,,,,,,,,,0,5,5,24,,,,,474.8702839149919,,,,,,,,,,,,,,,,,,,,,,,,,,,,,,,,,,,,,,,,,,,,,,,,,,,,,,,,,,474.8616782849858,474.8702839149919,475.06640458999027,475.06640458999027,475.083258639992,476.7658410599979,476.7658410599979,476.75157547398703,,,,,,,,,,,,,,,,,,,,,,,,,,,,253054,001,2024-12-05_12h54.55.171,Test,2024.2.1,59.10287986638457,2024-12-05 12h55.23.515902 +0100,
1,150,0,9,None,6,6,0,,,,,,,,,,,,,,,,0,6,6,0,,,,,476.7658410599979,,,,,,,,,,,,,,,,,,,,,,,,,,,,,,,,,,,,,,,,,,,,,,,,,,,,,,,,,,476.7568224139977,476.7658410599979,476.9664601849945,476.9664601849945,476.9664601849945,478.66681695698935,478.66681695698935,478.650463826998,,,,,,,,,,,,,,,,,,,,,,,,,,,,253054,001,2024-12-05_12h54.55.171,Test,2024.2.1,59.10287986638457,2024-12-05 12h55.23.515902 +0100,
17,150,90,34,None,7,7,0,,,,,,,,,,,,,,,,0,7,7,16,,,,,478.66681695698935,,,,,,,,,,,,,,,,,,,,,,,,,,,,,,,,,,,,,,,,,,,,,,,,,,,,,,,,,,478.6575598349882,478.66681695698935,478.8665496719914,478.8665496719914,478.8665496719914,480.56588137499057,480.56588137499057,480.55063327799144,,,,,,,,,,,,,,,,,,,,,,,,,,,,253054,001,2024-12-05_12h54.55.171,Test,2024.2.1,59.10287986638457,2024-12-05 12h55.23.515902 +0100,
13,150,60,15,None,8,8,0,,,,,,,,,,,,,,,,0,8,8,12,,,,,480.56588137499057,,,,,,,,,,,,,,,,,,,,,,,,,,,,,,,,,,,,,,,,,,,,,,,,,,,,,,,,,,480.5574571049947,480.56588137499057,480.76722461798636,480.76722461798636,480.76722461798636,482.46719951499836,482.46719951499836,482.45103522799036,,,,,,,,,,,,,,,,,,,,,,,,,,,,253054,001,2024-12-05_12h54.55.171,Test,2024.2.1,59.10287986638457,2024-12-05 12h55.23.515902 +0100,
26,150,150,57,None,9,9,0,,,,,,,,,,,,,,,,0,9,9,25,,,,,482.46719951499836,,,,,,,,,,,,,,,,,,,,,,,,,,,,,,,,,,,,,,,,,,,,,,,,,,,,,,,,,,482.4584743069863,482.46719951499836,482.6670551749994,482.6670551749994,482.6670551749994,484.36625207999896,484.36625207999896,484.35099673099467,,,,,,,,,,,,,,,,,,,,,,,,,,,,253054,001,2024-12-05_12h54.55.171,Test,2024.2.1,59.10287986638457,2024-12-05 12h55.23.515902 +0100,
2,150,0,41,None,10,10,0,,,,,,,,,,,,,,,,0,10,10,1,,,,,484.36625207999896,,,,,,,,,,,,,,,,,,,,,,,,,,,,,,,,,,,,,,,,,,,,,,,,,,,,,,,,,,484.3568596029945,484.36625207999896,484.56777022099413,484.56777022099413,484.56777022099413,,,486.2516610679886,,,,,,,,,,,,,,,,,,,,,,,,,,,,253054,001,2024-12-05_12h54.55.171,Test,2024.2.1,59.10287986638457,2024-12-05 12h55.23.515902 +0100,
31,150,180,20,None,11,11,0,,,,,,,,,,,,,,,,0,11,11,30,,,,,486.26995861399337,,,,,,,,,,,,,,,,,,,,,,,,,,,,,,,,,,,,,,,,,,,,,,,,,,,,,,,,,,486.26109824299056,486.26995861399337,486.46744307898916,486.46744307898916,486.4835566489928,488.16746438898554,488.16746438898554,488.15112045398564,,,,,,,,,,,,,,,,,,,,,,,,,,,,253054,001,2024-12-05_12h54.55.171,Test,2024.2.1,59.10287986638457,2024-12-05 12h55.23.515902 +0100,
3,150,0,14,None,12,12,0,,,,,,,,,,,,,,,,0,12,12,2,,,,,488.16746438898554,,,,,,,,,,,,,,,,,,,,,,,,,,,,,,,,,,,,,,,,,,,,,,,,,,,,,,,,,,488.15881632099627,488.16746438898554,488.350171381986,488.350171381986,488.3669537789974,490.0507770039985,490.0507770039985,490.03512743698957,,,,,,,,,,,,,,,,,,,,,,,,,,,,253054,001,2024-12-05_12h54.55.171,Test,2024.2.1,59.10287986638457,2024-12-05 12h55.23.515902 +0100,
16,150,90,25,None,13,13,0,,,,,,,,,,,,,,,,0,13,13,15,,,,,490.0507770039985,,,,,,,,,,,,,,,,,,,,,,,,,,,,,,,,,,,,,,,,,,,,,,,,,,,,,,,,,,490.0425932559883,490.0507770039985,490.2509590809932,490.2509590809932,490.2509590809932,491.95111280999845,491.95111280999845,491.93535467699985,,,,,,,,,,,,,,,,,,,,,,,,,,,,253054,001,2024-12-05_12h54.55.171,Test,2024.2.1,59.10287986638457,2024-12-05 12h55.23.515902 +0100,
8,150,30,28,None,14,14,0,,,,,,,,,,,,,,,,0,14,14,7,,,,,491.95111280999845,,,,,,,,,,,,,,,,,,,,,,,,,,,,,,,,,,,,,,,,,,,,,,,,,,,,,,,,,,491.9424051829992,491.95111280999845,492.15068566799164,492.15068566799164,492.15068566799164,493.85009868699126,493.85009868699126,493.83417871399433,,,,,,,,,,,,,,,,,,,,,,,,,,,,253054,001,2024-12-05_12h54.55.171,Test,2024.2.1,59.10287986638457,2024-12-05 12h55.23.515902 +0100,
32,150,180,21,None,15,15,0,,,,,,,,,,,,,,,,0,15,15,31,,,,,493.85009868699126,,,,,,,,,,,,,,,,,,,,,,,,,,,,,,,,,,,,,,,,,,,,,,,,,,,,,,,,,,493.83962635399075,493.8668872789858,494.05112916699727,494.05112916699727,494.0677900869923,495.7506254849868,495.7506254849868,495.7351339649904,,,,,,,,,,,,,,,,,,,,,,,,,,,,253054,001,2024-12-05_12h54.55.171,Test,2024.2.1,59.10287986638457,2024-12-05 12h55.23.515902 +0100,
27,150,150,42,None,16,16,0,,,,,,,,,,,,,,,,0,16,16,26,,,,,495.7506254849868,,,,,,,,,,,,,,,,,,,,,,,,,,,,,,,,,,,,,,,,,,,,,,,,,,,,,,,,,,495.7410397029889,495.7506254849868,495.95193632299197,495.95193632299197,495.95193632299197,497.6516836279916,497.6516836279916,497.6356545969902,,,,,,,,,,,,,,,,,,,,,,,,,,,,253054,001,2024-12-05_12h54.55.171,Test,2024.2.1,59.10287986638457,2024-12-05 12h55.23.515902 +0100,
33,150,180,54,None,17,17,0,,,,,,,,,,,,,,,,0,17,17,32,,,,,497.6516836279916,,,,,,,,,,,,,,,,,,,,,,,,,,,,,,,,,,,,,,,,,,,,,,,,,,,,,,,,,,497.64305567998963,497.6516836279916,497.8512972999888,497.8512972999888,497.8512972999888,499.5521440849989,499.5521440849989,499.53515528798744,,,,,,,,,,,,,,,,,,,,,,,,,,,,253054,001,2024-12-05_12h54.55.171,Test,2024.2.1,59.10287986638457,2024-12-05 12h55.23.515902 +0100,
18,150,90,60,None,18,18,0,,,,,,,,,,,,,,,,0,18,18,17,,,,,499.5521440849989,,,,,,,,,,,,,,,,,,,,,,,,,,,,,,,,,,,,,,,,,,,,,,,,,,,,,,,,,,499.5431688499957,499.5521440849989,499.751109482997,499.751109482997,499.751109482997,501.45193772998755,501.45193772998755,501.43550453799253,,,,,,,,,,,,,,,,,,,,,,,,,,,,253054,001,2024-12-05_12h54.55.171,Test,2024.2.1,59.10287986638457,2024-12-05 12h55.23.515902 +0100,
30,150,150,4,None,19,19,0,,,,,,,,,,,,,,,,0,19,19,29,,,,,501.45193772998755,,,,,,,,,,,,,,,,,,,,,,,,,,,,,,,,,,,,,,,,,,,,,,,,,,,,,,,,,,501.44439530099044,501.45193772998755,501.65130002298974,501.65130002298974,501.65130002298974,503.35294616599276,503.35294616599276,503.3363684849901,,,,,,,,,,,,,,,,,,,,,,,,,,,,253054,001,2024-12-05_12h54.55.171,Test,2024.2.1,59.10287986638457,2024-12-05 12h55.23.515902 +0100,
14,150,60,5,None,20,20,0,,,,,,,,,,,,,,,,0,20,20,13,,,,,503.35294616599276,,,,,,,,,,,,,,,,,,,,,,,,,,,,,,,,,,,,,,,,,,,,,,,,,,,,,,,,,,503.34451399798854,503.35294616599276,503.5518760559935,503.5518760559935,503.5680389129993,505.25127991999034,505.25127991999034,505.2360823889903,,,,,,,,,,,,,,,,,,,,,,,,,,,,253054,001,2024-12-05_12h54.55.171,Test,2024.2.1,59.10287986638457,2024-12-05 12h55.23.515902 +0100,
23,150,120,65,None,21,21,0,,,,,,,,,,,,,,,,0,21,21,22,,,,,505.25127991999034,,,,,,,,,,,,,,,,,,,,,,,,,,,,,,,,,,,,,,,,,,,,,,,,,,,,,,,,,,505.24342377898574,505.25127991999034,505.4516267729923,505.4516267729923,505.4516267729923,507.15194723599416,507.15194723599416,507.1358394919953,,,,,,,,,,,,,,,,,,,,,,,,,,,,253054,001,2024-12-05_12h54.55.171,Test,2024.2.1,59.10287986638457,2024-12-05 12h55.23.515902 +0100,
9,150,30,47,None,22,22,0,,,,,,,,,,,,,,,,0,22,22,8,,,,,507.15194723599416,,,,,,,,,,,,,,,,,,,,,,,,,,,,,,,,,,,,,,,,,,,,,,,,,,,,,,,,,,507.14336676799576,507.15194723599416,507.3521555939951,507.3521555939951,507.3521555939951,509.051791861988,509.051791861988,509.035721355991,,,,,,,,,,,,,,,,,,,,,,,,,,,,253054,001,2024-12-05_12h54.55.171,Test,2024.2.1,59.10287986638457,2024-12-05 12h55.23.515902 +0100,
34,150,180,38,None,23,23,0,,,,,,,,,,,,,,,,0,23,23,33,,,,,509.051791861988,,,,,,,,,,,,,,,,,,,,,,,,,,,,,,,,,,,,,,,,,,,,,,,,,,,,,,,,,,509.0431852959882,509.051791861988,509.25158195699623,509.25158195699623,509.25158195699623,510.95161445299163,510.95161445299163,510.93659187399317,,,,,,,,,,,,,,,,,,,,,,,,,,,,253054,001,2024-12-05_12h54.55.171,Test,2024.2.1,59.10287986638457,2024-12-05 12h55.23.515902 +0100,
22,150,120,40,None,24,24,0,,,,,,,,,,,,,,,,0,24,24,21,,,,,510.95161445299163,,,,,,,,,,,,,,,,,,,,,,,,,,,,,,,,,,,,,,,,,,,,,,,,,,,,,,,,,,510.94245299199247,510.95161445299163,511.15224469199893,511.15224469199893,511.15224469199893,512.8517080449965,512.8517080449965,512.836190764996,,,,,,,,,,,,,,,,,,,,,,,,,,,,253054,001,2024-12-05_12h54.55.171,Test,2024.2.1,59.10287986638457,2024-12-05 12h55.23.515902 +0100,
35,150,180,7,None,25,25,0,,,,,,,,,,,,,,,,0,25,25,34,,,,,512.8517080449965,,,,,,,,,,,,,,,,,,,,,,,,,,,,,,,,,,,,,,,,,,,,,,,,,,,,,,,,,,512.8424142299918,512.8517080449965,513.0520594789996,513.0520594789996,513.0520594789996,514.7525975929893,514.7525975929893,514.7367548879993,,,,,,,,,,,,,,,,,,,,,,,,,,,,253054,001,2024-12-05_12h54.55.171,Test,2024.2.1,59.10287986638457,2024-12-05 12h55.23.515902 +0100,
20,150,90,44,None,26,26,0,,,,,,,,,,,,,,,,0,26,26,19,,,,,514.7525975929893,,,,,,,,,,,,,,,,,,,,,,,,,,,,,,,,,,,,,,,,,,,,,,,,,,,,,,,,,,514.7436789659987,514.7525975929893,514.9527967549948,514.9527967549948,514.9527967549948,516.6531356529886,516.6531356529886,516.6370294349908,,,,,,,,,,,,,,,,,,,,,,,,,,,,253054,001,2024-12-05_12h54.55.171,Test,2024.2.1,59.10287986638457,2024-12-05 12h55.23.515902 +0100,
11,150,60,46,None,27,27,0,,,,,,,,,,,,,,,,0,27,27,10,,,,,516.6531356529886,,,,,,,,,,,,,,,,,,,,,,,,,,,,,,,,,,,,,,,,,,,,,,,,,,,,,,,,,,516.6443487369979,516.6531356529886,516.8523165949882,516.8523165949882,516.8523165949882,518.5520504329907,518.5520504329907,518.5363745029899,,,,,,,,,,,,,,,,,,,,,,,,,,,,253054,001,2024-12-05_12h54.55.171,Test,2024.2.1,59.10287986638457,2024-12-05 12h55.23.515902 +0100,
28,150,150,32,None,28,28,0,,,,,,,,,,,,,,,,0,28,28,27,,,,,518.5520504329907,,,,,,,,,,,,,,,,,,,,,,,,,,,,,,,,,,,,,,,,,,,,,,,,,,,,,,,,,,518.5431150469958,518.5520504329907,518.7524822979904,518.7524822979904,518.7524822979904,520.4524938939867,520.4524938939867,520.4367801439948,,,,,,,,,,,,,,,,,,,,,,,,,,,,253054,001,2024-12-05_12h54.55.171,Test,2024.2.1,59.10287986638457,2024-12-05 12h55.23.515902 +0100,
12,150,60,59,None,29,29,0,,,,,,,,,,,,,,,,0,29,29,11,,,,,520.4524938939867,,,,,,,,,,,,,,,,,,,,,,,,,,,,,,,,,,,,,,,,,,,,,,,,,,,,,,,,,,520.4439737479988,520.4524938939867,520.6526981939969,520.6526981939969,520.6526981939969,522.3522963479918,522.3522963479918,522.3368914229941,,,,,,,,,,,,,,,,,,,,,,,,,,,,253054,001,2024-12-05_12h54.55.171,Test,2024.2.1,59.10287986638457,2024-12-05 12h55.23.515902 +0100,
10,150,30,36,None,30,30,0,,,,,,,,,,,,,,,,0,30,30,9,,,,,522.3522963479918,,,,,,,,,,,,,,,,,,,,,,,,,,,,,,,,,,,,,,,,,,,,,,,,,,,,,,,,,,522.3437514009856,522.3522963479918,522.5529490409972,522.5529490409972,522.5529490409972,524.2527074009995,524.2527074009995,524.2371654509916,,,,,,,,,,,,,,,,,,,,,,,,,,,,253054,001,2024-12-05_12h54.55.171,Test,2024.2.1,59.10287986638457,2024-12-05 12h55.23.515902 +0100,
4,150,0,27,None,31,31,0,,,,,,,,,,,,,,,,0,31,31,3,,,,,524.2527074009995,,,,,,,,,,,,,,,,,,,,,,,,,,,,,,,,,,,,,,,,,,,,,,,,,,,,,,,,,,524.2429182039923,524.2527074009995,524.4532197289955,524.4532197289955,524.4532197289955,526.1536162429984,526.1536162429984,526.1379214169865,,,,,,,,,,,,,,,,,,,,,,,,,,,,253054,001,2024-12-05_12h54.55.171,Test,2024.2.1,59.10287986638457,2024-12-05 12h55.23.515902 +0100,
24,150,120,50,None,32,32,0,,,,,,,,,,,,,,,,0,32,32,23,,,,,526.1536162429984,,,,,,,,,,,,,,,,,,,,,,,,,,,,,,,,,,,,,,,,,,,,,,,,,,,,,,,,,,526.1455989869864,526.1536162429984,526.3530196369975,526.3530196369975,526.3530196369975,528.0530795399973,528.0530795399973,528.0377513839921,,,,,,,,,,,,,,,,,,,,,,,,,,,,253054,001,2024-12-05_12h54.55.171,Test,2024.2.1,59.10287986638457,2024-12-05 12h55.23.515902 +0100,
6,150,30,17,None,33,33,0,,,,,,,,,,,,,,,,0,33,33,5,,,,,528.0530795399973,,,,,,,,,,,,,,,,,,,,,,,,,,,,,,,,,,,,,,,,,,,,,,,,,,,,,,,,,,528.0445699269912,528.0530795399973,528.2530977399874,528.2530977399874,528.2530977399874,529.9533157889964,529.9533157889964,529.9374267519888,,,,,,,,,,,,,,,,,,,,,,,,,,,,253054,001,2024-12-05_12h54.55.171,Test,2024.2.1,59.10287986638457,2024-12-05 12h55.23.515902 +0100,
7,150,30,10,None,34,34,0,,,,,,,,,,,,,,,,0,34,34,6,,,,,529.9533157889964,,,,,,,,,,,,,,,,,,,,,,,,,,,,,,,,,,,,,,,,,,,,,,,,,,,,,,,,,,529.9432610099902,529.9533157889964,530.1534264599904,530.1534264599904,530.1534264599904,531.8534210909856,531.8534210909856,531.837294492987,,,,,,,,,,,,,,,,,,,,,,,,,,,,253054,001,2024-12-05_12h54.55.171,Test,2024.2.1,59.10287986638457,2024-12-05 12h55.23.515902 +0100,
,,,,,,,,,,,,,,,,,,,,,,,,,,,,,,,,,,,,,,,,,,,,,,,,,,,,,,,,,,,,,,,,,,,,,,,,,,,,,,,,,,,,,,,,,,,,,,,,,531.8374182529951,531.8534210909856,531.8534210909856,539.7383730689908,space,7.872962130000815,None,,,,,,,,,,,,,,,,,,,,,253054,001,2024-12-05_12h54.55.171,Test,2024.2.1,59.10287986638457,2024-12-05 12h55.23.515902 +0100,
44,150,30,11,None,0,0,0,True,,,,left,1.5249581590032903,None,,,,,,,,,,,,,0,0,0,0,539.7621723759949,,,,,,,,,,,,,,,,,,,,,,,,,,,,,,,,,,,,,,,,,,,,,,,,,,,,,,,,,,,,,,,,,,,,,,,,,539.7534751869971,539.7621723759949,540.7707855109911,541.7540337859973,541.7540337859973,541.7540337859973,543.289189070987,left,1.5249581590032903,None,,,,,,,,,,,253054,001,2024-12-05_12h54.55.171,Test,2024.2.1,59.10287986638457,2024-12-05 12h55.23.515902 +0100,
20,150,90,44,None,1,1,0,False,,,,right,1.242970013001468,None,,,,,,,,,,,,,0,1,1,1,543.3049119139905,,,,,,,,,,,,,,,,,,,,,,,,,,,,,,,,,,,,,,,,,,,,,,,,,,,,,,,,,,,,,,,,,,,,,,,,,543.2947223009978,543.3049119139905,544.3042952159885,545.304758815997,545.304758815997,545.304758815997,546.5559872399899,right,1.242970013001468,None,,,,,,,,,,,253054,001,2024-12-05_12h54.55.171,Test,2024.2.1,59.10287986638457,2024-12-05 12h55.23.515902 +0100,
28,150,150,32,None,2,2,0,False,,,,right,0.80927022198739,None,,,,,,,,,,,,,0,2,2,2,546.5708583849919,,,,,,,,,,,,,,,,,,,,,,,,,,,,,,,,,,,,,,,,,,,,,,,,,,,,,,,,,,,,,,,,,,,,,,,,,546.5596482989931,546.5708583849919,547.5715314799891,548.5558405599877,548.5558405599877,548.5558405599877,549.3730206609907,right,0.80927022198739,None,,,,,,,,,,,253054,001,2024-12-05_12h54.55.171,Test,2024.2.1,59.10287986638457,2024-12-05 12h55.23.515902 +0100,
49,150,60,30,None,3,3,0,True,,,,left,1.8161486589960987,None,,,,,,,,,,,,,0,3,3,3,549.3891631929873,,,,,,,,,,,,,,,,,,,,,,,,,,,,,,,,,,,,,,,,,,,,,,,,,,,,,,,,,,,,,,,,,,,,,,,,,549.3806154819904,549.3891631929873,550.4049944549915,551.3881320849905,551.3881320849905,551.3881320849905,553.2075156259962,left,1.8161486589960987,None,,,,,,,,,,,253054,001,2024-12-05_12h54.55.171,Test,2024.2.1,59.10287986638457,2024-12-05 12h55.23.515902 +0100,
40,150,0,45,None,4,4,0,True,,,,left,1.1759217920043739,None,,,,,,,,,,,,,0,4,4,4,553.222357776991,,,,,,,,,,,,,,,,,,,,,,,,,,,,,,,,,,,,,,,,,,,,,,,,,,,,,,,,,,,,,,,,,,,,,,,,,553.2135594439897,553.222357776991,554.2226709609968,555.2221595779993,555.2221595779993,555.2221595779993,556.4066051669943,left,1.1759217920043739,None,,,,,,,,,,,253054,001,2024-12-05_12h54.55.171,Test,2024.2.1,59.10287986638457,2024-12-05 12h55.23.515902 +0100,
6,150,30,17,None,5,5,0,False,,,,right,0.7894220939924708,None,,,,,,,,,,,,,0,5,5,5,556.4219138859917,,,,,,,,,,,,,,,,,,,,,,,,,,,,,,,,,,,,,,,,,,,,,,,,,,,,,,,,,,,,,,,,,,,,,,,,,556.4102664769889,556.4219138859917,557.422271709991,558.4216315329977,558.4216315329977,558.4216315329977,559.2231169619918,right,0.7894220939924708,None,,,,,,,,,,,253054,001,2024-12-05_12h54.55.171,Test,2024.2.1,59.10287986638457,2024-12-05 12h55.23.515902 +0100,
22,150,120,40,None,6,6,0,False,,,,right,1.2660392420075368,None,,,,,,,,,,,,,0,6,6,6,559.2377599509928,,,,,,,,,,,,,,,,,,,,,,,,,,,,,,,,,,,,,,,,,,,,,,,,,,,,,,,,,,,,,,,,,,,,,,,,,559.2269090179907,559.2377599509928,560.2387053319981,561.222172941998,561.222172941998,561.222172941998,562.4918209959869,right,1.2660392420075368,None,,,,,,,,,,,253054,001,2024-12-05_12h54.55.171,Test,2024.2.1,59.10287986638457,2024-12-05 12h55.23.515902 +0100,
5,150,0,31,None,7,7,0,False,,,,left,1.366824134005583,None,,,,,,,,,,,,,0,7,7,7,562.5050481949875,,,,,,,,,,,,,,,,,,,,,,,,,,,,,,,,,,,,,,,,,,,,,,,,,,,,,,,,,,,,,,,,,,,,,,,,,562.4954534209974,562.5050481949875,563.5060546499881,564.505956271998,564.505956271998,564.505956271998,565.8753440969886,left,1.366824134005583,None,,,,,,,,,,,253054,001,2024-12-05_12h54.55.171,Test,2024.2.1,59.10287986638457,2024-12-05 12h55.23.515902 +0100,
14,150,60,5,None,8,8,0,False,,,,left,2.068252034994657,None,,,,,,,,,,,,,0,8,8,8,565.8893688289972,,,,,,,,,,,,,,,,,,,,,,,,,,,,,,,,,,,,,,,,,,,,,,,,,,,,,,,,,,,,,,,,,,,,,,,,,565.8791385389923,565.8893688289972,566.8899708519893,567.8891118519969,567.8891118519969,567.8891118519969,569.9742494409875,left,2.068252034994657,None,,,,,,,,,,,253054,001,2024-12-05_12h54.55.171,Test,2024.2.1,59.10287986638457,2024-12-05 12h55.23.515902 +0100,
58,150,120,51,None,9,9,0,True,,,,left,2.81806625801255,None,,,,,,,,,,,,,0,9,9,9,569.9896945389919,,,,,,,,,,,,,,,,,,,,,,,,,,,,,,,,,,,,,,,,,,,,,,,,,,,,,,,,,,,,,,,,,,,,,,,,,569.9802720109874,569.9896945389919,570.9890545249946,571.9726064439892,571.9726064439892,571.9726064439892,574.8076554579893,left,2.81806625801255,None,,,,,,,,,,,253054,001,2024-12-05_12h54.55.171,Test,2024.2.1,59.10287986638457,2024-12-05 12h55.23.515902 +0100,
31,150,180,20,None,10,10,0,False,,,,right,1.4350581000035163,None,,,,,,,,,,,,,0,10,10,10,574.8233985529951,,,,,,,,,,,,,,,,,,,,,,,,,,,,,,,,,,,,,,,,,,,,,,,,,,,,,,,,,,,,,,,,,,,,,,,,,574.811294425992,574.8233985529951,575.8238876989926,576.8229980029864,576.8229980029864,576.8229980029864,578.274872228998,right,1.4350581000035163,None,,,,,,,,,,,253054,001,2024-12-05_12h54.55.171,Test,2024.2.1,59.10287986638457,2024-12-05 12h55.23.515902 +0100,
68,150,180,43,None,11,11,0,True,,,,left,1.9561798650101991,None,,,,,,,,,,,,,0,11,11,11,578.2894790239952,,,,,,,,,,,,,,,,,,,,,,,,,,,,,,,,,,,,,,,,,,,,,,,,,,,,,,,,,,,,,,,,,,,,,,,,,578.2806947809877,578.2894790239952,579.2905204459967,580.2899921509961,580.2899921509961,580.2899921509961,582.2582915849925,left,1.9561798650101991,None,,,,,,,,,,,253054,001,2024-12-05_12h54.55.171,Test,2024.2.1,59.10287986638457,2024-12-05 12h55.23.515902 +0100,
33,150,180,54,None,12,12,0,False,,,,right,1.5236214119940996,None,,,,,,,,,,,,,0,12,12,12,582.2739064569905,,,,,,,,,,,,,,,,,,,,,,,,,,,,,,,,,,,,,,,,,,,,,,,,,,,,,,,,,,,,,,,,,,,,,,,,,582.2637706249952,582.2739064569905,583.2735185889906,584.256708283996,584.256708283996,584.256708283996,585.7920987769903,right,1.5236214119940996,None,,,,,,,,,,,253054,001,2024-12-05_12h54.55.171,Test,2024.2.1,59.10287986638457,2024-12-05 12h55.23.515902 +0100,
54,150,90,63,None,13,13,0,True,,,,right,1.9680519469984574,None,,,,,,,,,,,,,0,13,13,13,585.8082332259946,,,,,,,,,,,,,,,,,,,,,,,,,,,,,,,,,,,,,,,,,,,,,,,,,,,,,,,,,,,,,,,,,,,,,,,,,585.7995489399909,585.8082332259946,586.8237003279937,587.8070953099959,587.8070953099959,587.8070953099959,589.7918814589939,right,1.9680519469984574,None,,,,,,,,,,,253054,001,2024-12-05_12h54.55.171,Test,2024.2.1,59.10287986638457,2024-12-05 12h55.23.515902 +0100,
52,150,90,69,None,14,14,0,True,,,,right,1.2734442450018832,None,,,,,,,,,,,,,0,14,14,14,589.8075746409886,,,,,,,,,,,,,,,,,,,,,,,,,,,,,,,,,,,,,,,,,,,,,,,,,,,,,,,,,,,,,,,,,,,,,,,,,589.79717226699,589.8075746409886,590.8074139349919,591.7910252559959,591.7910252559959,591.7910252559959,593.0764670909994,right,1.2734442450018832,None,,,,,,,,,,,253054,001,2024-12-05_12h54.55.171,Test,2024.2.1,59.10287986638457,2024-12-05 12h55.23.515902 +0100,
64,150,150,55,None,15,15,0,True,,,,left,2.24795694599743,None,,,,,,,,,,,,,0,15,15,15,593.0925795749936,,,,,,,,,,,,,,,,,,,,,,,,,,,,,,,,,,,,,,,,,,,,,,,,,,,,,,,,,,,,,,,,,,,,,,,,,593.0839489299979,593.0925795749936,594.1078256579931,595.0913545409858,595.0913545409858,595.0913545409858,597.3435418279987,left,2.24795694599743,None,,,,,,,,,,,253054,001,2024-12-05_12h54.55.171,Test,2024.2.1,59.10287986638457,2024-12-05 12h55.23.515902 +0100,
35,150,180,7,None,16,16,0,False,,,,right,0.8403529909992358,None,,,,,,,,,,,,,0,16,16,16,597.3730713509867,,,,,,,,,,,,,,,,,,,,,,,,,,,,,,,,,,,,,,,,,,,,,,,,,,,,,,,,,,,,,,,,,,,,,,,,,597.3505172839941,597.3730713509867,598.3753396139946,599.3590966099873,599.3590966099873,599.3590966099873,600.2092855239898,right,0.8403529909992358,None,,,,,,,,,,,253054,001,2024-12-05_12h54.55.171,Test,2024.2.1,59.10287986638457,2024-12-05 12h55.23.515902 +0100,
24,150,120,50,None,17,17,0,False,,,,right,1.2846086880017538,None,,,,,,,,,,,,,0,17,17,17,600.2253316139977,,,,,,,,,,,,,,,,,,,,,,,,,,,,,,,,,,,,,,,,,,,,,,,,,,,,,,,,,,,,,,,,,,,,,,,,,600.2166462869936,600.2253316139977,601.2249385949981,602.224667950999,602.224667950999,602.224667950999,603.5265021299856,right,1.2846086880017538,None,,,,,,,,,,,253054,001,2024-12-05_12h54.55.171,Test,2024.2.1,59.10287986638457,2024-12-05 12h55.23.515902 +0100,
60,150,120,58,None,18,18,0,True,,,,right,1.3177800489938818,None,,,,,,,,,,,,,0,18,18,18,603.5423724379943,,,,,,,,,,,,,,,,,,,,,,,,,,,,,,,,,,,,,,,,,,,,,,,,,,,,,,,,,,,,,,,,,,,,,,,,,603.5340367919998,603.5423724379943,604.5417610369914,605.5420904299972,605.5420904299972,605.5420904299972,606.8770904309931,right,1.3177800489938818,None,,,,,,,,,,,253054,001,2024-12-05_12h54.55.171,Test,2024.2.1,59.10287986638457,2024-12-05 12h55.23.515902 +0100,
46,150,60,68,None,19,19,0,True,,,,left,0.980625312004122,None,,,,,,,,,,,,,0,19,19,19,606.8923379949993,,,,,,,,,,,,,,,,,,,,,,,,,,,,,,,,,,,,,,,,,,,,,,,,,,,,,,,,,,,,,,,,,,,,,,,,,606.8821630829916,606.8923379949993,607.8919061449997,608.8919809069921,608.8919809069921,608.8919809069921,609.8777724939864,left,0.980625312004122,None,,,,,,,,,,,253054,001,2024-12-05_12h54.55.171,Test,2024.2.1,59.10287986638457,2024-12-05 12h55.23.515902 +0100,
23,150,120,65,None,20,20,0,False,,,,right,0.8774012049980229,None,,,,,,,,,,,,,0,20,20,20,609.8926755379944,,,,,,,,,,,,,,,,,,,,,,,,,,,,,,,,,,,,,,,,,,,,,,,,,,,,,,,,,,,,,,,,,,,,,,,,,609.8833415359986,609.8926755379944,610.8927972239908,611.8922803339956,611.8922803339956,611.8922803339956,612.7769856679952,right,0.8774012049980229,None,,,,,,,,,,,253054,001,2024-12-05_12h54.55.171,Test,2024.2.1,59.10287986638457,2024-12-05 12h55.23.515902 +0100,
45,150,30,37,None,21,21,0,True,,,,left,1.570922472004895,None,,,,,,,,,,,,,0,21,21,21,612.7930611059855,,,,,,,,,,,,,,,,,,,,,,,,,,,,,,,,,,,,,,,,,,,,,,,,,,,,,,,,,,,,,,,,,,,,,,,,,612.7844410039979,612.7930611059855,613.7924254969985,614.792471526991,614.792471526991,614.792471526991,616.3773596969986,left,1.570922472004895,None,,,,,,,,,,,253054,001,2024-12-05_12h54.55.171,Test,2024.2.1,59.10287986638457,2024-12-05 12h55.23.515902 +0100,
32,150,180,21,None,22,22,0,False,,,,left,1.4565057690051617,None,,,,,,,,,,,,,0,22,22,22,616.3928765339951,,,,,,,,,,,,,,,,,,,,,,,,,,,,,,,,,,,,,,,,,,,,,,,,,,,,,,,,,,,,,,,,,,,,,,,,,616.3831541599939,616.3928765339951,617.3928325939924,618.3926032169984,618.3926032169984,618.3926032169984,619.860757781993,left,1.4565057690051617,None,,,,,,,,,,,253054,001,2024-12-05_12h54.55.171,Test,2024.2.1,59.10287986638457,2024-12-05 12h55.23.515902 +0100,
66,150,180,62,None,23,23,0,True,,,,right,1.8010404130036477,None,,,,,,,,,,,,,0,23,23,23,619.8778908949898,,,,,,,,,,,,,,,,,,,,,,,,,,,,,,,,,,,,,,,,,,,,,,,,,,,,,,,,,,,,,,,,,,,,,,,,,619.8681870289874,619.8778908949898,620.8936849599995,621.8762921079906,621.8762921079906,621.8762921079906,623.694716353988,right,1.8010404130036477,None,,,,,,,,,,,253054,001,2024-12-05_12h54.55.171,Test,2024.2.1,59.10287986638457,2024-12-05 12h55.23.515902 +0100,
11,150,60,46,None,24,24,0,False,,,,right,1.6966022370033897,None,,,,,,,,,,,,,0,24,24,24,623.7123521969916,,,,,,,,,,,,,,,,,,,,,,,,,,,,,,,,,,,,,,,,,,,,,,,,,,,,,,,,,,,,,,,,,,,,,,,,,623.7032263289875,623.7123521969916,624.7266597149865,625.7101704589877,625.7101704589877,625.7101704589877,627.4120321509981,right,1.6966022370033897,None,,,,,,,,,,,253054,001,2024-12-05_12h54.55.171,Test,2024.2.1,59.10287986638457,2024-12-05 12h55.23.515902 +0100,
15,150,60,18,None,25,25,0,False,,,,left,1.7538116900104797,None,,,,,,,,,,,,,0,25,25,25,627.4269247399934,,,,,,,,,,,,,,,,,,,,,,,,,,,,,,,,,,,,,,,,,,,,,,,,,,,,,,,,,,,,,,,,,,,,,,,,,627.4169073349913,627.4269247399934,628.4432596759871,629.4274527349917,629.4274527349917,629.4274527349917,631.1957354629994,left,1.7538116900104797,None,,,,,,,,,,,253054,001,2024-12-05_12h54.55.171,Test,2024.2.1,59.10287986638457,2024-12-05 12h55.23.515902 +0100,
10,150,30,36,None,26,26,0,False,,,,right,1.3040655859949766,None,,,,,,,,,,,,,0,26,26,26,631.2119259789906,,,,,,,,,,,,,,,,,,,,,,,,,,,,,,,,,,,,,,,,,,,,,,,,,,,,,,,,,,,,,,,,,,,,,,,,,631.2032167709986,631.2119259789906,632.2269640269951,633.211311866995,633.211311866995,633.211311866995,634.5292747109925,right,1.3040655859949766,None,,,,,,,,,,,253054,001,2024-12-05_12h54.55.171,Test,2024.2.1,59.10287986638457,2024-12-05 12h55.23.515902 +0100,
2,150,0,41,None,27,27,0,False,,,,left,1.3467262000049232,None,,,,,,,,,,,,,0,27,27,27,634.5454440249887,,,,,,,,,,,,,,,,,,,,,,,,,,,,,,,,,,,,,,,,,,,,,,,,,,,,,,,,,,,,,,,,,,,,,,,,,634.5368584909884,634.5454440249887,635.5608155749942,636.5276209299918,636.5276209299918,636.5276209299918,637.8794130099996,left,1.3467262000049232,None,,,,,,,,,,,253054,001,2024-12-05_12h54.55.171,Test,2024.2.1,59.10287986638457,2024-12-05 12h55.23.515902 +0100,
36,150,0,2,None,28,28,0,True,,,,left,1.550744959997246,None,,,,,,,,,,,,,0,28,28,28,637.8947004599904,,,,,,,,,,,,,,,,,,,,,,,,,,,,,,,,,,,,,,,,,,,,,,,,,,,,,,,,,,,,,,,,,,,,,,,,,637.885213816,637.8947004599904,638.8944455099991,639.8947814359999,639.8947814359999,639.8947814359999,641.4623285039997,left,1.550744959997246,None,,,,,,,,,,,253054,001,2024-12-05_12h54.55.171,Test,2024.2.1,59.10287986638457,2024-12-05 12h55.23.515902 +0100,
47,150,60,52,None,29,29,0,True,,,,left,2.6343030790012563,None,,,,,,,,,,,,,0,29,29,29,641.4771711999929,,,,,,,,,,,,,,,,,,,,,,,,,,,,,,,,,,,,,,,,,,,,,,,,,,,,,,,,,,,,,,,,,,,,,,,,,641.468272714992,641.4771711999929,642.4776511709933,643.4786582939996,643.4786582939996,643.4786582939996,646.1299998339964,left,2.6343030790012563,None,,,,,,,,,,,253054,001,2024-12-05_12h54.55.171,Test,2024.2.1,59.10287986638457,2024-12-05 12h55.23.515902 +0100,
18,150,90,60,None,30,30,0,False,,,,right,2.4434372410032665,None,,,,,,,,,,,,,0,30,30,30,646.1452055909904,,,,,,,,,,,,,,,,,,,,,,,,,,,,,,,,,,,,,,,,,,,,,,,,,,,,,,,,,,,,,,,,,,,,,,,,,646.1362538129906,646.1452055909904,647.1449360319966,648.1452702339884,648.1452702339884,648.1452702339884,650.5970404289983,right,2.4434372410032665,None,,,,,,,,,,,253054,001,2024-12-05_12h54.55.171,Test,2024.2.1,59.10287986638457,2024-12-05 12h55.23.515902 +0100,
4,150,0,27,None,31,31,0,False,,,,right,1.006060740997782,None,,,,,,,,,,,,,0,31,31,31,650.6123292659904,,,,,,,,,,,,,,,,,,,,,,,,,,,,,,,,,,,,,,,,,,,,,,,,,,,,,,,,,,,,,,,,,,,,,,,,,650.6025324719958,650.6123292659904,651.6116648489988,652.6118453419913,652.6118453419913,652.6118453419913,653.6296197379997,right,1.006060740997782,None,,,,,,,,,,,253054,001,2024-12-05_12h54.55.171,Test,2024.2.1,59.10287986638457,2024-12-05 12h55.23.515902 +0100,
21,150,120,23,None,32,32,0,False,,,,left,1.5921690800023498,None,,,,,,,,,,,,,0,32,32,32,653.6459828449879,,,,,,,,,,,,,,,,,,,,,,,,,,,,,,,,,,,,,,,,,,,,,,,,,,,,,,,,,,,,,,,,,,,,,,,,,653.6369814009959,653.6459828449879,654.6455917789863,655.6451304469956,655.6451304469956,655.6451304469956,657.2463902379968,left,1.5921690800023498,None,,,,,,,,,,,253054,001,2024-12-05_12h54.55.171,Test,2024.2.1,59.10287986638457,2024-12-05 12h55.23.515902 +0100,
42,150,30,19,None,33,33,0,True,,,,left,2.038722475001123,None,,,,,,,,,,,,,0,33,33,33,657.2615322679922,,,,,,,,,,,,,,,,,,,,,,,,,,,,,,,,,,,,,,,,,,,,,,,,,,,,,,,,,,,,,,,,,,,,,,,,,657.2520380709902,657.2615322679922,658.2621338299941,659.2460866399924,659.2460866399924,659.2460866399924,661.2970522079995,left,2.038722475001123,None,,,,,,,,,,,253054,001,2024-12-05_12h54.55.171,Test,2024.2.1,59.10287986638457,2024-12-05 12h55.23.515902 +0100,
55,150,90,29,None,34,34,0,True,,,,left,1.3180323450069409,None,,,,,,,,,,,,,0,34,34,34,661.3135448429966,,,,,,,,,,,,,,,,,,,,,,,,,,,,,,,,,,,,,,,,,,,,,,,,,,,,,,,,,,,,,,,,,,,,,,,,,661.3046896799933,661.3135448429966,662.329052437999,663.3123637529934,663.3123637529934,663.3123637529934,664.6479884039873,left,1.3180323450069409,None,,,,,,,,,,,253054,001,2024-12-05_12h54.55.171,Test,2024.2.1,59.10287986638457,2024-12-05 12h55.23.515902 +0100,
67,150,180,70,None,35,35,0,True,,,,left,1.94728511699941,None,,,,,,,,,,,,,0,35,35,35,664.6631913879974,,,,,,,,,,,,,,,,,,,,,,,,,,,,,,,,,,,,,,,,,,,,,,,,,,,,,,,,,,,,,,,,,,,,,,,,,664.654542941993,664.6631913879974,665.6624085239891,666.6625108429871,666.6625108429871,666.6625108429871,668.6148799359944,left,1.94728511699941,None,,,,,,,,,,,253054,001,2024-12-05_12h54.55.171,Test,2024.2.1,59.10287986638457,2024-12-05 12h55.23.515902 +0100,
63,150,150,33,None,36,36,0,True,,,,left,1.536095518997172,None,,,,,,,,,,,,,0,36,36,36,668.6296631539881,,,,,,,,,,,,,,,,,,,,,,,,,,,,,,,,,,,,,,,,,,,,,,,,,,,,,,,,,,,,,,,,,,,,,,,,,668.6201252119936,668.6296631539881,669.6294824509969,670.6300702369917,670.6300702369917,670.6300702369917,672.1813456439995,left,1.536095518997172,None,,,,,,,,,,,253054,001,2024-12-05_12h54.55.171,Test,2024.2.1,59.10287986638457,2024-12-05 12h55.23.515902 +0100,
70,150,180,67,None,37,37,0,True,,,,left,0.9867329940025229,None,,,,,,,,,,,,,0,37,37,37,672.1971527689893,,,,,,,,,,,,,,,,,,,,,,,,,,,,,,,,,,,,,,,,,,,,,,,,,,,,,,,,,,,,,,,,,,,,,,,,,672.1871670059918,672.1971527689893,673.1967599369964,674.1966193779954,674.1966193779954,674.1966193779954,675.1982650119899,left,0.9867329940025229,None,,,,,,,,,,,253054,001,2024-12-05_12h54.55.171,Test,2024.2.1,59.10287986638457,2024-12-05 12h55.23.515902 +0100,
8,150,30,28,None,38,38,0,False,,,,right,1.3972134360083146,None,,,,,,,,,,,,,0,38,38,38,675.2134809819981,,,,,,,,,,,,,,,,,,,,,,,,,,,,,,,,,,,,,,,,,,,,,,,,,,,,,,,,,,,,,,,,,,,,,,,,,675.2042748859967,675.2134809819981,676.2134887799912,677.2137793899892,677.2137793899892,677.2137793899892,678.6155720979878,right,1.3972134360083146,None,,,,,,,,,,,253054,001,2024-12-05_12h54.55.171,Test,2024.2.1,59.10287986638457,2024-12-05 12h55.23.515902 +0100,
59,150,120,6,None,39,39,0,True,,,,left,2.274356305002584,None,,,,,,,,,,,,,0,39,39,39,678.6312327959895,,,,,,,,,,,,,,,,,,,,,,,,,,,,,,,,,,,,,,,,,,,,,,,,,,,,,,,,,,,,,,,,,,,,,,,,,678.6228300599905,678.6312327959895,679.6301961059944,680.6301666029904,680.6301666029904,680.6301666029904,682.9155267329916,left,2.274356305002584,None,,,,,,,,,,,253054,001,2024-12-05_12h54.55.171,Test,2024.2.1,59.10287986638457,2024-12-05 12h55.23.515902 +0100,
51,150,90,66,None,40,40,0,True,,,,left,0.9812925940059358,None,,,,,,,,,,,,,0,40,40,40,682.9306331409898,,,,,,,,,,,,,,,,,,,,,,,,,,,,,,,,,,,,,,,,,,,,,,,,,,,,,,,,,,,,,,,,,,,,,,,,,682.9208537189988,682.9306331409898,683.9307632379932,684.9307838789973,684.9307838789973,684.9307838789973,685.9166088149941,left,0.9812925940059358,None,,,,,,,,,,,253054,001,2024-12-05_12h54.55.171,Test,2024.2.1,59.10287986638457,2024-12-05 12h55.23.515902 +0100,
39,150,0,53,None,41,41,0,True,,,,left,1.068918582997867,None,,,,,,,,,,,,,0,41,41,41,685.9329352119967,,,,,,,,,,,,,,,,,,,,,,,,,,,,,,,,,,,,,,,,,,,,,,,,,,,,,,,,,,,,,,,,,,,,,,,,,685.9239197959978,685.9329352119967,686.9474024659867,687.9307506289915,687.9307506289915,687.9307506289915,689.0167304699862,left,1.068918582997867,None,,,,,,,,,,,253054,001,2024-12-05_12h54.55.171,Test,2024.2.1,59.10287986638457,2024-12-05 12h55.23.515902 +0100,
27,150,150,42,None,42,42,0,False,,,,right,0.9850596329924883,None,,,,,,,,,,,,,0,42,42,42,689.0333237009909,,,,,,,,,,,,,,,,,,,,,,,,,,,,,,,,,,,,,,,,,,,,,,,,,,,,,,,,,,,,,,,,,,,,,,,,,689.0243625009898,689.0333237009909,690.0476071069861,691.031169689988,691.031169689988,691.031169689988,692.0333280419873,right,0.9850596329924883,None,,,,,,,,,,,253054,001,2024-12-05_12h54.55.171,Test,2024.2.1,59.10287986638457,2024-12-05 12h55.23.515902 +0100,
17,150,90,34,None,43,43,0,False,,,,left,1.5013455010048347,None,,,,,,,,,,,,,0,43,43,43,692.0482448229886,,,,,,,,,,,,,,,,,,,,,,,,,,,,,,,,,,,,,,,,,,,,,,,,,,,,,,,,,,,,,,,,,,,,,,,,,692.0391266869992,692.0482448229886,693.0477416999929,694.047735537999,694.047735537999,694.047735537999,695.5662528969988,left,1.5013455010048347,None,,,,,,,,,,,253054,001,2024-12-05_12h54.55.171,Test,2024.2.1,59.10287986638457,2024-12-05 12h55.23.515902 +0100,
1,150,0,9,None,44,44,0,False,,,,left,2.873946635008906,None,,,,,,,,,,,,,0,44,44,44,695.5818284969864,,,,,,,,,,,,,,,,,,,,,,,,,,,,,,,,,,,,,,,,,,,,,,,,,,,,,,,,,,,,,,,,,,,,,,,,,695.5719832449977,695.5818284969864,696.5811840999959,697.5816772759863,697.5816772759863,697.5816772759863,700.4665488869941,left,2.873946635008906,None,,,,,,,,,,,253054,001,2024-12-05_12h54.55.171,Test,2024.2.1,59.10287986638457,2024-12-05 12h55.23.515902 +0100,
38,150,0,64,None,45,45,0,True,,,,left,0.9615968199941562,None,,,,,,,,,,,,,0,45,45,45,700.4824524459982,,,,,,,,,,,,,,,,,,,,,,,,,,,,,,,,,,,,,,,,,,,,,,,,,,,,,,,,,,,,,,,,,,,,,,,,,700.4733346139983,700.4824524459982,701.4980120889959,702.4817461459897,702.4817461459897,702.4817461459897,703.4501227059955,left,0.9615968199941562,None,,,,,,,,,,,253054,001,2024-12-05_12h54.55.171,Test,2024.2.1,59.10287986638457,2024-12-05 12h55.23.515902 +0100,
50,150,60,24,None,46,46,0,True,,,,left,2.1382542950013885,None,,,,,,,,,,,,,0,46,46,46,703.467228346999,,,,,,,,,,,,,,,,,,,,,,,,,,,,,,,,,,,,,,,,,,,,,,,,,,,,,,,,,,,,,,,,,,,,,,,,,703.4579762239882,703.467228346999,704.482305943995,705.4490966169978,705.4490966169978,705.4490966169978,707.6017627399997,left,2.1382542950013885,None,,,,,,,,,,,253054,001,2024-12-05_12h54.55.171,Test,2024.2.1,59.10287986638457,2024-12-05 12h55.23.515902 +0100,
65,150,150,3,None,47,47,0,True,,,,left,1.8358723639976233,None,,,,,,,,,,,,,0,47,47,47,707.6186614489998,,,,,,,,,,,,,,,,,,,,,,,,,,,,,,,,,,,,,,,,,,,,,,,,,,,,,,,,,,,,,,,,,,,,,,,,,707.6092427689873,707.6186614489998,708.6325793989963,709.6698501659994,709.6698501659994,709.6698501659994,711.5171969229996,left,1.8358723639976233,None,,,,,,,,,,,253054,001,2024-12-05_12h54.55.171,Test,2024.2.1,59.10287986638457,2024-12-05 12h55.23.515902 +0100,
37,150,0,13,None,48,48,0,True,,,,left,1.4438286060030805,None,,,,,,,,,,,,,0,48,48,48,711.5335425509984,,,,,,,,,,,,,,,,,,,,,,,,,,,,,,,,,,,,,,,,,,,,,,,,,,,,,,,,,,,,,,,,,,,,,,,,,711.523894316997,711.5335425509984,712.5492313429859,713.5166924889927,713.5166924889927,713.5166924889927,714.9677243449987,left,1.4438286060030805,None,,,,,,,,,,,253054,001,2024-12-05_12h54.55.171,Test,2024.2.1,59.10287986638457,2024-12-05 12h55.23.515902 +0100,
34,150,180,38,None,49,49,0,False,,,,left,1.3196618060028413,None,,,,,,,,,,,,,0,49,49,49,714.9823882109922,,,,,,,,,,,,,,,,,,,,,,,,,,,,,,,,,,,,,,,,,,,,,,,,,,,,,,,,,,,,,,,,,,,,,,,,,714.9732232649985,714.9823882109922,715.982747682996,716.9828535229899,716.9828535229899,716.9828535229899,718.318046223998,left,1.3196618060028413,None,,,,,,,,,,,253054,001,2024-12-05_12h54.55.171,Test,2024.2.1,59.10287986638457,2024-12-05 12h55.23.515902 +0100,
48,150,60,56,None,50,50,0,True,,,,left,1.173514232999878,None,,,,,,,,,,,,,0,50,50,50,718.334052634993,,,,,,,,,,,,,,,,,,,,,,,,,,,,,,,,,,,,,,,,,,,,,,,,,,,,,,,,,,,,,,,,,,,,,,,,,718.3255755829887,718.334052634993,719.3497254469985,720.3331227559975,720.3331227559975,720.3331227559975,721.5185600289988,left,1.173514232999878,None,,,,,,,,,,,253054,001,2024-12-05_12h54.55.171,Test,2024.2.1,59.10287986638457,2024-12-05 12h55.23.515902 +0100,
61,150,150,39,None,51,51,0,True,,,,left,1.3883894169994164,None,,,,,,,,,,,,,0,51,51,51,721.5345312619902,,,,,,,,,,,,,,,,,,,,,,,,,,,,,,,,,,,,,,,,,,,,,,,,,,,,,,,,,,,,,,,,,,,,,,,,,721.526010068992,721.5345312619902,722.5334507719963,723.5174083589955,723.5174083589955,723.5174083589955,724.9188073949917,left,1.3883894169994164,None,,,,,,,,,,,253054,001,2024-12-05_12h54.55.171,Test,2024.2.1,59.10287986638457,2024-12-05 12h55.23.515902 +0100,
25,150,120,22,None,52,52,0,False,,,,right,1.2594564269966213,None,,,,,,,,,,,,,0,52,52,52,724.9333432699932,,,,,,,,,,,,,,,,,,,,,,,,,,,,,,,,,,,,,,,,,,,,,,,,,,,,,,,,,,,,,,,,,,,,,,,,,724.924382541998,724.9333432699932,725.9348838219885,726.9337231149984,726.9337231149984,726.9337231149984,728.2020869779954,right,1.2594564269966213,None,,,,,,,,,,,253054,001,2024-12-05_12h54.55.171,Test,2024.2.1,59.10287986638457,2024-12-05 12h55.23.515902 +0100,
19,150,90,12,None,53,53,0,False,,,,left,1.2588971790100913,None,,,,,,,,,,,,,0,53,53,53,728.2168207139912,,,,,,,,,,,,,,,,,,,,,,,,,,,,,,,,,,,,,,,,,,,,,,,,,,,,,,,,,,,,,,,,,,,,,,,,,728.2076670379902,728.2168207139912,729.216917711994,730.2175995639991,730.2175995639991,730.2175995639991,731.4858355479955,left,1.2588971790100913,None,,,,,,,,,,,253054,001,2024-12-05_12h54.55.171,Test,2024.2.1,59.10287986638457,2024-12-05 12h55.23.515902 +0100,
43,150,30,49,None,54,54,0,True,,,,left,3.1897634269989794,None,,,,,,,,,,,,,0,54,54,54,731.5022239949903,,,,,,,,,,,,,,,,,,,,,,,,,,,,,,,,,,,,,,,,,,,,,,,,,,,,,,,,,,,,,,,,,,,,,,,,,731.4935669839906,731.5022239949903,732.5171251679858,733.500133700989,733.500133700989,733.500133700989,736.7028924859915,left,3.1897634269989794,None,736.5008948849863,736.5008948849863,736.5008948849863,,,,,,,,253054,001,2024-12-05_12h54.55.171,Test,2024.2.1,59.10287986638457,2024-12-05 12h55.23.515902 +0100,
16,150,90,25,None,55,55,0,False,,,,right,2.4725091079890262,None,,,,,,,,,,,,,0,55,55,55,736.7187803429988,,,,,,,,,,,,,,,,,,,,,,,,,,,,,,,,,,,,,,,,,,,,,,,,,,,,,,,,,,,,,,,,,,,,,,,,,736.7102855189878,736.7187803429988,737.7346944779856,738.7183389309939,738.7183389309939,738.7183389309939,741.2028338039963,right,2.4725091079890262,None,,,,,,,,,,,253054,001,2024-12-05_12h54.55.171,Test,2024.2.1,59.10287986638457,2024-12-05 12h55.23.515902 +0100,
3,150,0,14,None,56,56,0,False,,,,left,2.4554501509992406,None,,,,,,,,,,,,,0,56,56,56,741.2185874489951,,,,,,,,,,,,,,,,,,,,,,,,,,,,,,,,,,,,,,,,,,,,,,,,,,,,,,,,,,,,,,,,,,,,,,,,,741.2091246369964,741.2185874489951,742.218040969994,743.2176094499882,743.2176094499882,743.2176094499882,745.6864925679984,left,2.4554501509992406,None,,,,,,,,,,,253054,001,2024-12-05_12h54.55.171,Test,2024.2.1,59.10287986638457,2024-12-05 12h55.23.515902 +0100,
57,150,120,61,None,57,57,0,True,,,,right,1.1748735069995746,None,,,,,,,,,,,,,0,57,57,57,745.7022567899985,,,,,,,,,,,,,,,,,,,,,,,,,,,,,,,,,,,,,,,,,,,,,,,,,,,,,,,,,,,,,,,,,,,,,,,,,745.6931196309888,745.7022567899985,746.7014369219978,747.6852265499911,747.6852265499911,747.6852265499911,748.8694606679928,right,1.1748735069995746,None,,,,,,,,,,,253054,001,2024-12-05_12h54.55.171,Test,2024.2.1,59.10287986638457,2024-12-05 12h55.23.515902 +0100,
29,150,150,35,None,58,58,0,False,,,,left,1.342173904995434,None,,,,,,,,,,,,,0,58,58,58,748.8860291349993,,,,,,,,,,,,,,,,,,,,,,,,,,,,,,,,,,,,,,,,,,,,,,,,,,,,,,,,,,,,,,,,,,,,,,,,,748.8757019669865,748.8860291349993,749.8856590019859,750.8694905109878,750.8694905109878,750.8694905109878,752.2206086399965,left,1.342173904995434,None,,,,,,,,,,,253054,001,2024-12-05_12h54.55.171,Test,2024.2.1,59.10287986638457,2024-12-05 12h55.23.515902 +0100,
41,150,30,1,None,59,59,0,True,,,,left,1.4567457899975125,None,,,,,,,,,,,,,0,59,59,59,752.2369502929942,,,,,,,,,,,,,,,,,,,,,,,,,,,,,,,,,,,,,,,,,,,,,,,,,,,,,,,,,,,,,,,,,,,,,,,,,752.2282067109918,752.2369502929942,753.252052662996,754.2353835659887,754.2353835659887,754.2353835659887,755.7041883059865,left,1.4567457899975125,None,,,,,,,,,,,253054,001,2024-12-05_12h54.55.171,Test,2024.2.1,59.10287986638457,2024-12-05 12h55.23.515902 +0100,
13,150,60,15,None,60,60,0,False,,,,left,2.862219703994924,None,,,,,,,,,,,,,0,60,60,60,755.7207565489953,,,,,,,,,,,,,,,,,,,,,,,,,,,,,,,,,,,,,,,,,,,,,,,,,,,,,,,,,,,,,,,,,,,,,,,,,755.7117905339983,755.7207565489953,756.7200762809953,757.7188340289867,757.7188340289867,757.7188340289867,760.589816430991,left,2.862219703994924,None,,,,,,,,,,,253054,001,2024-12-05_12h54.55.171,Test,2024.2.1,59.10287986638457,2024-12-05 12h55.23.515902 +0100,
7,150,30,10,None,61,61,0,False,,,,left,1.509842037994531,None,,,,,,,,,,,,,0,61,61,61,760.6062718279863,,,,,,,,,,,,,,,,,,,,,,,,,,,,,,,,,,,,,,,,,,,,,,,,,,,,,,,,,,,,,,,,,,,,,,,,,760.5968886779883,760.6062718279863,761.6192536589951,762.6029747769935,762.6029747769935,762.6029747769935,764.1210218369961,left,1.509842037994531,None,,,,,,,,,,,253054,001,2024-12-05_12h54.55.171,Test,2024.2.1,59.10287986638457,2024-12-05 12h55.23.515902 +0100,
12,150,60,59,None,62,62,0,False,,,,left,1.587318692007102,None,,,,,,,,,,,,,0,62,62,62,764.1365392019943,,,,,,,,,,,,,,,,,,,,,,,,,,,,,,,,,,,,,,,,,,,,,,,,,,,,,,,,,,,,,,,,,,,,,,,,,764.1268979269953,764.1365392019943,765.1359420059889,766.1362586449977,766.1362586449977,766.1362586449977,767.7381161349913,left,1.587318692007102,None,,,,,,,,,,,253054,001,2024-12-05_12h54.55.171,Test,2024.2.1,59.10287986638457,2024-12-05 12h55.23.515902 +0100,
30,150,150,4,None,63,63,0,False,,,,right,0.9526515299949097,None,,,,,,,,,,,,,0,63,63,63,767.7533662929927,,,,,,,,,,,,,,,,,,,,,,,,,,,,,,,,,,,,,,,,,,,,,,,,,,,,,,,,,,,,,,,,,,,,,,,,,767.7443038299971,767.7533662929927,768.7532637209952,769.7526979259856,769.7526979259856,769.7526979259856,770.7113292529975,right,0.9526515299949097,None,,,,,,,,,,,253054,001,2024-12-05_12h54.55.171,Test,2024.2.1,59.10287986638457,2024-12-05 12h55.23.515902 +0100,
69,150,180,16,None,64,64,0,True,,,,left,1.3635597239917843,None,,,,,,,,,,,,,0,64,64,64,770.7288399889949,,,,,,,,,,,,,,,,,,,,,,,,,,,,,,,,,,,,,,,,,,,,,,,,,,,,,,,,,,,,,,,,,,,,,,,,,770.7201362589985,770.7288399889949,771.7370002539974,772.7203640419903,772.7203640419903,772.7203640419903,774.090257644988,left,1.3635597239917843,None,,,,,,,,,,,253054,001,2024-12-05_12h54.55.171,Test,2024.2.1,59.10287986638457,2024-12-05 12h55.23.515902 +0100,
62,150,150,26,None,65,65,0,True,,,,left,1.1017157769965706,None,,,,,,,,,,,,,0,65,65,65,774.1052134479978,,,,,,,,,,,,,,,,,,,,,,,,,,,,,,,,,,,,,,,,,,,,,,,,,,,,,,,,,,,,,,,,,,,,,,,,,774.096157508,774.1052134479978,775.1201097109879,776.1031089969911,776.1031089969911,776.1031089969911,777.2220184469916,left,1.1017157769965706,None,,,,,,,,,,,253054,001,2024-12-05_12h54.55.171,Test,2024.2.1,59.10287986638457,2024-12-05 12h55.23.515902 +0100,
26,150,150,57,None,66,66,0,False,,,,left,1.4145417940017069,None,,,,,,,,,,,,,0,66,66,66,777.2387912939885,,,,,,,,,,,,,,,,,,,,,,,,,,,,,,,,,,,,,,,,,,,,,,,,,,,,,,,,,,,,,,,,,,,,,,,,,777.2293936619972,777.2387912939885,778.254208481987,779.2367264509958,779.2367264509958,779.2367264509958,780.656704871988,left,1.4145417940017069,None,,,,,,,,,,,253054,001,2024-12-05_12h54.55.171,Test,2024.2.1,59.10287986638457,2024-12-05 12h55.23.515902 +0100,
56,150,120,8,None,67,67,0,True,,,,left,2.3859158139966894,None,,,,,,,,,,,,,0,67,67,67,780.6713482919877,,,,,,,,,,,,,,,,,,,,,,,,,,,,,,,,,,,,,,,,,,,,,,,,,,,,,,,,,,,,,,,,,,,,,,,,,780.6621286719892,780.6713482919877,781.670306244996,782.670913237991,782.670913237991,782.670913237991,785.0718273579987,left,2.3859158139966894,None,,,,,,,,,,,253054,001,2024-12-05_12h54.55.171,Test,2024.2.1,59.10287986638457,2024-12-05 12h55.23.515902 +0100,
9,150,30,47,None,68,68,0,False,,,,left,0.9928635240066797,None,,,,,,,,,,,,,0,68,68,68,785.087088810993,,,,,,,,,,,,,,,,,,,,,,,,,,,,,,,,,,,,,,,,,,,,,,,,,,,,,,,,,,,,,,,,,,,,,,,,,785.0776518509956,785.087088810993,786.0869764629897,787.0875777959882,787.0875777959882,787.0875777959882,788.0903311149887,left,0.9928635240066797,None,,,,,,,,,,,253054,001,2024-12-05_12h54.55.171,Test,2024.2.1,59.10287986638457,2024-12-05 12h55.23.515902 +0100,
53,150,90,48,None,69,69,0,True,,,,left,0.897732925004675,None,,,,,,,,,,,,,0,69,69,69,788.107431100987,,,,,,,,,,,,,,,,,,,,,,,,,,,,,,,,,,,,,,,,,,,,,,,,,,,,,,,,,,,,,,,,,,,,,,,,,788.0975576369965,788.107431100987,789.1203678529855,790.1044564049953,790.1044564049953,790.1044564049953,791.0082077679981,left,0.897732925004675,None,,,,,,,,,,,253054,001,2024-12-05_12h54.55.171,Test,2024.2.1,59.10287986638457,2024-12-05 12h55.23.515902 +0100,
,,,,,,,,,,,,,,,,,,,,,,,,,,,,,,,,,,,,,,,,,,,,,,,,,,,,,,,,,,,,,,,,,,,,,,,,,,,,,,,,,,,,,,,,,,,,,,,,,,,,,,,,,,,,,,,,,,,,,791.0085481669958,791.0210027789872,791.0210027789872,793.7833067269967,space,2.7561867509939475,None,253054,001,2024-12-05_12h54.55.171,Test,2024.2.1,59.10287986638457,2024-12-05 12h55.23.515902 +0100,
