Trial_Number,Exposure_Duration,Displacement_Angle,Stimulus,Response,thisN,thisTrialN,thisRepN,Is_Distractor,key_resp_3.keys,key_resp_3.rt,key_resp_3.duration,key_resp_7.keys,key_resp_7.rt,key_resp_7.duration,trials.thisRepN,trials.thisTrialN,trials.thisN,trials.thisIndex,trials_2.thisRepN,trials_2.thisTrialN,trials_2.thisN,trials_2.thisIndex,trials_3.thisRepN,trials_3.thisTrialN,trials_3.thisN,trials_3.thisIndex,trials_4.thisRepN,trials_4.thisTrialN,trials_4.thisN,trials_4.thisIndex,thisRow.t,notes,Intro_to_experiment.started,important1_2.started,key_resp_8.started,Intro_to_experiment.stopped,key_resp_8.keys,key_resp_8.rt,key_resp_8.duration,important.started,important1.started,key_resp_4.started,important.stopped,key_resp_4.keys,key_resp_4.rt,key_resp_4.duration,training_instruction.started,key_resp_9.started,important1_3.started,training_instruction.stopped,key_resp_9.keys,key_resp_9.rt,key_resp_9.duration,training_trial.started,cross.started,image.started,aperture.started,cross.stopped,image.stopped,aperture.stopped,training_trial.stopped,New_instruction.started,text.started,key_resp_2.started,New_instruction.stopped,key_resp_2.keys,key_resp_2.rt,key_resp_2.duration,test_trial.started,cross2.started,cross2.stopped,image_2.started,key_resp_3.started,aperture_2.started,test_trial.stopped,trials_2.key_resp_3.keys,trials_2.key_resp_3.rt,trials_2.key_resp_3.duration,image_2.stopped,aperture_2.stopped,text_3.started,start_blok_2.started,key_resp_5.started,text_4.started,start_blok_2.stopped,key_resp_5.keys,key_resp_5.rt,key_resp_5.duration,training_2.started,cross_2.started,image_3.started,aperture_3.started,cross_2.stopped,image_3.stopped,aperture_3.stopped,training_2.stopped,nyeste_instruks.started,text_5.started,key_resp_6.started,nyeste_instruks.stopped,key_resp_6.keys,key_resp_6.rt,key_resp_6.duration,test_2.started,cross2_2.started,cross2_2.stopped,image_4.started,key_resp_7.started,aperture_4.started,test_2.stopped,trials_4.key_resp_7.keys,trials_4.key_resp_7.rt,trials_4.key_resp_7.duration,Instruction.started,Instruktion.started,key_resp.started,Instruction.stopped,key_resp.keys,key_resp.rt,key_resp.duration,participant,session,date,expName,psychopyVersion,frameRate,expStart,
,,,,,,,,,,,,,,,,,,,,,,,,,,,,,,,,,0.007178915955591947,0.014064124959986657,0.014064124959986657,54.77378204098204,space,54.713726290967315,None,,,,,,,,,,,,,,,,,,,,,,,,,,,,,,,,,,,,,,,,,,,,,,,,,,,,,,,,,,,,,,,,,,,,,,,,,,,,,,,,,,277329,001,2024-12-08_15h14.14.810,Test,2024.2.4,None,2024-12-08 15h15.27.543679 +0100,
,,,,,,,,,,,,,,,,,,,,,,,,,,,,,,,,,,,,,,,,54.773907875001896,54.81243466597516,54.81243466597516,72.51284583297092,space,17.697672958951443,None,,,,,,,,,,,,,,,,,,,,,,,,,,,,,,,,,,,,,,,,,,,,,,,,,,,,,,,,,,,,,,,,,,,,,,,,,,,277329,001,2024-12-08_15h14.14.810,Test,2024.2.4,None,2024-12-08 15h15.27.543679 +0100,
,,,,,,,,,,,,,,,,,,,,,,,,,,,,,,,,,,,,,,,,,,,,,,,72.51295516599203,72.54017408296932,72.54017408296932,99.7381975830067,space,27.191694457957055,None,,,,,,,,,,,,,,,,,,,,,,,,,,,,,,,,,,,,,,,,,,,,,,,,,,,,,,,,,,,,,,,,,,,,277329,001,2024-12-08_15h14.14.810,Test,2024.2.4,None,2024-12-08 15h15.27.543679 +0100,
34,150,180,14,None,0,0,0,,,,,,,,0,0,0,33,,,,,,,,,,,,,99.79151270800503,,,,,,,,,,,,,,,,,,,,,,,99.7854379999917,99.79151270800503,99.93633204099024,99.93633204099024,99.99150424997788,101.63619308295893,101.63619308295893,101.62083420797717,,,,,,,,,,,,,,,,,,,,,,,,,,,,,,,,,,,,,,,,,,,,,,,,,,,,,,,,,,,,277329,001,2024-12-08_15h14.14.810,Test,2024.2.4,None,2024-12-08 15h15.27.543679 +0100,
5,150,0,3,None,1,1,0,,,,,,,,0,1,1,4,,,,,,,,,,,,,101.63619308295893,,,,,,,,,,,,,,,,,,,,,,,101.63188545795856,101.6397841660073,101.83648762496887,101.83648762496887,101.83648762496887,103.53522029099986,103.53522029099986,103.52043341600802,,,,,,,,,,,,,,,,,,,,,,,,,,,,,,,,,,,,,,,,,,,,,,,,,,,,,,,,,,,,277329,001,2024-12-08_15h14.14.810,Test,2024.2.4,None,2024-12-08 15h15.27.543679 +0100,
21,150,120,55,None,2,2,0,,,,,,,,0,2,2,20,,,,,,,,,,,,,103.53522029099986,,,,,,,,,,,,,,,,,,,,,,,103.53043874999275,103.5391145409667,103.73488949995954,103.73488949995954,103.73488949995954,105.4351654999773,105.4351654999773,105.4204670409672,,,,,,,,,,,,,,,,,,,,,,,,,,,,,,,,,,,,,,,,,,,,,,,,,,,,,,,,,,,,277329,001,2024-12-08_15h14.14.810,Test,2024.2.4,None,2024-12-08 15h15.27.543679 +0100,
29,150,150,33,None,3,3,0,,,,,,,,0,3,3,28,,,,,,,,,,,,,105.4351654999773,,,,,,,,,,,,,,,,,,,,,,,105.43014804099221,105.43964379100362,105.63644370797556,105.63644370797556,105.63644370797556,107.33581966598285,107.33581966598285,107.32059433299582,,,,,,,,,,,,,,,,,,,,,,,,,,,,,,,,,,,,,,,,,,,,,,,,,,,,,,,,,,,,277329,001,2024-12-08_15h14.14.810,Test,2024.2.4,None,2024-12-08 15h15.27.543679 +0100,
31,150,180,43,None,4,4,0,,,,,,,,0,4,4,30,,,,,,,,,,,,,107.33581966598285,,,,,,,,,,,,,,,,,,,,,,,107.330812375003,107.3399074159679,107.53646249999292,107.53646249999292,107.53646249999292,109.23505833296804,109.23505833296804,109.22067733301083,,,,,,,,,,,,,,,,,,,,,,,,,,,,,,,,,,,,,,,,,,,,,,,,,,,,,,,,,,,,277329,001,2024-12-08_15h14.14.810,Test,2024.2.4,None,2024-12-08 15h15.27.543679 +0100,
32,150,180,60,None,5,5,0,,,,,,,,0,5,5,31,,,,,,,,,,,,,109.23505833296804,,,,,,,,,,,,,,,,,,,,,,,109.23003933299333,109.23921124998014,109.43636875000084,109.43636875000084,109.43636875000084,111.13447162497323,111.13447162497323,111.12049366597785,,,,,,,,,,,,,,,,,,,,,,,,,,,,,,,,,,,,,,,,,,,,,,,,,,,,,,,,,,,,277329,001,2024-12-08_15h14.14.810,Test,2024.2.4,None,2024-12-08 15h15.27.543679 +0100,
10,150,30,26,None,6,6,0,,,,,,,,0,6,6,9,,,,,,,,,,,,,111.13447162497323,,,,,,,,,,,,,,,,,,,,,,,111.12955066596624,111.13946774997748,111.33628066600068,111.33628066600068,111.33628066600068,113.03484425001079,113.03484425001079,113.02061775000766,,,,,,,,,,,,,,,,,,,,,,,,,,,,,,,,,,,,,,,,,,,,,,,,,,,,,,,,,,,,277329,001,2024-12-08_15h14.14.810,Test,2024.2.4,None,2024-12-08 15h15.27.543679 +0100,
27,150,150,45,None,7,7,0,,,,,,,,0,7,7,26,,,,,,,,,,,,,113.03484425001079,,,,,,,,,,,,,,,,,,,,,,,113.02995041600661,113.03894616599428,113.23636570799863,113.23636570799863,113.23636570799863,114.93467529100599,114.93467529100599,114.92060862499056,,,,,,,,,,,,,,,,,,,,,,,,,,,,,,,,,,,,,,,,,,,,,,,,,,,,,,,,,,,,277329,001,2024-12-08_15h14.14.810,Test,2024.2.4,None,2024-12-08 15h15.27.543679 +0100,
35,150,180,1,None,8,8,0,,,,,,,,0,8,8,34,,,,,,,,,,,,,114.93467529100599,,,,,,,,,,,,,,,,,,,,,,,114.9296949999989,114.93878416600637,115.13642916595563,115.13642916595563,115.13642916595563,116.83471945795463,116.83471945795463,116.8205758749973,,,,,,,,,,,,,,,,,,,,,,,,,,,,,,,,,,,,,,,,,,,,,,,,,,,,,,,,,,,,277329,001,2024-12-08_15h14.14.810,Test,2024.2.4,None,2024-12-08 15h15.27.543679 +0100,
30,150,150,11,None,9,9,0,,,,,,,,0,9,9,29,,,,,,,,,,,,,116.83471945795463,,,,,,,,,,,,,,,,,,,,,,,116.82972949999385,116.83942441595718,117.0363253329997,117.0363253329997,117.0363253329997,118.7349092909717,118.7349092909717,118.72079933300847,,,,,,,,,,,,,,,,,,,,,,,,,,,,,,,,,,,,,,,,,,,,,,,,,,,,,,,,,,,,277329,001,2024-12-08_15h14.14.810,Test,2024.2.4,None,2024-12-08 15h15.27.543679 +0100,
14,150,60,17,None,10,10,0,,,,,,,,0,10,10,13,,,,,,,,,,,,,118.7349092909717,,,,,,,,,,,,,,,,,,,,,,,118.72987391595962,118.7388972909539,118.93640899995808,118.93640899995808,118.93640899995808,120.63379083300242,120.63379083300242,120.6205162499682,,,,,,,,,,,,,,,,,,,,,,,,,,,,,,,,,,,,,,,,,,,,,,,,,,,,,,,,,,,,277329,001,2024-12-08_15h14.14.810,Test,2024.2.4,None,2024-12-08 15h15.27.543679 +0100,
33,150,180,21,None,11,11,0,,,,,,,,0,11,11,32,,,,,,,,,,,,,120.63379083300242,,,,,,,,,,,,,,,,,,,,,,,120.6289880409604,120.63768658298068,120.83626099996036,120.83626099996036,120.83626099996036,122.53453912498662,122.53453912498662,122.52050749998307,,,,,,,,,,,,,,,,,,,,,,,,,,,,,,,,,,,,,,,,,,,,,,,,,,,,,,,,,,,,277329,001,2024-12-08_15h14.14.810,Test,2024.2.4,None,2024-12-08 15h15.27.543679 +0100,
25,150,120,58,None,12,12,0,,,,,,,,0,12,12,24,,,,,,,,,,,,,122.53453912498662,,,,,,,,,,,,,,,,,,,,,,,122.52970391599229,122.53869533300167,122.73634924995713,122.73634924995713,122.73634924995713,124.43401583295781,124.43401583295781,124.42048916599015,,,,,,,,,,,,,,,,,,,,,,,,,,,,,,,,,,,,,,,,,,,,,,,,,,,,,,,,,,,,277329,001,2024-12-08_15h14.14.810,Test,2024.2.4,None,2024-12-08 15h15.27.543679 +0100,
6,150,30,68,None,13,13,0,,,,,,,,0,13,13,5,,,,,,,,,,,,,124.43401583295781,,,,,,,,,,,,,,,,,,,,,,,124.42912374995649,124.43892229098128,124.63641362497583,124.63641362497583,124.63641362497583,126.33428000001004,126.33428000001004,126.32056562497746,,,,,,,,,,,,,,,,,,,,,,,,,,,,,,,,,,,,,,,,,,,,,,,,,,,,,,,,,,,,277329,001,2024-12-08_15h14.14.810,Test,2024.2.4,None,2024-12-08 15h15.27.543679 +0100,
17,150,90,41,None,14,14,0,,,,,,,,0,14,14,16,,,,,,,,,,,,,126.33428000001004,,,,,,,,,,,,,,,,,,,,,,,126.32952233299147,126.33831087499857,126.53635979100363,126.53635979100363,126.53635979100363,128.23390866600676,128.23390866600676,128.22059545799857,,,,,,,,,,,,,,,,,,,,,,,,,,,,,,,,,,,,,,,,,,,,,,,,,,,,,,,,,,,,277329,001,2024-12-08_15h14.14.810,Test,2024.2.4,None,2024-12-08 15h15.27.543679 +0100,
24,150,120,52,None,15,15,0,,,,,,,,0,15,15,23,,,,,,,,,,,,,128.23390866600676,,,,,,,,,,,,,,,,,,,,,,,128.22910983295878,128.2387821659795,128.43637829099316,128.43637829099316,128.43637829099316,130.13425587496022,130.13425587496022,130.1205130830058,,,,,,,,,,,,,,,,,,,,,,,,,,,,,,,,,,,,,,,,,,,,,,,,,,,,,,,,,,,,277329,001,2024-12-08_15h14.14.810,Test,2024.2.4,None,2024-12-08 15h15.27.543679 +0100,
3,150,0,61,None,16,16,0,,,,,,,,0,16,16,2,,,,,,,,,,,,,130.13425587496022,,,,,,,,,,,,,,,,,,,,,,,130.12927174998913,130.1392520829686,130.3364589579869,130.3364589579869,130.3364589579869,132.03410004096804,132.03410004096804,132.02053799998248,,,,,,,,,,,,,,,,,,,,,,,,,,,,,,,,,,,,,,,,,,,,,,,,,,,,,,,,,,,,277329,001,2024-12-08_15h14.14.810,Test,2024.2.4,None,2024-12-08 15h15.27.543679 +0100,
1,150,0,57,None,17,17,0,,,,,,,,0,17,17,0,,,,,,,,,,,,,132.03410004096804,,,,,,,,,,,,,,,,,,,,,,,132.02916924998863,132.03814070799854,132.23634549998678,132.23634549998678,132.23634549998678,133.9339649999747,133.9339649999747,133.9208176250104,,,,,,,,,,,,,,,,,,,,,,,,,,,,,,,,,,,,,,,,,,,,,,,,,,,,,,,,,,,,277329,001,2024-12-08_15h14.14.810,Test,2024.2.4,None,2024-12-08 15h15.27.543679 +0100,
16,150,90,40,None,18,18,0,,,,,,,,0,18,18,15,,,,,,,,,,,,,133.9339649999747,,,,,,,,,,,,,,,,,,,,,,,133.929013749992,133.93902487499872,134.13640783296432,134.13640783296432,134.13640783296432,135.83427187497728,135.83427187497728,135.82031458296115,,,,,,,,,,,,,,,,,,,,,,,,,,,,,,,,,,,,,,,,,,,,,,,,,,,,,,,,,,,,277329,001,2024-12-08_15h14.14.810,Test,2024.2.4,None,2024-12-08 15h15.27.543679 +0100,
7,150,30,38,None,19,19,0,,,,,,,,0,19,19,6,,,,,,,,,,,,,135.83427187497728,,,,,,,,,,,,,,,,,,,,,,,135.82934237498557,135.83908112498466,136.0363913750043,136.0363913750043,136.0363913750043,137.73388566600624,137.73388566600624,137.7205452079652,,,,,,,,,,,,,,,,,,,,,,,,,,,,,,,,,,,,,,,,,,,,,,,,,,,,,,,,,,,,277329,001,2024-12-08_15h14.14.810,Test,2024.2.4,None,2024-12-08 15h15.27.543679 +0100,
26,150,150,25,None,20,20,0,,,,,,,,0,20,20,25,,,,,,,,,,,,,137.73388566600624,,,,,,,,,,,,,,,,,,,,,,,137.72896733297966,137.73780504096067,137.93630299996585,137.93630299996585,137.93630299996585,139.63373716600472,139.63373716600472,139.62043512496166,,,,,,,,,,,,,,,,,,,,,,,,,,,,,,,,,,,,,,,,,,,,,,,,,,,,,,,,,,,,277329,001,2024-12-08_15h14.14.810,Test,2024.2.4,None,2024-12-08 15h15.27.543679 +0100,
28,150,150,13,None,21,21,0,,,,,,,,0,21,21,27,,,,,,,,,,,,,139.63373716600472,,,,,,,,,,,,,,,,,,,,,,,139.62895287497668,139.63779558299575,139.83638258295832,139.83638258295832,139.83638258295832,141.5340778749669,141.5340778749669,141.52059883298352,,,,,,,,,,,,,,,,,,,,,,,,,,,,,,,,,,,,,,,,,,,,,,,,,,,,,,,,,,,,277329,001,2024-12-08_15h14.14.810,Test,2024.2.4,None,2024-12-08 15h15.27.543679 +0100,
13,150,60,24,None,22,22,0,,,,,,,,0,22,22,12,,,,,,,,,,,,,141.5340778749669,,,,,,,,,,,,,,,,,,,,,,,141.52935166598763,141.53792945796158,141.7362616249593,141.7362616249593,141.7362616249593,143.43412649998209,143.43412649998209,143.42037266597617,,,,,,,,,,,,,,,,,,,,,,,,,,,,,,,,,,,,,,,,,,,,,,,,,,,,,,,,,,,,277329,001,2024-12-08_15h14.14.810,Test,2024.2.4,None,2024-12-08 15h15.27.543679 +0100,
22,150,120,35,None,23,23,0,,,,,,,,0,23,23,21,,,,,,,,,,,,,143.43412649998209,,,,,,,,,,,,,,,,,,,,,,,143.42928275000304,143.4394084159867,143.63638254097896,143.63638254097896,143.63638254097896,145.3344802079955,145.3344802079955,145.32095037499676,,,,,,,,,,,,,,,,,,,,,,,,,,,,,,,,,,,,,,,,,,,,,,,,,,,,,,,,,,,,277329,001,2024-12-08_15h14.14.810,Test,2024.2.4,None,2024-12-08 15h15.27.543679 +0100,
11,150,60,62,None,24,24,0,,,,,,,,0,24,24,10,,,,,,,,,,,,,145.3344802079955,,,,,,,,,,,,,,,,,,,,,,,145.3294019579771,145.33919570798753,145.53650279098656,145.53650279098656,145.53650279098656,147.2348539159866,147.2348539159866,147.22038908296963,,,,,,,,,,,,,,,,,,,,,,,,,,,,,,,,,,,,,,,,,,,,,,,,,,,,,,,,,,,,277329,001,2024-12-08_15h14.14.810,Test,2024.2.4,None,2024-12-08 15h15.27.543679 +0100,
2,150,0,7,None,25,25,0,,,,,,,,0,25,25,1,,,,,,,,,,,,,147.2348539159866,,,,,,,,,,,,,,,,,,,,,,,147.22992766596144,147.23883379099425,147.43634745798772,147.43634745798772,147.43634745798772,149.1350449579768,149.1350449579768,149.1206630829838,,,,,,,,,,,,,,,,,,,,,,,,,,,,,,,,,,,,,,,,,,,,,,,,,,,,,,,,,,,,277329,001,2024-12-08_15h14.14.810,Test,2024.2.4,None,2024-12-08 15h15.27.543679 +0100,
4,150,0,15,None,26,26,0,,,,,,,,0,26,26,3,,,,,,,,,,,,,149.1350449579768,,,,,,,,,,,,,,,,,,,,,,,149.13001500000246,149.13910716597456,149.33637779095443,149.33637779095443,149.33637779095443,151.03447366598994,151.03447366598994,151.02036891598254,,,,,,,,,,,,,,,,,,,,,,,,,,,,,,,,,,,,,,,,,,,,,,,,,,,,,,,,,,,,277329,001,2024-12-08_15h14.14.810,Test,2024.2.4,None,2024-12-08 15h15.27.543679 +0100,
20,150,90,31,None,27,27,0,,,,,,,,0,27,27,19,,,,,,,,,,,,,151.03447366598994,,,,,,,,,,,,,,,,,,,,,,,151.02947704098187,151.03842954098945,151.23629104095744,151.23629104095744,151.23629104095744,152.93508929095697,152.93508929095697,152.92070795799373,,,,,,,,,,,,,,,,,,,,,,,,,,,,,,,,,,,,,,,,,,,,,,,,,,,,,,,,,,,,277329,001,2024-12-08_15h14.14.810,Test,2024.2.4,None,2024-12-08 15h15.27.543679 +0100,
23,150,120,51,None,28,28,0,,,,,,,,0,28,28,22,,,,,,,,,,,,,152.93508929095697,,,,,,,,,,,,,,,,,,,,,,,152.9302364999894,152.93974812497618,153.1363529159571,153.1363529159571,153.1363529159571,154.834665915987,154.834665915987,154.8205458750017,,,,,,,,,,,,,,,,,,,,,,,,,,,,,,,,,,,,,,,,,,,,,,,,,,,,,,,,,,,,277329,001,2024-12-08_15h14.14.810,Test,2024.2.4,None,2024-12-08 15h15.27.543679 +0100,
9,150,30,8,None,29,29,0,,,,,,,,0,29,29,8,,,,,,,,,,,,,154.834665915987,,,,,,,,,,,,,,,,,,,,,,,154.82965091598453,154.83897154097212,155.03621137497248,155.03621137497248,155.03621137497248,156.7339133329806,156.7339133329806,156.72053033299744,,,,,,,,,,,,,,,,,,,,,,,,,,,,,,,,,,,,,,,,,,,,,,,,,,,,,,,,,,,,277329,001,2024-12-08_15h14.14.810,Test,2024.2.4,None,2024-12-08 15h15.27.543679 +0100,
15,150,60,12,None,30,30,0,,,,,,,,0,30,30,14,,,,,,,,,,,,,156.7339133329806,,,,,,,,,,,,,,,,,,,,,,,156.72910008300096,156.73796075000428,156.9363059999887,156.9363059999887,156.9363059999887,158.63275241595693,158.63275241595693,158.62040566600626,,,,,,,,,,,,,,,,,,,,,,,,,,,,,,,,,,,,,,,,,,,,,,,,,,,,,,,,,,,,277329,001,2024-12-08_15h14.14.810,Test,2024.2.4,None,2024-12-08 15h15.27.543679 +0100,
19,150,90,46,None,31,31,0,,,,,,,,0,31,31,18,,,,,,,,,,,,,158.63275241595693,,,,,,,,,,,,,,,,,,,,,,,158.6279404159868,158.63708829099778,158.8363542080042,158.8363542080042,158.8244148750091,160.53429616597714,160.53429616597714,160.52054191596108,,,,,,,,,,,,,,,,,,,,,,,,,,,,,,,,,,,,,,,,,,,,,,,,,,,,,,,,,,,,277329,001,2024-12-08_15h14.14.810,Test,2024.2.4,None,2024-12-08 15h15.27.543679 +0100,
18,150,90,56,None,32,32,0,,,,,,,,0,32,32,17,,,,,,,,,,,,,160.53429616597714,,,,,,,,,,,,,,,,,,,,,,,160.52928441599943,160.53891487501096,160.7362628330011,160.7362628330011,160.7362628330011,162.43389325001044,162.43389325001044,162.42055662500206,,,,,,,,,,,,,,,,,,,,,,,,,,,,,,,,,,,,,,,,,,,,,,,,,,,,,,,,,,,,277329,001,2024-12-08_15h14.14.810,Test,2024.2.4,None,2024-12-08 15h15.27.543679 +0100,
12,150,60,32,None,33,33,0,,,,,,,,0,33,33,11,,,,,,,,,,,,,162.43389325001044,,,,,,,,,,,,,,,,,,,,,,,162.42898587498348,162.43776216596598,162.63633891596692,162.63633891596692,162.63633891596692,164.33420383295743,164.33420383295743,164.32066729100188,,,,,,,,,,,,,,,,,,,,,,,,,,,,,,,,,,,,,,,,,,,,,,,,,,,,,,,,,,,,277329,001,2024-12-08_15h14.14.810,Test,2024.2.4,None,2024-12-08 15h15.27.543679 +0100,
8,150,30,4,None,34,34,0,,,,,,,,0,34,34,7,,,,,,,,,,,,,164.33420383295743,,,,,,,,,,,,,,,,,,,,,,,164.3293419999536,164.33887645800132,164.5364078329876,164.5364078329876,164.5364078329876,166.22606066596927,166.22606066596927,166.22062145796372,,,,,,,,,,,,,,,,,,,,,,,,,,,,,,,,,,,,,,,,,,,,,,,,,,,,,,,,,,,,277329,001,2024-12-08_15h14.14.810,Test,2024.2.4,None,2024-12-08 15h15.27.543679 +0100,
,,,,,,,,,,,,,,,,,,,,,,,,,,,,,,,,,,,,,,,,,,,,,,,,,,,,,,,,,,,,,,166.22084991598967,166.23565887496807,166.23565887496807,184.69138941599522,space,18.440871125028934,None,,,,,,,,,,,,,,,,,,,,,,,,,,,,,,,,,,,,,,,,,,,,,,,,,,,,,277329,001,2024-12-08_15h14.14.810,Test,2024.2.4,None,2024-12-08 15h15.27.543679 +0100,
38,150,0,64,None,0,0,0,True,right,1.6364226250443608,None,,,,,,,,0,0,0,0,,,,,,,,,184.71633104101056,,,,,,,,,,,,,,,,,,,,,,,,,,,,,,,,,,,,,,184.71125191595638,184.71633104101056,185.70844283298356,186.68653066596016,186.68653066596016,186.68653066596016,188.3283434159821,right,1.6364226250443608,None,,,,,,,,,,,,,,,,,,,,,,,,,,,,,,,,,,,,,,,,,,,277329,001,2024-12-08_15h14.14.810,Test,2024.2.4,None,2024-12-08 15h15.27.543679 +0100,
56,150,120,2,None,1,1,0,True,left,3.3521745409816504,None,,,,,,,,0,1,1,1,,,,,,,,,188.40544066595612,,,,,,,,,,,,,,,,,,,,,,,,,,,,,,,,,,,,,,188.33765424997546,188.40544066595612,189.40294662496308,190.326594165992,190.326594165992,190.326594165992,193.68854708300205,left,3.3521745409816504,None,193.3196257079835,193.3196257079835,193.3274401249946,,,,,,,,,,,,,,,,,,,,,,,,,,,,,,,,,,,,,,,,277329,001,2024-12-08_15h14.14.810,Test,2024.2.4,None,2024-12-08 15h15.27.543679 +0100,
31,150,180,43,None,2,2,0,False,left,2.085396458976902,None,,,,,,,,0,2,2,2,,,,,,,,,193.70426154095912,,,,,,,,,,,,,,,,,,,,,,,,,,,,,,,,,,,,,,193.69760466599837,193.70426154095912,194.70295970799634,195.68635991599876,195.68635991599876,195.68635991599876,197.7783858749899,left,2.085396458976902,None,,,,,,,,,,,,,,,,,,,,,,,,,,,,,,,,,,,,,,,,,,,277329,001,2024-12-08_15h14.14.810,Test,2024.2.4,None,2024-12-08 15h15.27.543679 +0100,
34,150,180,14,None,3,3,0,False,right,1.2297487090108916,None,,,,,,,,0,3,3,3,,,,,,,,,197.793201374996,,,,,,,,,,,,,,,,,,,,,,,,,,,,,,,,,,,,,,197.7868784579914,197.793201374996,198.79147987498436,199.77778662496712,199.77778662496712,199.77778662496712,201.01121349999448,right,1.2297487090108916,None,,,,,,,,,,,,,,,,,,,,,,,,,,,,,,,,,,,,,,,,,,,277329,001,2024-12-08_15h14.14.810,Test,2024.2.4,None,2024-12-08 15h15.27.543679 +0100,
58,150,120,63,None,4,4,0,True,left,1.3432612080359831,None,,,,,,,,0,4,4,4,,,,,,,,,201.0267514999723,,,,,,,,,,,,,,,,,,,,,,,,,,,,,,,,,,,,,,201.02065587497782,201.0267514999723,202.0251212079893,203.00996237498475,203.00996237498475,203.00996237498475,204.35597899998538,left,1.3432612080359831,None,,,,,,,,,,,,,,,,,,,,,,,,,,,,,,,,,,,,,,,,,,,277329,001,2024-12-08_15h14.14.810,Test,2024.2.4,None,2024-12-08 15h15.27.543679 +0100,
65,150,150,27,None,5,5,0,True,left,1.7542304579983465,None,,,,,,,,0,5,5,5,,,,,,,,,204.3713651659782,,,,,,,,,,,,,,,,,,,,,,,,,,,,,,,,,,,,,,204.36503754096339,204.3713651659782,205.36944845796097,206.35324895801023,206.35324895801023,206.35324895801023,208.11107124999398,left,1.7542304579983465,None,,,,,,,,,,,,,,,,,,,,,,,,,,,,,,,,,,,,,,,,,,,277329,001,2024-12-08_15h14.14.810,Test,2024.2.4,None,2024-12-08 15h15.27.543679 +0100,
67,150,180,49,None,6,6,0,True,right,1.645595416019205,None,,,,,,,,0,6,6,6,,,,,,,,,208.12628233298892,,,,,,,,,,,,,,,,,,,,,,,,,,,,,,,,,,,,,,208.11997574998531,208.12628233298892,209.11970529099926,210.11116191599285,210.11116191599285,210.11116191599285,211.76168479101034,right,1.645595416019205,None,,,,,,,,,,,,,,,,,,,,,,,,,,,,,,,,,,,,,,,,,,,277329,001,2024-12-08_15h14.14.810,Test,2024.2.4,None,2024-12-08 15h15.27.543679 +0100,
26,150,150,25,None,7,7,0,False,right,1.343093791976571,None,,,,,,,,0,7,7,7,,,,,,,,,211.7769645829685,,,,,,,,,,,,,,,,,,,,,,,,,,,,,,,,,,,,,,211.77078962500673,211.7769645829685,212.77420529100345,213.76049270801013,213.76049270801013,213.76049270801013,215.10722562496085,right,1.343093791976571,None,,,,,,,,,,,,,,,,,,,,,,,,,,,,,,,,,,,,,,,,,,,277329,001,2024-12-08_15h14.14.810,Test,2024.2.4,None,2024-12-08 15h15.27.543679 +0100,
66,150,180,5,None,8,8,0,True,right,1.4415025409543887,None,,,,,,,,0,8,8,8,,,,,,,,,215.1225017909892,,,,,,,,,,,,,,,,,,,,,,,,,,,,,,,,,,,,,,215.11584645800758,215.1225017909892,216.119764166011,217.10315162496408,217.10315162496408,217.10315162496408,218.55512145796092,right,1.4415025409543887,None,,,,,,,,,,,,,,,,,,,,,,,,,,,,,,,,,,,,,,,,,,,277329,001,2024-12-08_15h14.14.810,Test,2024.2.4,None,2024-12-08 15h15.27.543679 +0100,
37,150,0,16,None,9,9,0,True,left,1.3168393750092946,None,,,,,,,,0,9,9,9,,,,,,,,,218.5708472909755,,,,,,,,,,,,,,,,,,,,,,,,,,,,,,,,,,,,,,218.5642378749908,218.5708472909755,219.56973295798525,220.55313612497412,220.55313612497412,220.55313612497412,221.872698666004,left,1.3168393750092946,None,,,,,,,,,,,,,,,,,,,,,,,,,,,,,,,,,,,,,,,,,,,277329,001,2024-12-08_15h14.14.810,Test,2024.2.4,None,2024-12-08 15h15.27.543679 +0100,
17,150,90,41,None,10,10,0,False,right,0.9685114590101875,None,,,,,,,,0,10,10,10,,,,,,,,,221.88770224998007,,,,,,,,,,,,,,,,,,,,,,,,,,,,,,,,,,,,,,221.88143108296208,221.88770224998007,222.88636533298995,223.86978549999185,223.86978549999185,223.86978549999185,224.8444964159862,right,0.9685114590101875,None,,,,,,,,,,,,,,,,,,,,,,,,,,,,,,,,,,,,,,,,,,,277329,001,2024-12-08_15h14.14.810,Test,2024.2.4,None,2024-12-08 15h15.27.543679 +0100,
48,150,60,47,None,11,11,0,True,right,1.8351230829721317,None,,,,,,,,0,11,11,11,,,,,,,,,224.85909566597547,,,,,,,,,,,,,,,,,,,,,,,,,,,,,,,,,,,,,,224.85330279095797,224.85909566597547,225.8530394579866,226.84314079099568,226.84314079099568,226.84314079099568,228.68863320798846,right,1.8351230829721317,None,,,,,,,,,,,,,,,,,,,,,,,,,,,,,,,,,,,,,,,,,,,277329,001,2024-12-08_15h14.14.810,Test,2024.2.4,None,2024-12-08 15h15.27.543679 +0100,
3,150,0,61,None,12,12,0,False,right,1.8240609589847736,None,,,,,,,,0,12,12,12,,,,,,,,,228.7030217910069,,,,,,,,,,,,,,,,,,,,,,,,,,,,,,,,,,,,,,228.69713104097173,228.7030217910069,229.69126537500415,230.6864226249745,230.6864226249745,230.6864226249745,232.52172591595445,right,1.8240609589847736,None,,,,,,,,,,,,,,,,,,,,,,,,,,,,,,,,,,,,,,,,,,,277329,001,2024-12-08_15h14.14.810,Test,2024.2.4,None,2024-12-08 15h15.27.543679 +0100,
33,150,180,21,None,13,13,0,False,right,1.249755292024929,None,,,,,,,,0,13,13,13,,,,,,,,,232.53688174998388,,,,,,,,,,,,,,,,,,,,,,,,,,,,,,,,,,,,,,232.5306969579542,232.53688174998388,233.52511270798277,234.5199608329567,234.5199608329567,234.5199608329567,235.77228508295957,right,1.249755292024929,None,,,,,,,,,,,,,,,,,,,,,,,,,,,,,,,,,,,,,,,,,,,277329,001,2024-12-08_15h14.14.810,Test,2024.2.4,None,2024-12-08 15h15.27.543679 +0100,
28,150,150,13,None,14,14,0,False,left,1.6001821249956265,None,,,,,,,,0,14,14,14,,,,,,,,,235.7870083329617,,,,,,,,,,,,,,,,,,,,,,,,,,,,,,,,,,,,,,235.78101866599172,235.7870083329617,236.77482487499947,237.76970762497513,237.76970762497513,237.76970762497513,239.37242595799034,left,1.6001821249956265,None,,,,,,,,,,,,,,,,,,,,,,,,,,,,,,,,,,,,,,,,,,,277329,001,2024-12-08_15h14.14.810,Test,2024.2.4,None,2024-12-08 15h15.27.543679 +0100,
52,150,90,19,None,15,15,0,True,right,1.8002989169908687,None,,,,,,,,0,15,15,15,,,,,,,,,239.38743224996142,,,,,,,,,,,,,,,,,,,,,,,,,,,,,,,,,,,,,,239.38139837497147,239.38743224996142,240.38626866595587,241.3697411249741,241.3697411249741,241.3697411249741,243.17316570796538,right,1.8002989169908687,None,,,,,,,,,,,,,,,,,,,,,,,,,,,,,,,,,,,,,,,,,,,277329,001,2024-12-08_15h14.14.810,Test,2024.2.4,None,2024-12-08 15h15.27.543679 +0100,
64,150,150,42,None,16,16,0,True,left,1.72328491701046,None,,,,,,,,0,16,16,16,,,,,,,,,243.18823904095916,,,,,,,,,,,,,,,,,,,,,,,,,,,,,,,,,,,,,,243.1821334999986,243.18823904095916,244.18629654101096,245.1698510829592,245.1698510829592,245.1698510829592,246.89547524997033,left,1.72328491701046,None,,,,,,,,,,,,,,,,,,,,,,,,,,,,,,,,,,,,,,,,,,,277329,001,2024-12-08_15h14.14.810,Test,2024.2.4,None,2024-12-08 15h15.27.543679 +0100,
53,150,90,39,None,17,17,0,True,left,1.9540572499972768,None,,,,,,,,0,17,17,17,,,,,,,,,246.91042695799842,,,,,,,,,,,,,,,,,,,,,,,,,,,,,,,,,,,,,,246.90419908298645,246.91042695799842,247.90824249997968,248.89366229099687,248.89366229099687,248.89366229099687,250.8551154579618,left,1.9540572499972768,None,,,,,,,,,,,,,,,,,,,,,,,,,,,,,,,,,,,,,,,,,,,277329,001,2024-12-08_15h14.14.810,Test,2024.2.4,None,2024-12-08 15h15.27.543679 +0100,
68,150,180,54,None,18,18,0,True,left,1.4544453750131652,None,,,,,,,,0,18,18,18,,,,,,,,,250.86875945795327,,,,,,,,,,,,,,,,,,,,,,,,,,,,,,,,,,,,,,250.8628580829827,250.86875945795327,251.85759974998655,252.8530672909692,252.8530672909692,252.8530672909692,254.31096375000197,left,1.4544453750131652,None,,,,,,,,,,,,,,,,,,,,,,,,,,,,,,,,,,,,,,,,,,,277329,001,2024-12-08_15h14.14.810,Test,2024.2.4,None,2024-12-08 15h15.27.543679 +0100,
44,150,30,70,None,19,19,0,True,right,0.9194296249770559,None,,,,,,,,0,19,19,19,,,,,,,,,254.32621166598983,,,,,,,,,,,,,,,,,,,,,,,,,,,,,,,,,,,,,,254.31985812500352,254.32621166598983,255.31969283299986,256.30972762499005,256.30972762499005,256.30972762499005,257.2384709579637,right,0.9194296249770559,None,,,,,,,,,,,,,,,,,,,,,,,,,,,,,,,,,,,,,,,,,,,277329,001,2024-12-08_15h14.14.810,Test,2024.2.4,None,2024-12-08 15h15.27.543679 +0100,
39,150,0,65,None,20,20,0,True,left,1.6682149170082994,None,,,,,,,,0,20,20,20,,,,,,,,,257.2539347499842,,,,,,,,,,,,,,,,,,,,,,,,,,,,,,,,,,,,,,257.2482052499545,257.2539347499842,258.2416269159876,259.236419999972,259.236419999972,259.236419999972,260.9114665829693,left,1.6682149170082994,None,,,,,,,,,,,,,,,,,,,,,,,,,,,,,,,,,,,,,,,,,,,277329,001,2024-12-08_15h14.14.810,Test,2024.2.4,None,2024-12-08 15h15.27.543679 +0100,
7,150,30,38,None,21,21,0,False,right,0.9101253749686293,None,,,,,,,,0,21,21,21,,,,,,,,,260.92583729099715,,,,,,,,,,,,,,,,,,,,,,,,,,,,,,,,,,,,,,260.9201593329781,260.92583729099715,261.9197172499844,262.910398832988,262.910398832988,262.910398832988,263.83078874996863,right,0.9101253749686293,None,,,,,,,,,,,,,,,,,,,,,,,,,,,,,,,,,,,,,,,,,,,277329,001,2024-12-08_15h14.14.810,Test,2024.2.4,None,2024-12-08 15h15.27.543679 +0100,
12,150,60,32,None,22,22,0,False,left,1.6766946249990724,None,,,,,,,,0,22,22,22,,,,,,,,,263.8430278329761,,,,,,,,,,,,,,,,,,,,,,,,,,,,,,,,,,,,,,263.8383320409921,263.8430278329761,264.8362839159672,265.8270399160101,265.8270399160101,265.8270399160101,267.5144485000055,left,1.6766946249990724,None,,,,,,,,,,,,,,,,,,,,,,,,,,,,,,,,,,,,,,,,,,,277329,001,2024-12-08_15h14.14.810,Test,2024.2.4,None,2024-12-08 15h15.27.543679 +0100,
63,150,150,69,None,23,23,0,True,right,0.992676333989948,None,,,,,,,,0,23,23,23,,,,,,,,,267.5258094579913,,,,,,,,,,,,,,,,,,,,,,,,,,,,,,,,,,,,,,267.52138970798114,267.5258094579913,268.5241846659919,269.5109555409872,269.5109555409872,269.5109555409872,270.5065495829913,right,0.992676333989948,None,,,,,,,,,,,,,,,,,,,,,,,,,,,,,,,,,,,,,,,,,,,277329,001,2024-12-08_15h14.14.810,Test,2024.2.4,None,2024-12-08 15h15.27.543679 +0100,
22,150,120,35,None,24,24,0,False,right,1.1502988340216689,None,,,,,,,,0,24,24,24,,,,,,,,,270.5204191249795,,,,,,,,,,,,,,,,,,,,,,,,,,,,,,,,,,,,,,270.51468049996765,270.5204191249795,271.5082287499681,272.50280474999454,272.50280474999454,272.50280474999454,273.65607333299704,right,1.1502988340216689,None,,,,,,,,,,,,,,,,,,,,,,,,,,,,,,,,,,,,,,,,,,,277329,001,2024-12-08_15h14.14.810,Test,2024.2.4,None,2024-12-08 15h15.27.543679 +0100,
47,150,60,10,None,25,25,0,True,left,1.735186958045233,None,,,,,,,,0,25,25,25,,,,,,,,,273.67164583300473,,,,,,,,,,,,,,,,,,,,,,,,,,,,,,,,,,,,,,273.6646630829782,273.67164583300473,274.66965237498516,275.65204495796934,275.65204495796934,275.65204495796934,277.39774670795305,left,1.735186958045233,None,,,,,,,,,,,,,,,,,,,,,,,,,,,,,,,,,,,,,,,,,,,277329,001,2024-12-08_15h14.14.810,Test,2024.2.4,None,2024-12-08 15h15.27.543679 +0100,
50,150,60,34,None,26,26,0,True,left,1.5359931659768336,None,,,,,,,,0,26,26,26,,,,,,,,,277.41934670798946,,,,,,,,,,,,,,,,,,,,,,,,,,,,,,,,,,,,,,277.4145486659836,277.41934670798946,278.40848212497076,279.39806499995757,279.39806499995757,279.39806499995757,280.93843295797706,left,1.5359931659768336,None,,,,,,,,,,,,,,,,,,,,,,,,,,,,,,,,,,,,,,,,,,,277329,001,2024-12-08_15h14.14.810,Test,2024.2.4,None,2024-12-08 15h15.27.543679 +0100,
29,150,150,33,None,27,27,0,False,left,1.8842999169719405,None,,,,,,,,0,27,27,27,,,,,,,,,280.95410929096397,,,,,,,,,,,,,,,,,,,,,,,,,,,,,,,,,,,,,,280.9477372909896,280.95410929096397,281.9530331660062,282.9363647910068,282.9363647910068,282.9363647910068,284.82797158299945,left,1.8842999169719405,None,,,,,,,,,,,,,,,,,,,,,,,,,,,,,,,,,,,,,,,,,,,277329,001,2024-12-08_15h14.14.810,Test,2024.2.4,None,2024-12-08 15h15.27.543679 +0100,
16,150,90,40,None,28,28,0,False,right,1.3923937500221655,None,,,,,,,,0,28,28,28,,,,,,,,,284.84183062496595,,,,,,,,,,,,,,,,,,,,,,,,,,,,,,,,,,,,,,284.8359898329945,284.84183062496595,285.83640949998517,286.8279748749919,286.8279748749919,286.8279748749919,288.23093329096446,right,1.3923937500221655,None,,,,,,,,,,,,,,,,,,,,,,,,,,,,,,,,,,,,,,,,,,,277329,001,2024-12-08_15h14.14.810,Test,2024.2.4,None,2024-12-08 15h15.27.543679 +0100,
41,150,30,53,None,29,29,0,True,left,1.7873662920319475,None,,,,,,,,0,29,29,29,,,,,,,,,288.24314170796424,,,,,,,,,,,,,,,,,,,,,,,,,,,,,,,,,,,,,,288.2384367499617,288.24314170796424,289.2363987499848,290.2268481249921,290.2268481249921,290.2268481249921,292.0222977079684,left,1.7873662920319475,None,,,,,,,,,,,,,,,,,,,,,,,,,,,,,,,,,,,,,,,,,,,277329,001,2024-12-08_15h14.14.810,Test,2024.2.4,None,2024-12-08 15h15.27.543679 +0100,
27,150,150,45,None,30,30,0,False,left,2.0001427499810234,None,,,,,,,,0,30,30,30,,,,,,,,,292.03652354096994,,,,,,,,,,,,,,,,,,,,,,,,,,,,,,,,,,,,,,292.03035533300135,292.03652354096994,293.0250834579929,294.01992179098306,294.01992179098306,294.01992179098306,296.0225439159549,left,2.0001427499810234,None,,,,,,,,,,,,,,,,,,,,,,,,,,,,,,,,,,,,,,,,,,,277329,001,2024-12-08_15h14.14.810,Test,2024.2.4,None,2024-12-08 15h15.27.543679 +0100,
15,150,60,12,None,31,31,0,False,right,0.9452726670424454,None,,,,,,,,0,31,31,31,,,,,,,,,296.03831749997335,,,,,,,,,,,,,,,,,,,,,,,,,,,,,,,,,,,,,,296.0313925409573,296.03831749997335,297.03631287498865,298.01988400000846,298.01988400000846,298.01988400000846,298.9720313749858,right,0.9452726670424454,None,,,,,,,,,,,,,,,,,,,,,,,,,,,,,,,,,,,,,,,,,,,277329,001,2024-12-08_15h14.14.810,Test,2024.2.4,None,2024-12-08 15h15.27.543679 +0100,
5,150,0,3,None,32,32,0,False,right,0.8557495839777403,None,,,,,,,,0,32,32,32,,,,,,,,,298.9869165410055,,,,,,,,,,,,,,,,,,,,,,,,,,,,,,,,,,,,,,298.98072116600815,298.9869165410055,299.97522333299275,300.9697367079789,300.9697367079789,300.9697367079789,301.8282381659956,right,0.8557495839777403,None,,,,,,,,,,,,,,,,,,,,,,,,,,,,,,,,,,,,,,,,,,,277329,001,2024-12-08_15h14.14.810,Test,2024.2.4,None,2024-12-08 15h15.27.543679 +0100,
36,150,0,18,None,33,33,0,True,left,1.2759113329811953,None,,,,,,,,0,33,33,33,,,,,,,,,301.84258645796217,,,,,,,,,,,,,,,,,,,,,,,,,,,,,,,,,,,,,,301.8364594159648,301.84258645796217,302.836427000002,303.8276467079995,303.8276467079995,303.8276467079995,305.10642245796043,left,1.2759113329811953,None,,,,,,,,,,,,,,,,,,,,,,,,,,,,,,,,,,,,,,,,,,,277329,001,2024-12-08_15h14.14.810,Test,2024.2.4,None,2024-12-08 15h15.27.543679 +0100,
46,150,60,44,None,34,34,0,True,left,1.5118829580023885,None,,,,,,,,0,34,34,34,,,,,,,,,305.1207237499766,,,,,,,,,,,,,,,,,,,,,,,,,,,,,,,,,,,,,,305.11482724995585,305.1207237499766,306.10838533297647,307.1032022910076,307.1032022910076,307.1032022910076,308.621769499965,left,1.5118829580023885,None,,,,,,,,,,,,,,,,,,,,,,,,,,,,,,,,,,,,,,,,,,,277329,001,2024-12-08_15h14.14.810,Test,2024.2.4,None,2024-12-08 15h15.27.543679 +0100,
23,150,120,51,None,35,35,0,False,right,0.9510432499810122,None,,,,,,,,0,35,35,35,,,,,,,,,308.6364740830031,,,,,,,,,,,,,,,,,,,,,,,,,,,,,,,,,,,,,,308.630505915964,308.6364740830031,309.62499654100975,310.61986466596136,310.61986466596136,310.61986466596136,311.57826491596643,right,0.9510432499810122,None,,,,,,,,,,,,,,,,,,,,,,,,,,,,,,,,,,,,,,,,,,,277329,001,2024-12-08_15h14.14.810,Test,2024.2.4,None,2024-12-08 15h15.27.543679 +0100,
57,150,120,50,None,36,36,0,True,left,1.6725438329740427,None,,,,,,,,0,36,36,36,,,,,,,,,311.5928213750012,,,,,,,,,,,,,,,,,,,,,,,,,,,,,,,,,,,,,,311.5869866659632,311.5928213750012,312.58633637498133,313.5766446249909,313.5766446249909,313.5766446249909,315.2555444999598,left,1.6725438329740427,None,,,,,,,,,,,,,,,,,,,,,,,,,,,,,,,,,,,,,,,,,,,277329,001,2024-12-08_15h14.14.810,Test,2024.2.4,None,2024-12-08 15h15.27.543679 +0100,
70,150,180,29,None,37,37,0,True,right,1.5070741249946877,None,,,,,,,,0,37,37,37,,,,,,,,,315.270626582962,,,,,,,,,,,,,,,,,,,,,,,,,,,,,,,,,,,,,,315.2643729999545,315.270626582962,316.258436041011,317.2533212499693,317.2533212499693,317.2533212499693,318.7705674999743,right,1.5070741249946877,None,,,,,,,,,,,,,,,,,,,,,,,,,,,,,,,,,,,,,,,,,,,277329,001,2024-12-08_15h14.14.810,Test,2024.2.4,None,2024-12-08 15h15.27.543679 +0100,
4,150,0,15,None,38,38,0,False,right,1.2274467090028338,None,,,,,,,,0,38,38,38,,,,,,,,,318.7820391249843,,,,,,,,,,,,,,,,,,,,,,,,,,,,,,,,,,,,,,318.7774896249757,318.7820391249843,319.7750481659896,320.7602941659861,320.7602941659861,320.7602941659861,321.99500416597584,right,1.2274467090028338,None,,,,,,,,,,,,,,,,,,,,,,,,,,,,,,,,,,,,,,,,,,,277329,001,2024-12-08_15h14.14.810,Test,2024.2.4,None,2024-12-08 15h15.27.543679 +0100,
10,150,30,26,None,39,39,0,False,right,0.9262252920307219,None,,,,,,,,0,39,39,39,,,,,,,,,322.0091806660057,,,,,,,,,,,,,,,,,,,,,,,,,,,,,,,,,,,,,,322.0031572909793,322.0091806660057,323.0030914579984,323.99385512497975,323.99385512497975,323.99385512497975,324.9224639160093,right,0.9262252920307219,None,,,,,,,,,,,,,,,,,,,,,,,,,,,,,,,,,,,,,,,,,,,277329,001,2024-12-08_15h14.14.810,Test,2024.2.4,None,2024-12-08 15h15.27.543679 +0100,
14,150,60,17,None,40,40,0,False,right,1.0075153750367463,None,,,,,,,,0,40,40,40,,,,,,,,,324.9373781249742,,,,,,,,,,,,,,,,,,,,,,,,,,,,,,,,,,,,,,324.93081129097845,324.9373781249742,325.9250056250021,326.9198802909814,326.9198802909814,326.9198802909814,327.938716500008,right,1.0075153750367463,None,,,,,,,,,,,,,,,,,,,,,,,,,,,,,,,,,,,,,,,,,,,277329,001,2024-12-08_15h14.14.810,Test,2024.2.4,None,2024-12-08 15h15.27.543679 +0100,
40,150,0,30,None,41,41,0,True,left,1.3373972089611925,None,,,,,,,,0,41,41,41,,,,,,,,,327.95316450000973,,,,,,,,,,,,,,,,,,,,,,,,,,,,,,,,,,,,,,327.9469060410047,327.95316450000973,328.94237062497996,329.93659125000704,329.93659125000704,329.93659125000704,331.27771270798985,left,1.3373972089611925,None,,,,,,,,,,,,,,,,,,,,,,,,,,,,,,,,,,,,,,,,,,,277329,001,2024-12-08_15h14.14.810,Test,2024.2.4,None,2024-12-08 15h15.27.543679 +0100,
20,150,90,31,None,42,42,0,False,left,1.4600044999970123,None,,,,,,,,0,42,42,42,,,,,,,,,331.2925007499871,,,,,,,,,,,,,,,,,,,,,,,,,,,,,,,,,,,,,,331.2857701659668,331.2925007499871,332.28643187496345,333.2769907079637,333.2769907079637,333.2769907079637,334.73960112500936,left,1.4600044999970123,None,,,,,,,,,,,,,,,,,,,,,,,,,,,,,,,,,,,,,,,,,,,277329,001,2024-12-08_15h14.14.810,Test,2024.2.4,None,2024-12-08 15h15.27.543679 +0100,
18,150,90,56,None,43,43,0,False,right,1.028723582974635,None,,,,,,,,0,43,43,43,,,,,,,,,334.7547805829672,,,,,,,,,,,,,,,,,,,,,,,,,,,,,,,,,,,,,,334.74863008299144,334.7547805829672,335.7530743329553,336.73659887496615,336.73659887496615,336.73659887496615,337.7717697499902,right,1.028723582974635,None,,,,,,,,,,,,,,,,,,,,,,,,,,,,,,,,,,,,,,,,,,,277329,001,2024-12-08_15h14.14.810,Test,2024.2.4,None,2024-12-08 15h15.27.543679 +0100,
21,150,120,55,None,44,44,0,False,right,0.9872567499987781,None,,,,,,,,0,44,44,44,,,,,,,,,337.78702533297474,,,,,,,,,,,,,,,,,,,,,,,,,,,,,,,,,,,,,,337.7806648329715,337.78702533297474,338.77497429098,339.77003970800433,339.77003970800433,339.77003970800433,340.76176904095337,right,0.9872567499987781,None,,,,,,,,,,,,,,,,,,,,,,,,,,,,,,,,,,,,,,,,,,,277329,001,2024-12-08_15h14.14.810,Test,2024.2.4,None,2024-12-08 15h15.27.543679 +0100,
2,150,0,7,None,45,45,0,False,right,1.2101198750315234,None,,,,,,,,0,45,45,45,,,,,,,,,340.7762329579564,,,,,,,,,,,,,,,,,,,,,,,,,,,,,,,,,,,,,,340.77035674999934,340.7762329579564,341.769800124981,342.76036170800216,342.76036170800216,342.76036170800216,343.98150087497197,right,1.2101198750315234,None,,,,,,,,,,,,,,,,,,,,,,,,,,,,,,,,,,,,,,,,,,,277329,001,2024-12-08_15h14.14.810,Test,2024.2.4,None,2024-12-08 15h15.27.543679 +0100,
43,150,30,36,None,46,46,0,True,left,1.0663006660179235,None,,,,,,,,0,46,46,46,,,,,,,,,343.9935836250079,,,,,,,,,,,,,,,,,,,,,,,,,,,,,,,,,,,,,,343.9890108749969,343.9935836250079,344.99161979096243,345.9771317910054,345.9771317910054,345.9771317910054,347.0539422080037,left,1.0663006660179235,None,,,,,,,,,,,,,,,,,,,,,,,,,,,,,,,,,,,,,,,,,,,277329,001,2024-12-08_15h14.14.810,Test,2024.2.4,None,2024-12-08 15h15.27.543679 +0100,
62,150,150,28,None,47,47,0,True,right,1.055538125045132,None,,,,,,,,0,47,47,47,,,,,,,,,347.06558412499726,,,,,,,,,,,,,,,,,,,,,,,,,,,,,,,,,,,,,,347.0608044999535,347.06558412499726,348.0585160829942,349.0434783750097,349.0434783750097,349.0434783750097,350.1051570829586,right,1.055538125045132,None,,,,,,,,,,,,,,,,,,,,,,,,,,,,,,,,,,,,,,,,,,,277329,001,2024-12-08_15h14.14.810,Test,2024.2.4,None,2024-12-08 15h15.27.543679 +0100,
35,150,180,1,None,48,48,0,False,right,0.9791693749721162,None,,,,,,,,0,48,48,48,,,,,,,,,350.12071537500015,,,,,,,,,,,,,,,,,,,,,,,,,,,,,,,,,,,,,,350.1138243749738,350.12071537500015,351.10854541597655,352.1032322910032,352.1032322910032,352.1032322910032,353.0884944999707,right,0.9791693749721162,None,,,,,,,,,,,,,,,,,,,,,,,,,,,,,,,,,,,,,,,,,,,277329,001,2024-12-08_15h14.14.810,Test,2024.2.4,None,2024-12-08 15h15.27.543679 +0100,
24,150,120,52,None,49,49,0,False,left,1.5101086660288274,None,,,,,,,,0,49,49,49,,,,,,,,,353.1035510000074,,,,,,,,,,,,,,,,,,,,,,,,,,,,,,,,,,,,,,353.0972224159632,353.1035510000074,354.09119895799085,355.08650624996517,355.08650624996517,355.08650624996517,356.6052005829988,left,1.5101086660288274,None,,,,,,,,,,,,,,,,,,,,,,,,,,,,,,,,,,,,,,,,,,,277329,001,2024-12-08_15h14.14.810,Test,2024.2.4,None,2024-12-08 15h15.27.543679 +0100,
25,150,120,58,None,50,50,0,False,right,1.033489333000034,None,,,,,,,,0,50,50,50,,,,,,,,,356.62064966600155,,,,,,,,,,,,,,,,,,,,,,,,,,,,,,,,,,,,,,356.6141144160065,356.62064966600155,357.60844408295816,358.6031664159964,358.6031664159964,358.6031664159964,359.63919854100095,right,1.033489333000034,None,,,,,,,,,,,,,,,,,,,,,,,,,,,,,,,,,,,,,,,,,,,277329,001,2024-12-08_15h14.14.810,Test,2024.2.4,None,2024-12-08 15h15.27.543679 +0100,
42,150,30,6,None,51,51,0,True,left,1.3448472919990309,None,,,,,,,,0,51,51,51,,,,,,,,,359.65419083298184,,,,,,,,,,,,,,,,,,,,,,,,,,,,,,,,,,,,,,359.64817741600564,359.65419083298184,360.65306937496644,361.6364512909786,361.6364512909786,361.6364512909786,362.9885684999754,left,1.3448472919990309,None,,,,,,,,,,,,,,,,,,,,,,,,,,,,,,,,,,,,,,,,,,,277329,001,2024-12-08_15h14.14.810,Test,2024.2.4,None,2024-12-08 15h15.27.543679 +0100,
32,150,180,60,None,52,52,0,False,right,0.8001644159667194,None,,,,,,,,0,52,52,52,,,,,,,,,363.00420779100386,,,,,,,,,,,,,,,,,,,,,,,,,,,,,,,,,,,,,,362.99779766600113,363.00420779100386,364.00311433296883,364.98651816596976,364.98651816596976,364.98651816596976,365.78911729098763,right,0.8001644159667194,None,,,,,,,,,,,,,,,,,,,,,,,,,,,,,,,,,,,,,,,,,,,277329,001,2024-12-08_15h14.14.810,Test,2024.2.4,None,2024-12-08 15h15.27.543679 +0100,
60,150,120,67,None,53,53,0,True,right,0.9841709590400569,None,,,,,,,,0,53,53,53,,,,,,,,,365.8043110409635,,,,,,,,,,,,,,,,,,,,,,,,,,,,,,,,,,,,,,365.7978796659736,365.8043110409635,366.80303824995644,367.786494333006,367.786494333006,367.786494333006,368.7813092499855,right,0.9841709590400569,None,,,,,,,,,,,,,,,,,,,,,,,,,,,,,,,,,,,,,,,,,,,277329,001,2024-12-08_15h14.14.810,Test,2024.2.4,None,2024-12-08 15h15.27.543679 +0100,
13,150,60,24,None,54,54,0,False,right,0.9883617500308901,None,,,,,,,,0,54,54,54,,,,,,,,,368.7937009999878,,,,,,,,,,,,,,,,,,,,,,,,,,,,,,,,,,,,,,368.78894166596,368.7937009999878,369.79139404097805,370.7772020410048,370.7772020410048,370.7772020410048,371.7720027079922,right,0.9883617500308901,None,,,,,,,,,,,,,,,,,,,,,,,,,,,,,,,,,,,,,,,,,,,277329,001,2024-12-08_15h14.14.810,Test,2024.2.4,None,2024-12-08 15h15.27.543679 +0100,
61,150,150,37,None,55,55,0,True,right,1.07487408304587,None,,,,,,,,0,55,55,55,,,,,,,,,371.7876351659652,,,,,,,,,,,,,,,,,,,,,,,,,,,,,,,,,,,,,,371.78098154097097,371.7876351659652,372.7863299580058,373.7699107909575,373.7699107909575,373.7699107909575,374.85508408298483,right,1.07487408304587,None,,,,,,,,,,,,,,,,,,,,,,,,,,,,,,,,,,,,,,,,,,,277329,001,2024-12-08_15h14.14.810,Test,2024.2.4,None,2024-12-08 15h15.27.543679 +0100,
9,150,30,8,None,56,56,0,False,right,1.2004686660366133,None,,,,,,,,0,56,56,56,,,,,,,,,374.86990379099734,,,,,,,,,,,,,,,,,,,,,,,,,,,,,,,,,,,,,,374.8637066659867,374.86990379099734,375.8575899999705,376.85309208300896,376.85309208300896,376.85309208300896,378.0566193329869,right,1.2004686660366133,None,,,,,,,,,,,,,,,,,,,,,,,,,,,,,,,,,,,,,,,,,,,277329,001,2024-12-08_15h14.14.810,Test,2024.2.4,None,2024-12-08 15h15.27.543679 +0100,
69,150,180,20,None,57,57,0,True,right,1.1011235829791985,None,,,,,,,,0,57,57,57,,,,,,,,,378.07139079098124,,,,,,,,,,,,,,,,,,,,,,,,,,,,,,,,,,,,,,378.0653835409903,378.07139079098124,379.0698228330002,380.0532647499931,380.0532647499931,380.0532647499931,381.16124562500045,right,1.1011235829791985,None,,,,,,,,,,,,,,,,,,,,,,,,,,,,,,,,,,,,,,,,,,,277329,001,2024-12-08_15h14.14.810,Test,2024.2.4,None,2024-12-08 15h15.27.543679 +0100,
51,150,90,23,None,58,58,0,True,left,1.6321161669911817,None,,,,,,,,0,58,58,58,,,,,,,,,381.17615745798685,,,,,,,,,,,,,,,,,,,,,,,,,,,,,,,,,,,,,,381.16969883296406,381.17615745798685,382.1753606660059,383.1603326659533,383.1603326659533,383.1603326659533,384.79519145796075,left,1.6321161669911817,None,,,,,,,,,,,,,,,,,,,,,,,,,,,,,,,,,,,,,,,,,,,277329,001,2024-12-08_15h14.14.810,Test,2024.2.4,None,2024-12-08 15h15.27.543679 +0100,
49,150,60,48,None,59,59,0,True,left,1.4814112079911865,None,,,,,,,,0,59,59,59,,,,,,,,,384.80996924999636,,,,,,,,,,,,,,,,,,,,,,,,,,,,,,,,,,,,,,384.8035500829574,384.80996924999636,385.8084672499681,386.79419620800763,386.79419620800763,386.79419620800763,388.2782775000087,left,1.4814112079911865,None,,,,,,,,,,,,,,,,,,,,,,,,,,,,,,,,,,,,,,,,,,,277329,001,2024-12-08_15h14.14.810,Test,2024.2.4,None,2024-12-08 15h15.27.543679 +0100,
11,150,60,62,None,60,60,0,False,right,1.0018362500122748,None,,,,,,,,0,60,60,60,,,,,,,,,388.29336524999235,,,,,,,,,,,,,,,,,,,,,,,,,,,,,,,,,,,,,,388.2865375409601,388.29336524999235,389.29176479100715,390.277596083004,390.277596083004,390.277596083004,391.2885305410018,right,1.0018362500122748,None,,,,,,,,,,,,,,,,,,,,,,,,,,,,,,,,,,,,,,,,,,,277329,001,2024-12-08_15h14.14.810,Test,2024.2.4,None,2024-12-08 15h15.27.543679 +0100,
6,150,30,68,None,61,61,0,False,right,1.3877276250277646,None,,,,,,,,0,61,61,61,,,,,,,,,391.30356400000164,,,,,,,,,,,,,,,,,,,,,,,,,,,,,,,,,,,,,,391.29721712495666,391.30356400000164,392.29099595797015,393.286471874977,393.286471874977,393.286471874977,394.677891624975,right,1.3877276250277646,None,,,,,,,,,,,,,,,,,,,,,,,,,,,,,,,,,,,,,,,,,,,277329,001,2024-12-08_15h14.14.810,Test,2024.2.4,None,2024-12-08 15h15.27.543679 +0100,
19,150,90,46,None,62,62,0,False,left,1.3466767499921843,None,,,,,,,,0,62,62,62,,,,,,,,,394.69296754099196,,,,,,,,,,,,,,,,,,,,,,,,,,,,,,,,,,,,,,394.6865939999698,394.69296754099196,395.686431332957,396.67691254097736,396.67691254097736,396.67691254097736,398.0275925829774,left,1.3466767499921843,None,,,,,,,,,,,,,,,,,,,,,,,,,,,,,,,,,,,,,,,,,,,277329,001,2024-12-08_15h14.14.810,Test,2024.2.4,None,2024-12-08 15h15.27.543679 +0100,
59,150,120,59,None,63,63,0,True,left,1.5201180000440218,None,,,,,,,,0,63,63,63,,,,,,,,,398.04228637495544,,,,,,,,,,,,,,,,,,,,,,,,,,,,,,,,,,,,,,398.0363476659986,398.04228637495544,399.03648287500255,400.02743241598364,400.02743241598364,400.02743241598364,401.5552515409654,left,1.5201180000440218,None,,,,,,,,,,,,,,,,,,,,,,,,,,,,,,,,,,,,,,,,,,,277329,001,2024-12-08_15h14.14.810,Test,2024.2.4,None,2024-12-08 15h15.27.543679 +0100,
8,150,30,4,None,64,64,0,False,right,1.7685370840481482,None,,,,,,,,0,64,64,64,,,,,,,,,401.57058495795354,,,,,,,,,,,,,,,,,,,,,,,,,,,,,,,,,,,,,,401.56388375000097,401.57058495795354,402.5578824579716,403.5531034579617,403.5531034579617,403.5531034579617,405.32788424997125,right,1.7685370840481482,None,,,,,,,,,,,,,,,,,,,,,,,,,,,,,,,,,,,,,,,,,,,277329,001,2024-12-08_15h14.14.810,Test,2024.2.4,None,2024-12-08 15h15.27.543679 +0100,
54,150,90,22,None,65,65,0,True,left,1.5930987080209889,None,,,,,,,,0,65,65,65,,,,,,,,,405.34256124997046,,,,,,,,,,,,,,,,,,,,,,,,,,,,,,,,,,,,,,405.33641095797066,405.34256124997046,406.3364399999846,407.3269615409663,407.3269615409663,407.3269615409663,408.9226989999879,left,1.5930987080209889,None,,,,,,,,,,,,,,,,,,,,,,,,,,,,,,,,,,,,,,,,,,,277329,001,2024-12-08_15h14.14.810,Test,2024.2.4,None,2024-12-08 15h15.27.543679 +0100,
1,150,0,57,None,66,66,0,False,right,0.7571273749927059,None,,,,,,,,0,66,66,66,,,,,,,,,408.9384256659541,,,,,,,,,,,,,,,,,,,,,,,,,,,,,,,,,,,,,,408.9313450829941,408.9384256659541,409.93639204098145,410.91978362499503,410.91978362499503,410.91978362499503,411.68730891600717,right,0.7571273749927059,None,,,,,,,,,,,,,,,,,,,,,,,,,,,,,,,,,,,,,,,,,,,277329,001,2024-12-08_15h14.14.810,Test,2024.2.4,None,2024-12-08 15h15.27.543679 +0100,
55,150,90,9,None,67,67,0,True,left,2.5072549589676782,None,,,,,,,,0,67,67,67,,,,,,,,,411.69889025000157,,,,,,,,,,,,,,,,,,,,,,,,,,,,,,,,,,,,,,411.6940902909846,411.69889025000157,412.6913236659602,413.68658958299784,413.68658958299784,413.68658958299784,416.20517162495526,left,2.5072549589676782,None,,,,,,,,,,,,,,,,,,,,,,,,,,,,,,,,,,,,,,,,,,,277329,001,2024-12-08_15h14.14.810,Test,2024.2.4,None,2024-12-08 15h15.27.543679 +0100,
45,150,30,66,None,68,68,0,True,left,1.734163792047184,None,,,,,,,,0,68,68,68,,,,,,,,,416.22088954097126,,,,,,,,,,,,,,,,,,,,,,,,,,,,,,,,,,,,,,416.2138404159923,416.22088954097126,417.2197686659638,418.2031576659647,418.2031576659647,418.2031576659647,419.94801158300834,left,1.734163792047184,None,,,,,,,,,,,,,,,,,,,,,,,,,,,,,,,,,,,,,,,,,,,277329,001,2024-12-08_15h14.14.810,Test,2024.2.4,None,2024-12-08 15h15.27.543679 +0100,
30,150,150,11,None,69,69,0,False,left,1.5367602090118453,None,,,,,,,,0,69,69,69,,,,,,,,,419.9593751250068,,,,,,,,,,,,,,,,,,,,,,,,,,,,,,,,,,,,,,419.9546408749884,419.9593751250068,420.95304237498203,421.94329999998445,421.94329999998445,421.94329999998445,423.4885782499914,left,1.5367602090118453,None,,,,,,,,,,,,,,,,,,,,,,,,,,,,,,,,,,,,,,,,,,,277329,001,2024-12-08_15h14.14.810,Test,2024.2.4,None,2024-12-08 15h15.27.543679 +0100,
,,,,,,,,,,,,,,,,,,,,,,,,,,,,,,,,,,,,,,,,,,,,,,,,,,,,,,,,,,,,,,,,,,,,,,,,,,,,,,,,,,423.4889391660108,423.4996159579605,423.4996159579605,427.1946524999803,space,3.687890957982745,None,,,,,,,,,,,,,,,,,,,,,,,,,,,,,,,,,277329,001,2024-12-08_15h14.14.810,Test,2024.2.4,None,2024-12-08 15h15.27.543679 +0100,
30,150,150,11,None,0,0,0,,,,,,,,,,,,,,,,0,0,0,29,,,,,427.2225465409574,,,,,,,,,,,,,,,,,,,,,,,,,,,,,,,,,,,,,,,,,,,,,,,,,,,,,,,,,,427.21363179100445,427.2225465409574,427.39518829097506,427.39518829097506,427.4198157909559,429.10215320799034,429.10215320799034,429.0875523329596,,,,,,,,,,,,,,,,,,,,,,,,,277329,001,2024-12-08_15h14.14.810,Test,2024.2.4,None,2024-12-08 15h15.27.543679 +0100,
25,150,120,58,None,1,1,0,,,,,,,,,,,,,,,,0,1,1,24,,,,,429.10215320799034,,,,,,,,,,,,,,,,,,,,,,,,,,,,,,,,,,,,,,,,,,,,,,,,,,,,,,,,,,429.0967617909773,429.10215320799034,429.2928529579658,429.2928529579658,429.2928529579658,430.9886597910081,430.9886597910081,430.97663229098544,,,,,,,,,,,,,,,,,,,,,,,,,277329,001,2024-12-08_15h14.14.810,Test,2024.2.4,None,2024-12-08 15h15.27.543679 +0100,
6,150,30,68,None,2,2,0,,,,,,,,,,,,,,,,0,2,2,5,,,,,430.9886597910081,,,,,,,,,,,,,,,,,,,,,,,,,,,,,,,,,,,,,,,,,,,,,,,,,,,,,,,,,,430.98414999997476,431.00303704099497,431.1934873329592,431.1934873329592,431.1934873329592,432.8893765829853,432.8893765829853,432.8768643329968,,,,,,,,,,,,,,,,,,,,,,,,,277329,001,2024-12-08_15h14.14.810,Test,2024.2.4,None,2024-12-08 15h15.27.543679 +0100,
17,150,90,41,None,3,3,0,,,,,,,,,,,,,,,,0,3,3,16,,,,,432.8893765829853,,,,,,,,,,,,,,,,,,,,,,,,,,,,,,,,,,,,,,,,,,,,,,,,,,,,,,,,,,432.88501816598,432.9030965829734,433.09351045795484,433.09351045795484,433.09351045795484,434.80108079098864,434.80108079098864,434.7871776249958,,,,,,,,,,,,,,,,,,,,,,,,,277329,001,2024-12-08_15h14.14.810,Test,2024.2.4,None,2024-12-08 15h15.27.543679 +0100,
19,150,90,46,None,4,4,0,,,,,,,,,,,,,,,,0,4,4,18,,,,,434.80108079098864,,,,,,,,,,,,,,,,,,,,,,,,,,,,,,,,,,,,,,,,,,,,,,,,,,,,,,,,,,434.7958246250055,434.80108079098864,434.9927212499897,434.9927212499897,434.9927212499897,436.6893452910008,436.6893452910008,436.67685783299385,,,,,,,,,,,,,,,,,,,,,,,,,277329,001,2024-12-08_15h14.14.810,Test,2024.2.4,None,2024-12-08 15h15.27.543679 +0100,
26,150,150,25,None,5,5,0,,,,,,,,,,,,,,,,0,5,5,25,,,,,436.6893452910008,,,,,,,,,,,,,,,,,,,,,,,,,,,,,,,,,,,,,,,,,,,,,,,,,,,,,,,,,,436.6850134159904,436.7030955829541,436.89341554098064,436.89341554098064,436.89341554098064,438.5885092499666,438.5885092499666,438.57655995798996,,,,,,,,,,,,,,,,,,,,,,,,,277329,001,2024-12-08_15h14.14.810,Test,2024.2.4,None,2024-12-08 15h15.27.543679 +0100,
20,150,90,31,None,6,6,0,,,,,,,,,,,,,,,,0,6,6,19,,,,,438.5885092499666,,,,,,,,,,,,,,,,,,,,,,,,,,,,,,,,,,,,,,,,,,,,,,,,,,,,,,,,,,438.58410037501017,438.6030996659538,438.79290549998404,438.79290549998404,438.79290549998404,440.49000237497967,440.49000237497967,440.47681633295724,,,,,,,,,,,,,,,,,,,,,,,,,277329,001,2024-12-08_15h14.14.810,Test,2024.2.4,None,2024-12-08 15h15.27.543679 +0100,
28,150,150,13,None,7,7,0,,,,,,,,,,,,,,,,0,7,7,27,,,,,440.49000237497967,,,,,,,,,,,,,,,,,,,,,,,,,,,,,,,,,,,,,,,,,,,,,,,,,,,,,,,,,,440.4851263749879,440.5029867909616,440.69294820795767,440.69294820795767,440.69294820795767,442.3890802079695,442.3890802079695,442.3766861659824,,,,,,,,,,,,,,,,,,,,,,,,,277329,001,2024-12-08_15h14.14.810,Test,2024.2.4,None,2024-12-08 15h15.27.543679 +0100,
21,150,120,55,None,8,8,0,,,,,,,,,,,,,,,,0,8,8,20,,,,,442.3890802079695,,,,,,,,,,,,,,,,,,,,,,,,,,,,,,,,,,,,,,,,,,,,,,,,,,,,,,,,,,442.3846561249811,442.4030801249901,442.593330957985,442.593330957985,442.593330957985,444.2889082079637,444.2889082079637,444.27656099997694,,,,,,,,,,,,,,,,,,,,,,,,,277329,001,2024-12-08_15h14.14.810,Test,2024.2.4,None,2024-12-08 15h15.27.543679 +0100,
7,150,30,38,None,9,9,0,,,,,,,,,,,,,,,,0,9,9,6,,,,,444.2889082079637,,,,,,,,,,,,,,,,,,,,,,,,,,,,,,,,,,,,,,,,,,,,,,,,,,,,,,,,,,444.28449666599045,444.303124790953,444.49335191596765,444.49335191596765,444.49335191596765,446.1893269160064,446.1893269160064,446.1768800409627,,,,,,,,,,,,,,,,,,,,,,,,,277329,001,2024-12-08_15h14.14.810,Test,2024.2.4,None,2024-12-08 15h15.27.543679 +0100,
24,150,120,52,None,10,10,0,,,,,,,,,,,,,,,,0,10,10,23,,,,,446.1893269160064,,,,,,,,,,,,,,,,,,,,,,,,,,,,,,,,,,,,,,,,,,,,,,,,,,,,,,,,,,446.1850844579749,446.20308354095323,446.3935203329893,446.3935203329893,446.3935203329893,448.10196362499846,448.10196362499846,448.08752441598335,,,,,,,,,,,,,,,,,,,,,,,,,277329,001,2024-12-08_15h14.14.810,Test,2024.2.4,None,2024-12-08 15h15.27.543679 +0100,
32,150,180,60,None,11,11,0,,,,,,,,,,,,,,,,0,11,11,31,,,,,448.10196362499846,,,,,,,,,,,,,,,,,,,,,,,,,,,,,,,,,,,,,,,,,,,,,,,,,,,,,,,,,,448.0966202910058,448.10196362499846,448.29353820800316,448.29353820800316,448.29353820800316,449.98923216597177,449.98923216597177,449.9767939579906,,,,,,,,,,,,,,,,,,,,,,,,,277329,001,2024-12-08_15h14.14.810,Test,2024.2.4,None,2024-12-08 15h15.27.543679 +0100,
13,150,60,24,None,12,12,0,,,,,,,,,,,,,,,,0,12,12,12,,,,,449.98923216597177,,,,,,,,,,,,,,,,,,,,,,,,,,,,,,,,,,,,,,,,,,,,,,,,,,,,,,,,,,449.9848324159975,450.0030102499877,450.1927862080047,450.1927862080047,450.1927862080047,451.88931025000056,451.88931025000056,451.8768599999603,,,,,,,,,,,,,,,,,,,,,,,,,277329,001,2024-12-08_15h14.14.810,Test,2024.2.4,None,2024-12-08 15h15.27.543679 +0100,
5,150,0,3,None,13,13,0,,,,,,,,,,,,,,,,0,13,13,4,,,,,451.88931025000056,,,,,,,,,,,,,,,,,,,,,,,,,,,,,,,,,,,,,,,,,,,,,,,,,,,,,,,,,,451.8849797080038,451.9030872079893,452.09346012497554,452.09346012497554,452.09346012497554,453.78968495799927,453.78968495799927,453.7767998749623,,,,,,,,,,,,,,,,,,,,,,,,,277329,001,2024-12-08_15h14.14.810,Test,2024.2.4,None,2024-12-08 15h15.27.543679 +0100,
1,150,0,57,None,14,14,0,,,,,,,,,,,,,,,,0,14,14,0,,,,,453.78968495799927,,,,,,,,,,,,,,,,,,,,,,,,,,,,,,,,,,,,,,,,,,,,,,,,,,,,,,,,,,453.7849642909714,453.80311687500216,453.9933122500079,453.9933122500079,453.9933122500079,455.6885985409608,455.6885985409608,455.67648249998456,,,,,,,,,,,,,,,,,,,,,,,,,277329,001,2024-12-08_15h14.14.810,Test,2024.2.4,None,2024-12-08 15h15.27.543679 +0100,
15,150,60,12,None,15,15,0,,,,,,,,,,,,,,,,0,15,15,14,,,,,455.6885985409608,,,,,,,,,,,,,,,,,,,,,,,,,,,,,,,,,,,,,,,,,,,,,,,,,,,,,,,,,,455.68365441600326,455.7032021659543,455.89322587498464,455.89322587498464,455.89322587498464,457.6012273749802,457.6012273749802,457.58744408300845,,,,,,,,,,,,,,,,,,,,,,,,,277329,001,2024-12-08_15h14.14.810,Test,2024.2.4,None,2024-12-08 15h15.27.543679 +0100,
2,150,0,7,None,16,16,0,,,,,,,,,,,,,,,,0,16,16,1,,,,,457.6012273749802,,,,,,,,,,,,,,,,,,,,,,,,,,,,,,,,,,,,,,,,,,,,,,,,,,,,,,,,,,457.59581112500746,457.6012273749802,457.79335387499304,457.79335387499304,457.79335387499304,459.4933046659571,459.4933046659571,459.47660670796176,,,,,,,,,,,,,,,,,,,,,,,,,277329,001,2024-12-08_15h14.14.810,Test,2024.2.4,None,2024-12-08 15h15.27.543679 +0100,
11,150,60,62,None,17,17,0,,,,,,,,,,,,,,,,0,17,17,10,,,,,459.4933046659571,,,,,,,,,,,,,,,,,,,,,,,,,,,,,,,,,,,,,,,,,,,,,,,,,,,,,,,,,,459.48860858299304,459.5031543329824,459.69462608295726,459.69462608295726,459.69462608295726,461.4013962909812,461.4013962909812,461.38724391598953,,,,,,,,,,,,,,,,,,,,,,,,,277329,001,2024-12-08_15h14.14.810,Test,2024.2.4,None,2024-12-08 15h15.27.543679 +0100,
4,150,0,15,None,18,18,0,,,,,,,,,,,,,,,,0,18,18,3,,,,,461.4013962909812,,,,,,,,,,,,,,,,,,,,,,,,,,,,,,,,,,,,,,,,,,,,,,,,,,,,,,,,,,461.39593474997673,461.4013962909812,461.59319733298616,461.59319733298616,461.59319733298616,463.28934195800684,463.28934195800684,463.27691466599936,,,,,,,,,,,,,,,,,,,,,,,,,277329,001,2024-12-08_15h14.14.810,Test,2024.2.4,None,2024-12-08 15h15.27.543679 +0100,
31,150,180,43,None,19,19,0,,,,,,,,,,,,,,,,0,19,19,30,,,,,463.28934195800684,,,,,,,,,,,,,,,,,,,,,,,,,,,,,,,,,,,,,,,,,,,,,,,,,,,,,,,,,,463.28503866598476,463.30312749999575,463.4935725829564,463.4935725829564,463.4935725829564,465.2013385409955,465.2013385409955,465.18754683301086,,,,,,,,,,,,,,,,,,,,,,,,,277329,001,2024-12-08_15h14.14.810,Test,2024.2.4,None,2024-12-08 15h15.27.543679 +0100,
18,150,90,56,None,20,20,0,,,,,,,,,,,,,,,,0,20,20,17,,,,,465.2013385409955,,,,,,,,,,,,,,,,,,,,,,,,,,,,,,,,,,,,,,,,,,,,,,,,,,,,,,,,,,465.19609399995534,465.2013385409955,465.3936068749754,465.3936068749754,465.3936068749754,467.0893187909969,467.0893187909969,467.07669487496605,,,,,,,,,,,,,,,,,,,,,,,,,277329,001,2024-12-08_15h14.14.810,Test,2024.2.4,None,2024-12-08 15h15.27.543679 +0100,
33,150,180,21,None,21,21,0,,,,,,,,,,,,,,,,0,21,21,32,,,,,467.0893187909969,,,,,,,,,,,,,,,,,,,,,,,,,,,,,,,,,,,,,,,,,,,,,,,,,,,,,,,,,,467.0849662499968,467.1031189999776,467.29305162496166,467.29305162496166,467.29305162496166,468.9886817079969,468.9886817079969,468.97656679101055,,,,,,,,,,,,,,,,,,,,,,,,,277329,001,2024-12-08_15h14.14.810,Test,2024.2.4,None,2024-12-08 15h15.27.543679 +0100,
22,150,120,35,None,22,22,0,,,,,,,,,,,,,,,,0,22,22,21,,,,,468.9886817079969,,,,,,,,,,,,,,,,,,,,,,,,,,,,,,,,,,,,,,,,,,,,,,,,,,,,,,,,,,468.9839348749956,469.0031523749931,469.19357037497684,469.19357037497684,469.19357037497684,470.8892385829822,470.8892385829822,470.8768907079939,,,,,,,,,,,,,,,,,,,,,,,,,277329,001,2024-12-08_15h14.14.810,Test,2024.2.4,None,2024-12-08 15h15.27.543679 +0100,
14,150,60,17,None,23,23,0,,,,,,,,,,,,,,,,0,23,23,13,,,,,470.8892385829822,,,,,,,,,,,,,,,,,,,,,,,,,,,,,,,,,,,,,,,,,,,,,,,,,,,,,,,,,,470.8847312500002,470.9030697909766,471.0934660829953,471.0934660829953,471.0934660829953,472.7885171250091,472.7885171250091,472.77657045796514,,,,,,,,,,,,,,,,,,,,,,,,,277329,001,2024-12-08_15h14.14.810,Test,2024.2.4,None,2024-12-08 15h15.27.543679 +0100,
35,150,180,1,None,24,24,0,,,,,,,,,,,,,,,,0,24,24,34,,,,,472.7885171250091,,,,,,,,,,,,,,,,,,,,,,,,,,,,,,,,,,,,,,,,,,,,,,,,,,,,,,,,,,472.78385449998314,472.8030872909585,472.9935462079593,472.9935462079593,472.9935462079593,474.7006324999966,474.7006324999966,474.6873999160016,,,,,,,,,,,,,,,,,,,,,,,,,277329,001,2024-12-08_15h14.14.810,Test,2024.2.4,None,2024-12-08 15h15.27.543679 +0100,
23,150,120,51,None,25,25,0,,,,,,,,,,,,,,,,0,25,25,22,,,,,474.7006324999966,,,,,,,,,,,,,,,,,,,,,,,,,,,,,,,,,,,,,,,,,,,,,,,,,,,,,,,,,,474.69526891596615,474.7006324999966,474.8934669159935,474.8934669159935,474.8934669159935,476.58853262499906,476.58853262499906,476.5767302910099,,,,,,,,,,,,,,,,,,,,,,,,,277329,001,2024-12-08_15h14.14.810,Test,2024.2.4,None,2024-12-08 15h15.27.543679 +0100,
29,150,150,33,None,26,26,0,,,,,,,,,,,,,,,,0,26,26,28,,,,,476.58853262499906,,,,,,,,,,,,,,,,,,,,,,,,,,,,,,,,,,,,,,,,,,,,,,,,,,,,,,,,,,476.5838922080002,476.60320891597075,476.79380566597683,476.79380566597683,476.79380566597683,478.50080208299914,478.50080208299914,478.4871697499766,,,,,,,,,,,,,,,,,,,,,,,,,277329,001,2024-12-08_15h14.14.810,Test,2024.2.4,None,2024-12-08 15h15.27.543679 +0100,
16,150,90,40,None,27,27,0,,,,,,,,,,,,,,,,0,27,27,15,,,,,478.50080208299914,,,,,,,,,,,,,,,,,,,,,,,,,,,,,,,,,,,,,,,,,,,,,,,,,,,,,,,,,,478.4954025829793,478.50080208299914,478.69297862495296,478.69297862495296,478.69297862495296,480.3884383330005,480.3884383330005,480.3766863750061,,,,,,,,,,,,,,,,,,,,,,,,,277329,001,2024-12-08_15h14.14.810,Test,2024.2.4,None,2024-12-08 15h15.27.543679 +0100,
34,150,180,14,None,28,28,0,,,,,,,,,,,,,,,,0,28,28,33,,,,,480.3884383330005,,,,,,,,,,,,,,,,,,,,,,,,,,,,,,,,,,,,,,,,,,,,,,,,,,,,,,,,,,480.38390383298974,480.4032135409652,480.5934489580104,480.5934489580104,480.5934489580104,482.2885222909972,482.2885222909972,482.27654704096494,,,,,,,,,,,,,,,,,,,,,,,,,277329,001,2024-12-08_15h14.14.810,Test,2024.2.4,None,2024-12-08 15h15.27.543679 +0100,
3,150,0,61,None,29,29,0,,,,,,,,,,,,,,,,0,29,29,2,,,,,482.2885222909972,,,,,,,,,,,,,,,,,,,,,,,,,,,,,,,,,,,,,,,,,,,,,,,,,,,,,,,,,,482.2838448329712,482.30308787495596,482.4928738749586,482.4928738749586,482.4928738749586,484.189104916004,484.189104916004,484.1765484579955,,,,,,,,,,,,,,,,,,,,,,,,,277329,001,2024-12-08_15h14.14.810,Test,2024.2.4,None,2024-12-08 15h15.27.543679 +0100,
9,150,30,8,None,30,30,0,,,,,,,,,,,,,,,,0,30,30,8,,,,,484.189104916004,,,,,,,,,,,,,,,,,,,,,,,,,,,,,,,,,,,,,,,,,,,,,,,,,,,,,,,,,,484.1847077079583,484.20317183301086,484.39343829097925,484.39343829097925,484.39343829097925,486.0898382909945,486.0898382909945,486.0769310409669,,,,,,,,,,,,,,,,,,,,,,,,,277329,001,2024-12-08_15h14.14.810,Test,2024.2.4,None,2024-12-08 15h15.27.543679 +0100,
8,150,30,4,None,31,31,0,,,,,,,,,,,,,,,,0,31,31,7,,,,,486.0898382909945,,,,,,,,,,,,,,,,,,,,,,,,,,,,,,,,,,,,,,,,,,,,,,,,,,,,,,,,,,486.0856380829937,486.1033055409789,486.2930275409599,486.2930275409599,486.2930275409599,487.98877816600725,487.98877816600725,487.97699558298336,,,,,,,,,,,,,,,,,,,,,,,,,277329,001,2024-12-08_15h14.14.810,Test,2024.2.4,None,2024-12-08 15h15.27.543679 +0100,
12,150,60,32,None,32,32,0,,,,,,,,,,,,,,,,0,32,32,11,,,,,487.98877816600725,,,,,,,,,,,,,,,,,,,,,,,,,,,,,,,,,,,,,,,,,,,,,,,,,,,,,,,,,,487.98429674998624,488.0031464580097,488.193621540966,488.193621540966,488.193621540966,489.9013780829846,489.9013780829846,489.88740691600833,,,,,,,,,,,,,,,,,,,,,,,,,277329,001,2024-12-08_15h14.14.810,Test,2024.2.4,None,2024-12-08 15h15.27.543679 +0100,
27,150,150,45,None,33,33,0,,,,,,,,,,,,,,,,0,33,33,26,,,,,489.9013780829846,,,,,,,,,,,,,,,,,,,,,,,,,,,,,,,,,,,,,,,,,,,,,,,,,,,,,,,,,,489.8959129579598,489.9013780829846,490.09295083297184,490.09295083297184,490.09295083297184,491.7888743329677,491.7888743329677,491.7765000409563,,,,,,,,,,,,,,,,,,,,,,,,,277329,001,2024-12-08_15h14.14.810,Test,2024.2.4,None,2024-12-08 15h15.27.543679 +0100,
10,150,30,26,None,34,34,0,,,,,,,,,,,,,,,,0,34,34,9,,,,,491.7888743329677,,,,,,,,,,,,,,,,,,,,,,,,,,,,,,,,,,,,,,,,,,,,,,,,,,,,,,,,,,491.7845639999723,491.8031049579731,491.9935650409898,491.9935650409898,491.9935650409898,493.6863778329571,493.6863778329571,493.6769273749669,,,,,,,,,,,,,,,,,,,,,,,,,277329,001,2024-12-08_15h14.14.810,Test,2024.2.4,None,2024-12-08 15h15.27.543679 +0100,
,,,,,,,,,,,,,,,,,,,,,,,,,,,,,,,,,,,,,,,,,,,,,,,,,,,,,,,,,,,,,,,,,,,,,,,,,,,,,,,,,,,,,,,,,,,,,,,,,493.6771192079759,493.69395349995466,493.69395349995466,500.9713297910057,space,7.267789584002458,None,,,,,,,,,,,,,,,,,,277329,001,2024-12-08_15h14.14.810,Test,2024.2.4,None,2024-12-08 15h15.27.543679 +0100,
38,150,0,64,None,0,0,0,True,,,,left,1.2741801250376739,None,,,,,,,,,,,,,0,0,0,0,501.10791245795554,,,,,,,,,,,,,,,,,,,,,,,,,,,,,,,,,,,,,,,,,,,,,,,,,,,,,,,,,,,,,,,,,,,,,,,,,501.10231687501073,501.10791245795554,502.1031560829724,502.9700257909717,502.9700257909717,502.9700257909717,504.25537291599903,left,1.2741801250376739,None,,,,,,,,277329,001,2024-12-08_15h14.14.810,Test,2024.2.4,None,2024-12-08 15h15.27.543679 +0100,
56,150,120,2,None,1,1,0,True,,,,left,1.3930798340006731,None,,,,,,,,,,,,,0,1,1,1,504.2711768329609,,,,,,,,,,,,,,,,,,,,,,,,,,,,,,,,,,,,,,,,,,,,,,,,,,,,,,,,,,,,,,,,,,,,,,,,,504.26371895795455,504.2711768329609,505.2698169579962,506.2532221250003,506.2532221250003,506.2532221250003,507.6551736659603,left,1.3930798340006731,None,,,,,,,,277329,001,2024-12-08_15h14.14.810,Test,2024.2.4,None,2024-12-08 15h15.27.543679 +0100,
31,150,180,43,None,2,2,0,False,,,,right,0.7359743340057321,None,,,,,,,,,,,,,0,2,2,2,507.67089345800923,,,,,,,,,,,,,,,,,,,,,,,,,,,,,,,,,,,,,,,,,,,,,,,,,,,,,,,,,,,,,,,,,,,,,,,,,507.66407766600605,507.67089345800923,508.66976991598494,509.65317312499974,509.65317312499974,509.65317312499974,510.3950967079727,right,0.7359743340057321,None,,,,,,,,277329,001,2024-12-08_15h14.14.810,Test,2024.2.4,None,2024-12-08 15h15.27.543679 +0100,
34,150,180,14,None,3,3,0,False,,,,right,0.8163703329628333,None,,,,,,,,,,,,,0,3,3,3,510.40972254099324,,,,,,,,,,,,,,,,,,,,,,,,,,,,,,,,,,,,,,,,,,,,,,,,,,,,,,,,,,,,,,,,,,,,,,,,,510.40320904098917,510.40972254099324,511.4091289159842,512.3934551659622,512.3934551659622,512.3934551659622,513.2124607909936,right,0.8163703329628333,None,,,,,,,,277329,001,2024-12-08_15h14.14.810,Test,2024.2.4,None,2024-12-08 15h15.27.543679 +0100,
58,150,120,63,None,4,4,0,True,,,,right,1.2922212079865858,None,,,,,,,,,,,,,0,4,4,4,513.2285067499615,,,,,,,,,,,,,,,,,,,,,,,,,,,,,,,,,,,,,,,,,,,,,,,,,,,,,,,,,,,,,,,,,,,,,,,,,513.2211605829652,513.2285067499615,514.2250550829922,515.2109284579637,515.2109284579637,515.2109284579637,516.5054914999637,right,1.2922212079865858,None,,,,,,,,277329,001,2024-12-08_15h14.14.810,Test,2024.2.4,None,2024-12-08 15h15.27.543679 +0100,
65,150,150,27,None,5,5,0,True,,,,left,1.641530791996047,None,,,,,,,,,,,,,0,5,5,5,516.521147624997,,,,,,,,,,,,,,,,,,,,,,,,,,,,,,,,,,,,,,,,,,,,,,,,,,,,,,,,,,,,,,,,,,,,,,,,,516.5148180410033,516.521147624997,517.5197458330076,518.5033912499784,518.5033912499784,518.5033912499784,520.1551888329559,left,1.641530791996047,None,,,,,,,,277329,001,2024-12-08_15h14.14.810,Test,2024.2.4,None,2024-12-08 15h15.27.543679 +0100,
67,150,180,49,None,6,6,0,True,,,,left,1.8292666669585742,None,,,,,,,,,,,,,0,6,6,6,520.1704682909767,,,,,,,,,,,,,,,,,,,,,,,,,,,,,,,,,,,,,,,,,,,,,,,,,,,,,,,,,,,,,,,,,,,,,,,,,520.1635228749947,520.1704682909767,521.1577110409853,522.1532226249692,522.1532226249692,522.1532226249692,523.98862525,left,1.8292666669585742,None,,,,,,,,277329,001,2024-12-08_15h14.14.810,Test,2024.2.4,None,2024-12-08 15h15.27.543679 +0100,
26,150,150,25,None,7,7,0,False,,,,right,0.800021166971419,None,,,,,,,,,,,,,0,7,7,7,524.0027737079654,,,,,,,,,,,,,,,,,,,,,,,,,,,,,,,,,,,,,,,,,,,,,,,,,,,,,,,,,,,,,,,,,,,,,,,,,523.99697095796,524.0027737079654,524.99169312499,525.9865879580029,525.9865879580029,525.9865879580029,526.7899560829974,right,0.800021166971419,None,,,,,,,,277329,001,2024-12-08_15h14.14.810,Test,2024.2.4,None,2024-12-08 15h15.27.543679 +0100,
66,150,180,5,None,8,8,0,True,,,,left,1.9924645000137389,None,,,,,,,,,,,,,0,8,8,8,526.8044162499718,,,,,,,,,,,,,,,,,,,,,,,,,,,,,,,,,,,,,,,,,,,,,,,,,,,,,,,,,,,,,,,,,,,,,,,,,526.7980160409934,526.8044162499718,527.8030756249791,528.7866603749571,528.7866603749571,528.7866603749571,530.7886451659724,left,1.9924645000137389,None,,,,,,,,277329,001,2024-12-08_15h14.14.810,Test,2024.2.4,None,2024-12-08 15h15.27.543679 +0100,
37,150,0,16,None,9,9,0,True,,,,right,1.0919535830034874,None,,,,,,,,,,,,,0,9,9,9,530.8039403329603,,,,,,,,,,,,,,,,,,,,,,,,,,,,,,,,,,,,,,,,,,,,,,,,,,,,,,,,,,,,,,,,,,,,,,,,,530.7976314999978,530.8039403329603,531.7917654580087,532.786635291006,532.786635291006,532.786635291006,533.8887747499975,right,1.0919535830034874,None,,,,,,,,277329,001,2024-12-08_15h14.14.810,Test,2024.2.4,None,2024-12-08 15h15.27.543679 +0100,
17,150,90,41,None,10,10,0,False,,,,right,1.5496097499853931,None,,,,,,,,,,,,,0,10,10,10,533.9041878749849,,,,,,,,,,,,,,,,,,,,,,,,,,,,,,,,,,,,,,,,,,,,,,,,,,,,,,,,,,,,,,,,,,,,,,,,,533.8978187500034,533.9041878749849,534.9030597909587,535.8866477909614,535.8866477909614,535.8866477909614,537.4386374159949,right,1.5496097499853931,None,,,,,,,,277329,001,2024-12-08_15h14.14.810,Test,2024.2.4,None,2024-12-08 15h15.27.543679 +0100,
48,150,60,47,None,11,11,0,True,,,,left,2.0834112919983454,None,,,,,,,,,,,,,0,11,11,11,537.4540314999758,,,,,,,,,,,,,,,,,,,,,,,,,,,,,,,,,,,,,,,,,,,,,,,,,,,,,,,,,,,,,,,,,,,,,,,,,537.4476252910099,537.4540314999758,538.4412400829606,539.436550540966,539.436550540966,539.436550540966,541.5228971659672,left,2.0834112919983454,None,,,,,,,,277329,001,2024-12-08_15h14.14.810,Test,2024.2.4,None,2024-12-08 15h15.27.543679 +0100,
3,150,0,61,None,12,12,0,False,,,,right,1.6662140419939533,None,,,,,,,,,,,,,0,12,12,12,541.5383911659592,,,,,,,,,,,,,,,,,,,,,,,,,,,,,,,,,,,,,,,,,,,,,,,,,,,,,,,,,,,,,,,,,,,,,,,,,541.5320030829753,541.5383911659592,542.5363810829585,543.5200055409805,543.5200055409805,543.5200055409805,545.1885692909709,right,1.6662140419939533,None,,,,,,,,277329,001,2024-12-08_15h14.14.810,Test,2024.2.4,None,2024-12-08 15h15.27.543679 +0100,
33,150,180,21,None,13,13,0,False,,,,right,1.1906796249677427,None,,,,,,,,,,,,,0,13,13,13,545.2043139999732,,,,,,,,,,,,,,,,,,,,,,,,,,,,,,,,,,,,,,,,,,,,,,,,,,,,,,,,,,,,,,,,,,,,,,,,,545.1979213329614,545.2043139999732,546.203287332959,547.186729374982,547.186729374982,547.186729374982,548.3885253329645,right,1.1906796249677427,None,,,,,,,,277329,001,2024-12-08_15h14.14.810,Test,2024.2.4,None,2024-12-08 15h15.27.543679 +0100,
28,150,150,13,None,14,14,0,False,,,,left,1.4417385419947095,None,,,,,,,,,,,,,0,14,14,14,548.4037574999966,,,,,,,,,,,,,,,,,,,,,,,,,,,,,,,,,,,,,,,,,,,,,,,,,,,,,,,,,,,,,,,,,,,,,,,,,548.3971045409562,548.4037574999966,549.3922912499984,550.3864926659735,550.3864926659735,550.3864926659735,551.838547124993,left,1.4417385419947095,None,,,,,,,,277329,001,2024-12-08_15h14.14.810,Test,2024.2.4,None,2024-12-08 15h15.27.543679 +0100,
52,150,90,19,None,15,15,0,True,,,,right,1.4830132089555264,None,,,,,,,,,,,,,0,15,15,15,551.8542532909778,,,,,,,,,,,,,,,,,,,,,,,,,,,,,,,,,,,,,,,,,,,,,,,,,,,,,,,,,,,,,,,,,,,,,,,,,551.847474915965,551.8542532909778,552.8530850409879,553.8366410409799,553.8366410409799,553.8366410409799,555.3219369999715,right,1.4830132089555264,None,,,,,,,,277329,001,2024-12-08_15h14.14.810,Test,2024.2.4,None,2024-12-08 15h15.27.543679 +0100,
64,150,150,42,None,16,16,0,True,,,,left,1.4672805829904974,None,,,,,,,,,,,,,0,16,16,16,555.3366769579588,,,,,,,,,,,,,,,,,,,,,,,,,,,,,,,,,,,,,,,,,,,,,,,,,,,,,,,,,,,,,,,,,,,,,,,,,555.3307842079666,555.3366769579588,556.3243145410088,557.3198482499574,557.3198482499574,557.3198482499574,558.7906870410079,left,1.4672805829904974,None,,,,,,,,277329,001,2024-12-08_15h14.14.810,Test,2024.2.4,None,2024-12-08 15h15.27.543679 +0100,
53,150,90,39,None,17,17,0,True,,,,left,2.0559718339936808,None,,,,,,,,,,,,,0,17,17,17,558.8059932909673,,,,,,,,,,,,,,,,,,,,,,,,,,,,,,,,,,,,,,,,,,,,,,,,,,,,,,,,,,,,,,,,,,,,,,,,,558.7995149999624,558.8059932909673,559.803078625002,560.7867495829705,560.7867495829705,560.7867495829705,562.8449342909735,left,2.0559718339936808,None,,,,,,,,277329,001,2024-12-08_15h14.14.810,Test,2024.2.4,None,2024-12-08 15h15.27.543679 +0100,
68,150,180,54,None,18,18,0,True,,,,right,1.1360173749853857,None,,,,,,,,,,,,,0,18,18,18,562.859428457974,,,,,,,,,,,,,,,,,,,,,,,,,,,,,,,,,,,,,,,,,,,,,,,,,,,,,,,,,,,,,,,,,,,,,,,,,562.8534970830078,562.859428457974,563.8531103749992,564.8433974579675,564.8433974579675,564.8433974579675,565.9888299579616,right,1.1360173749853857,None,,,,,,,,277329,001,2024-12-08_15h14.14.810,Test,2024.2.4,None,2024-12-08 15h15.27.543679 +0100,
44,150,30,70,None,19,19,0,True,,,,right,1.9387177499593236,None,,,,,,,,,,,,,0,19,19,19,566.0036252909922,,,,,,,,,,,,,,,,,,,,,,,,,,,,,,,,,,,,,,,,,,,,,,,,,,,,,,,,,,,,,,,,,,,,,,,,,565.9972079579602,566.0036252909922,566.991135874996,567.9865064999904,567.9865064999904,567.9865064999904,569.9281770829693,right,1.9387177499593236,None,,,,,,,,277329,001,2024-12-08_15h14.14.810,Test,2024.2.4,None,2024-12-08 15h15.27.543679 +0100,
39,150,0,65,None,20,20,0,True,,,,right,1.0979773749713786,None,,,,,,,,,,,,,0,20,20,20,569.9427910000086,,,,,,,,,,,,,,,,,,,,,,,,,,,,,,,,,,,,,,,,,,,,,,,,,,,,,,,,,,,,,,,,,,,,,,,,,569.93665233301,569.9427910000086,570.9364526660065,571.9272412079736,571.9272412079736,571.9272412079736,573.0286369579844,right,1.0979773749713786,None,,,,,,,,277329,001,2024-12-08_15h14.14.810,Test,2024.2.4,None,2024-12-08 15h15.27.543679 +0100,
7,150,30,38,None,21,21,0,False,,,,right,0.9997931669931859,None,,,,,,,,,,,,,0,21,21,21,573.0439453749568,,,,,,,,,,,,,,,,,,,,,,,,,,,,,,,,,,,,,,,,,,,,,,,,,,,,,,,,,,,,,,,,,,,,,,,,,573.0373610410024,573.0439453749568,574.0409614159726,575.0268068329897,575.0268068329897,575.0268068329897,576.0291092909756,right,0.9997931669931859,None,,,,,,,,277329,001,2024-12-08_15h14.14.810,Test,2024.2.4,None,2024-12-08 15h15.27.543679 +0100,
12,150,60,32,None,22,22,0,False,,,,right,1.0476109580486082,None,,,,,,,,,,,,,0,22,22,22,576.0442425829824,,,,,,,,,,,,,,,,,,,,,,,,,,,,,,,,,,,,,,,,,,,,,,,,,,,,,,,,,,,,,,,,,,,,,,,,,576.0383875829866,576.0442425829824,577.0414987909608,578.0274185409653,578.0274185409653,578.0274185409653,579.0780404999969,right,1.0476109580486082,None,,,,,,,,277329,001,2024-12-08_15h14.14.810,Test,2024.2.4,None,2024-12-08 15h15.27.543679 +0100,
63,150,150,69,None,23,23,0,True,,,,left,1.4676270830095746,None,,,,,,,,,,,,,0,23,23,23,579.0919130409602,,,,,,,,,,,,,,,,,,,,,,,,,,,,,,,,,,,,,,,,,,,,,,,,,,,,,,,,,,,,,,,,,,,,,,,,,579.0862104999833,579.0919130409602,580.0867532499833,581.0770529159927,581.0770529159927,581.0770529159927,582.5552969999844,left,1.4676270830095746,None,,,,,,,,277329,001,2024-12-08_15h14.14.810,Test,2024.2.4,None,2024-12-08 15h15.27.543679 +0100,
22,150,120,35,None,24,24,0,False,,,,left,2.304569708008785,None,,,,,,,,,,,,,0,24,24,24,582.5705952079734,,,,,,,,,,,,,,,,,,,,,,,,,,,,,,,,,,,,,,,,,,,,,,,,,,,,,,,,,,,,,,,,,,,,,,,,,582.564293375006,582.5705952079734,583.5583717079717,584.553277665982,584.553277665982,584.553277665982,586.8617267499794,left,2.304569708008785,None,,,,,,,,277329,001,2024-12-08_15h14.14.810,Test,2024.2.4,None,2024-12-08 15h15.27.543679 +0100,
47,150,60,10,None,25,25,0,True,,,,right,1.407587792025879,None,,,,,,,,,,,,,0,25,25,25,586.8761236660066,,,,,,,,,,,,,,,,,,,,,,,,,,,,,,,,,,,,,,,,,,,,,,,,,,,,,,,,,,,,,,,,,,,,,,,,,586.8698659579968,586.8761236660066,587.874120833003,588.8597370409989,588.8597370409989,588.8597370409989,590.2720655829762,right,1.407587792025879,None,,,,,,,,277329,001,2024-12-08_15h14.14.810,Test,2024.2.4,None,2024-12-08 15h15.27.543679 +0100,
50,150,60,34,None,26,26,0,True,,,,right,1.0881820420036092,None,,,,,,,,,,,,,0,26,26,26,590.2872644159943,,,,,,,,,,,,,,,,,,,,,,,,,,,,,,,,,,,,,,,,,,,,,,,,,,,,,,,,,,,,,,,,,,,,,,,,,590.2808464159607,590.2872644159943,591.2753177079721,592.2699225409888,592.2699225409888,592.2699225409888,593.3614666659851,right,1.0881820420036092,None,,,,,,,,277329,001,2024-12-08_15h14.14.810,Test,2024.2.4,None,2024-12-08 15h15.27.543679 +0100,
29,150,150,33,None,27,27,0,False,,,,right,1.117856708006002,None,,,,,,,,,,,,,0,27,27,27,593.3779864159878,,,,,,,,,,,,,,,,,,,,,,,,,,,,,,,,,,,,,,,,,,,,,,,,,,,,,,,,,,,,,,,,,,,,,,,,,593.3707722079707,593.3779864159878,594.3748794579878,595.3605069579789,595.3605069579789,595.3605069579789,596.4886610409594,right,1.117856708006002,None,,,,,,,,277329,001,2024-12-08_15h14.14.810,Test,2024.2.4,None,2024-12-08 15h15.27.543679 +0100,
16,150,90,40,None,28,28,0,False,,,,right,0.9334360840148292,None,,,,,,,,,,,,,0,28,28,28,596.5040392910014,,,,,,,,,,,,,,,,,,,,,,,,,,,,,,,,,,,,,,,,,,,,,,,,,,,,,,,,,,,,,,,,,,,,,,,,,596.4978091659723,596.5040392910014,597.49128620798,598.4867370409775,598.4867370409775,598.4867370409775,599.4233501660055,right,0.9334360840148292,None,,,,,,,,277329,001,2024-12-08_15h14.14.810,Test,2024.2.4,None,2024-12-08 15h15.27.543679 +0100,
41,150,30,53,None,29,29,0,True,,,,left,1.4623471249942668,None,,,,,,,,,,,,,0,29,29,29,599.4390275409678,,,,,,,,,,,,,,,,,,,,,,,,,,,,,,,,,,,,,,,,,,,,,,,,,,,,,,,,,,,,,,,,,,,,,,,,,599.4326151660061,599.4390275409678,600.4366906659561,601.419933624973,601.419933624973,601.419933624973,602.8887233329588,left,1.4623471249942668,None,,,,,,,,277329,001,2024-12-08_15h14.14.810,Test,2024.2.4,None,2024-12-08 15h15.27.543679 +0100,
27,150,150,45,None,30,30,0,False,,,,right,1.002282707951963,None,,,,,,,,,,,,,0,30,30,30,602.9040075829835,,,,,,,,,,,,,,,,,,,,,,,,,,,,,,,,,,,,,,,,,,,,,,,,,,,,,,,,,,,,,,,,,,,,,,,,,602.8979305409594,602.9040075829835,603.8917868749704,604.8867217499646,604.8867217499646,604.8867217499646,605.8950383749907,right,1.002282707951963,None,,,,,,,,277329,001,2024-12-08_15h14.14.810,Test,2024.2.4,None,2024-12-08 15h15.27.543679 +0100,
15,150,60,12,None,31,31,0,False,,,,right,1.0048956249956973,None,,,,,,,,,,,,,0,31,31,31,605.9099631249555,,,,,,,,,,,,,,,,,,,,,,,,,,,,,,,,,,,,,,,,,,,,,,,,,,,,,,,,,,,,,,,,,,,,,,,,,605.9037724579684,605.9099631249555,606.9085580829997,607.8935495409532,607.8935495409532,607.8935495409532,608.9054029999534,right,1.0048956249956973,None,,,,,,,,277329,001,2024-12-08_15h14.14.810,Test,2024.2.4,None,2024-12-08 15h15.27.543679 +0100,
5,150,0,3,None,32,32,0,False,,,,left,1.4261949579813518,None,,,,,,,,,,,,,0,32,32,32,608.9201737910043,,,,,,,,,,,,,,,,,,,,,,,,,,,,,,,,,,,,,,,,,,,,,,,,,,,,,,,,,,,,,,,,,,,,,,,,,608.9140250409837,608.9201737910043,609.9084217500058,610.9031509999768,610.9031509999768,610.9031509999768,612.3388429579791,left,1.4261949579813518,None,,,,,,,,277329,001,2024-12-08_15h14.14.810,Test,2024.2.4,None,2024-12-08 15h15.27.543679 +0100,
36,150,0,18,None,33,33,0,True,,,,left,1.4197128749801777,None,,,,,,,,,,,,,0,33,33,33,612.3541577080032,,,,,,,,,,,,,,,,,,,,,,,,,,,,,,,,,,,,,,,,,,,,,,,,,,,,,,,,,,,,,,,,,,,,,,,,,612.3477712079766,612.3541577080032,613.342076416011,614.336727707996,614.336727707996,614.336727707996,615.7613084579934,left,1.4197128749801777,None,,,,,,,,277329,001,2024-12-08_15h14.14.810,Test,2024.2.4,None,2024-12-08 15h15.27.543679 +0100,
46,150,60,44,None,34,34,0,True,,,,right,1.677559666975867,None,,,,,,,,,,,,,0,34,34,34,615.7756394160097,,,,,,,,,,,,,,,,,,,,,,,,,,,,,,,,,,,,,,,,,,,,,,,,,,,,,,,,,,,,,,,,,,,,,,,,,615.7699080829625,615.7756394160097,616.7698432079633,617.7596813329728,617.7596813329728,617.7596813329728,619.4482905829791,right,1.677559666975867,None,,,,,,,,277329,001,2024-12-08_15h14.14.810,Test,2024.2.4,None,2024-12-08 15h15.27.543679 +0100,
23,150,120,51,None,35,35,0,False,,,,right,1.197700624994468,None,,,,,,,,,,,,,0,35,35,35,619.4607426659786,,,,,,,,,,,,,,,,,,,,,,,,,,,,,,,,,,,,,,,,,,,,,,,,,,,,,,,,,,,,,,,,,,,,,,,,,619.4561170829693,619.4607426659786,620.4580763329868,621.444072082988,621.444072082988,621.444072082988,622.6448755409801,right,1.197700624994468,None,,,,,,,,277329,001,2024-12-08_15h14.14.810,Test,2024.2.4,None,2024-12-08 15h15.27.543679 +0100,
57,150,120,50,None,36,36,0,True,,,,left,1.6761120000155643,None,,,,,,,,,,,,,0,36,36,36,622.6594528330024,,,,,,,,,,,,,,,,,,,,,,,,,,,,,,,,,,,,,,,,,,,,,,,,,,,,,,,,,,,,,,,,,,,,,,,,,622.6531609160011,622.6594528330024,623.6531866659643,624.644444290956,624.644444290956,624.644444290956,626.3229296659702,left,1.6761120000155643,None,,,,,,,,277329,001,2024-12-08_15h14.14.810,Test,2024.2.4,None,2024-12-08 15h15.27.543679 +0100,
70,150,180,29,None,37,37,0,True,,,,left,2.10074954200536,None,,,,,,,,,,,,,0,37,37,37,626.3376954160049,,,,,,,,,,,,,,,,,,,,,,,,,,,,,,,,,,,,,,,,,,,,,,,,,,,,,,,,,,,,,,,,,,,,,,,,,626.3317619999871,626.3376954160049,627.3365883329534,628.3199131659931,628.3199131659931,628.3199131659931,630.4310438749962,left,2.10074954200536,None,,,,,,,,277329,001,2024-12-08_15h14.14.810,Test,2024.2.4,None,2024-12-08 15h15.27.543679 +0100,
4,150,0,15,None,38,38,0,False,,,,right,0.7681377909611911,None,,,,,,,,,,,,,0,38,38,38,630.4430073749973,,,,,,,,,,,,,,,,,,,,,,,,,,,,,,,,,,,,,,,,,,,,,,,,,,,,,,,,,,,,,,,,,,,,,,,,,630.4382183330017,630.4430073749973,631.4364880409557,632.4269449159619,632.4269449159619,632.4269449159619,633.2053904159693,right,0.7681377909611911,None,,,,,,,,277329,001,2024-12-08_15h14.14.810,Test,2024.2.4,None,2024-12-08 15h15.27.543679 +0100,
10,150,30,26,None,39,39,0,False,,,,right,1.1240015410003252,None,,,,,,,,,,,,,0,39,39,39,633.2210380409961,,,,,,,,,,,,,,,,,,,,,,,,,,,,,,,,,,,,,,,,,,,,,,,,,,,,,,,,,,,,,,,,,,,,,,,,,633.2144327499554,633.2210380409961,634.2198990409961,635.2032528749551,635.2032528749551,635.2032528749551,636.3385719159851,right,1.1240015410003252,None,,,,,,,,277329,001,2024-12-08_15h14.14.810,Test,2024.2.4,None,2024-12-08 15h15.27.543679 +0100,
14,150,60,17,None,40,40,0,False,,,,left,1.3707896250416525,None,,,,,,,,,,,,,0,40,40,40,636.354176874971,,,,,,,,,,,,,,,,,,,,,,,,,,,,,,,,,,,,,,,,,,,,,,,,,,,,,,,,,,,,,,,,,,,,,,,,,636.3473414159962,636.354176874971,637.3424605409964,638.3366392079624,638.3366392079624,638.3366392079624,639.7114097909653,left,1.3707896250416525,None,,,,,,,,277329,001,2024-12-08_15h14.14.810,Test,2024.2.4,None,2024-12-08 15h15.27.543679 +0100,
40,150,0,30,None,41,41,0,True,,,,left,1.4175375830382109,None,,,,,,,,,,,,,0,41,41,41,639.7265984579572,,,,,,,,,,,,,,,,,,,,,,,,,,,,,,,,,,,,,,,,,,,,,,,,,,,,,,,,,,,,,,,,,,,,,,,,,639.7203750829794,639.7265984579572,640.7250765409553,641.7101102909655,641.7101102909655,641.7101102909655,643.13875920797,left,1.4175375830382109,None,,,,,,,,277329,001,2024-12-08_15h14.14.810,Test,2024.2.4,None,2024-12-08 15h15.27.543679 +0100,
20,150,90,31,None,42,42,0,False,,,,right,1.6455295420018956,None,,,,,,,,,,,,,0,42,42,42,643.154250499967,,,,,,,,,,,,,,,,,,,,,,,,,,,,,,,,,,,,,,,,,,,,,,,,,,,,,,,,,,,,,,,,,,,,,,,,,643.1474888329976,643.154250499967,644.1531643749913,645.1367777499836,645.1367777499836,645.1367777499836,646.7886643329985,right,1.6455295420018956,None,,,,,,,,277329,001,2024-12-08_15h14.14.810,Test,2024.2.4,None,2024-12-08 15h15.27.543679 +0100,
18,150,90,56,None,43,43,0,False,,,,left,1.4109712080098689,None,,,,,,,,,,,,,0,43,43,43,646.8033287079888,,,,,,,,,,,,,,,,,,,,,,,,,,,,,,,,,,,,,,,,,,,,,,,,,,,,,,,,,,,,,,,,,,,,,,,,,646.7972999159829,646.8033287079888,647.7915385829983,648.7867468330078,648.7867468330078,648.7867468330078,650.2050681659603,left,1.4109712080098689,None,,,,,,,,277329,001,2024-12-08_15h14.14.810,Test,2024.2.4,None,2024-12-08 15h15.27.543679 +0100,
21,150,120,55,None,44,44,0,False,,,,right,2.0353944589733146,None,,,,,,,,,,,,,0,44,44,44,650.2205498329713,,,,,,,,,,,,,,,,,,,,,,,,,,,,,,,,,,,,,,,,,,,,,,,,,,,,,,,,,,,,,,,,,,,,,,,,,650.2138672499568,650.2205498329713,651.208555582969,652.2033391660079,652.2033391660079,652.2033391660079,654.2445839580032,right,2.0353944589733146,None,,,,,,,,277329,001,2024-12-08_15h14.14.810,Test,2024.2.4,None,2024-12-08 15h15.27.543679 +0100,
2,150,0,7,None,45,45,0,False,,,,right,1.066375833004713,None,,,,,,,,,,,,,0,45,45,45,654.2602989999577,,,,,,,,,,,,,,,,,,,,,,,,,,,,,,,,,,,,,,,,,,,,,,,,,,,,,,,,,,,,,,,,,,,,,,,,,654.2543117079767,654.2602989999577,655.2582860409748,656.2444742079824,656.2444742079824,656.2444742079824,657.3225013329647,right,1.066375833004713,None,,,,,,,,277329,001,2024-12-08_15h14.14.810,Test,2024.2.4,None,2024-12-08 15h15.27.543679 +0100,
43,150,30,36,None,46,46,0,True,,,,left,1.5475402920274064,None,,,,,,,,,,,,,0,46,46,46,657.3380314160022,,,,,,,,,,,,,,,,,,,,,,,,,,,,,,,,,,,,,,,,,,,,,,,,,,,,,,,,,,,,,,,,,,,,,,,,,657.3318253749749,657.3380314160022,658.3365149999736,659.3200566659798,659.3200566659798,659.3200566659798,660.8720122909872,left,1.5475402920274064,None,,,,,,,,277329,001,2024-12-08_15h14.14.810,Test,2024.2.4,None,2024-12-08 15h15.27.543679 +0100,
62,150,150,28,None,47,47,0,True,,,,left,1.394407832995057,None,,,,,,,,,,,,,0,47,47,47,660.8879601659719,,,,,,,,,,,,,,,,,,,,,,,,,,,,,,,,,,,,,,,,,,,,,,,,,,,,,,,,,,,,,,,,,,,,,,,,,660.8815680409898,660.8879601659719,661.8866019579582,662.8699068329879,662.8699068329879,662.8699068329879,664.2723966659978,left,1.394407832995057,None,,,,,,,,277329,001,2024-12-08_15h14.14.810,Test,2024.2.4,None,2024-12-08 15h15.27.543679 +0100,
35,150,180,1,None,48,48,0,False,,,,left,1.7102720420225523,None,,,,,,,,,,,,,0,48,48,48,664.2880254159681,,,,,,,,,,,,,,,,,,,,,,,,,,,,,,,,,,,,,,,,,,,,,,,,,,,,,,,,,,,,,,,,,,,,,,,,,664.2816196249914,664.2880254159681,665.2864954159595,666.2701331659919,666.2701331659919,666.2701331659919,667.9885787079693,left,1.7102720420225523,None,,,,,,,,277329,001,2024-12-08_15h14.14.810,Test,2024.2.4,None,2024-12-08 15h15.27.543679 +0100,
24,150,120,52,None,49,49,0,False,,,,right,0.8424410839797929,None,,,,,,,,,,,,,0,49,49,49,668.0038350829855,,,,,,,,,,,,,,,,,,,,,,,,,,,,,,,,,,,,,,,,,,,,,,,,,,,,,,,,,,,,,,,,,,,,,,,,,667.9975996660069,668.0038350829855,668.9918108749553,669.9870250829845,669.9870250829845,669.9870250829845,670.8387384159723,right,0.8424410839797929,None,,,,,,,,277329,001,2024-12-08_15h14.14.810,Test,2024.2.4,None,2024-12-08 15h15.27.543679 +0100,
25,150,120,58,None,50,50,0,False,,,,right,0.9443997500347905,None,,,,,,,,,,,,,0,50,50,50,670.8546169159818,,,,,,,,,,,,,,,,,,,,,,,,,,,,,,,,,,,,,,,,,,,,,,,,,,,,,,,,,,,,,,,,,,,,,,,,,670.8482226659544,670.8546169159818,671.8532481659786,672.8367008749628,672.8367008749628,672.8367008749628,673.7887137499638,right,0.9443997500347905,None,,,,,,,,277329,001,2024-12-08_15h14.14.810,Test,2024.2.4,None,2024-12-08 15h15.27.543679 +0100,
42,150,30,6,None,51,51,0,True,,,,left,1.58061699999962,None,,,,,,,,,,,,,0,51,51,51,673.8028029580018,,,,,,,,,,,,,,,,,,,,,,,,,,,,,,,,,,,,,,,,,,,,,,,,,,,,,,,,,,,,,,,,,,,,,,,,,673.7968642080086,673.8028029580018,674.7914002909674,675.7866411249852,675.7866411249852,675.7866411249852,677.3720542909577,left,1.58061699999962,None,,,,,,,,277329,001,2024-12-08_15h14.14.810,Test,2024.2.4,None,2024-12-08 15h15.27.543679 +0100,
32,150,180,60,None,52,52,0,False,,,,left,2.0699186669662595,None,,,,,,,,,,,,,0,52,52,52,677.3879732500063,,,,,,,,,,,,,,,,,,,,,,,,,,,,,,,,,,,,,,,,,,,,,,,,,,,,,,,,,,,,,,,,,,,,,,,,,677.3817952499958,677.3879732500063,678.3865905409912,679.3699613749632,679.3699613749632,679.3699613749632,681.4449389579822,left,2.0699186669662595,None,,,,,,,,277329,001,2024-12-08_15h14.14.810,Test,2024.2.4,None,2024-12-08 15h15.27.543679 +0100,
60,150,120,67,None,53,53,0,True,,,,left,1.7465896669891663,None,,,,,,,,,,,,,0,53,53,53,681.4598248749971,,,,,,,,,,,,,,,,,,,,,,,,,,,,,,,,,,,,,,,,,,,,,,,,,,,,,,,,,,,,,,,,,,,,,,,,,681.4533668329823,681.4598248749971,682.4532747080084,683.4439324159757,683.4439324159757,683.4439324159757,685.1944884159602,left,1.7465896669891663,None,,,,,,,,277329,001,2024-12-08_15h14.14.810,Test,2024.2.4,None,2024-12-08 15h15.27.543679 +0100,
13,150,60,24,None,54,54,0,False,,,,right,0.8774993750266731,None,,,,,,,,,,,,,0,54,54,54,685.2094576659729,,,,,,,,,,,,,,,,,,,,,,,,,,,,,,,,,,,,,,,,,,,,,,,,,,,,,,,,,,,,,,,,,,,,,,,,,685.2032888329704,685.2094576659729,686.203175875009,687.1936467500054,687.1936467500054,687.1936467500054,688.0787642080104,right,0.8774993750266731,None,,,,,,,,277329,001,2024-12-08_15h14.14.810,Test,2024.2.4,None,2024-12-08 15h15.27.543679 +0100,
61,150,150,37,None,55,55,0,True,,,,right,1.2704212499666028,None,,,,,,,,,,,,,0,55,55,55,688.0938204159611,,,,,,,,,,,,,,,,,,,,,,,,,,,,,,,,,,,,,,,,,,,,,,,,,,,,,,,,,,,,,,,,,,,,,,,,,688.0875182079617,688.0938204159611,689.0919223329984,690.0763551659766,690.0763551659766,690.0763551659766,691.3551796659594,right,1.2704212499666028,None,,,,,,,,277329,001,2024-12-08_15h14.14.810,Test,2024.2.4,None,2024-12-08 15h15.27.543679 +0100,
9,150,30,8,None,56,56,0,False,,,,right,0.9404699170263484,None,,,,,,,,,,,,,0,56,56,56,691.3705524159595,,,,,,,,,,,,,,,,,,,,,,,,,,,,,,,,,,,,,,,,,,,,,,,,,,,,,,,,,,,,,,,,,,,,,,,,,691.3641226659529,691.3705524159595,692.3586177499965,693.3533358749701,693.3533358749701,693.3533358749701,694.3054235829622,right,0.9404699170263484,None,,,,,,,,277329,001,2024-12-08_15h14.14.810,Test,2024.2.4,None,2024-12-08 15h15.27.543679 +0100,
69,150,180,20,None,57,57,0,True,,,,left,1.9734790829825215,None,,,,,,,,,,,,,0,57,57,57,694.3215468749986,,,,,,,,,,,,,,,,,,,,,,,,,,,,,,,,,,,,,,,,,,,,,,,,,,,,,,,,,,,,,,,,,,,,,,,,,694.3146309579606,694.3215468749986,695.3199125829851,696.3033628329867,696.3033628329867,696.3033628329867,698.2887169159949,left,1.9734790829825215,None,,,,,,,,277329,001,2024-12-08_15h14.14.810,Test,2024.2.4,None,2024-12-08 15h15.27.543679 +0100,
51,150,90,23,None,58,58,0,True,,,,left,1.775237541005481,None,,,,,,,,,,,,,0,58,58,58,698.3039664579555,,,,,,,,,,,,,,,,,,,,,,,,,,,,,,,,,,,,,,,,,,,,,,,,,,,,,,,,,,,,,,,,,,,,,,,,,698.2976732499665,698.3039664579555,699.2917958329781,700.2866534159984,700.2866534159984,700.2866534159984,702.0720936660073,left,1.775237541005481,None,,,,,,,,277329,001,2024-12-08_15h14.14.810,Test,2024.2.4,None,2024-12-08 15h15.27.543679 +0100,
49,150,60,48,None,59,59,0,True,,,,right,0.9404789169784635,None,,,,,,,,,,,,,0,59,59,59,702.087246082956,,,,,,,,,,,,,,,,,,,,,,,,,,,,,,,,,,,,,,,,,,,,,,,,,,,,,,,,,,,,,,,,,,,,,,,,,702.0811296660104,702.087246082956,703.0743030000012,704.0700932079926,704.0700932079926,704.0700932079926,705.0218864159542,right,0.9404789169784635,None,,,,,,,,277329,001,2024-12-08_15h14.14.810,Test,2024.2.4,None,2024-12-08 15h15.27.543679 +0100,
11,150,60,62,None,60,60,0,False,,,,right,1.0969963750103489,None,,,,,,,,,,,,,0,60,60,60,705.0443667909713,,,,,,,,,,,,,,,,,,,,,,,,,,,,,,,,,,,,,,,,,,,,,,,,,,,,,,,,,,,,,,,,,,,,,,,,,705.0378573749913,705.0443667909713,706.0409694159753,707.018904083001,707.018904083001,707.018904083001,708.1226387909846,right,1.0969963750103489,None,,,,,,,,277329,001,2024-12-08_15h14.14.810,Test,2024.2.4,None,2024-12-08 15h15.27.543679 +0100,
6,150,30,68,None,61,61,0,False,,,,right,1.8684067499707453,None,,,,,,,,,,,,,0,61,61,61,708.1388767079916,,,,,,,,,,,,,,,,,,,,,,,,,,,,,,,,,,,,,,,,,,,,,,,,,,,,,,,,,,,,,,,,,,,,,,,,,708.1326040829881,708.1388767079916,709.1367602910032,710.1200240409817,710.1200240409817,710.1200240409817,711.9946008329862,right,1.8684067499707453,None,,,,,,,,277329,001,2024-12-08_15h14.14.810,Test,2024.2.4,None,2024-12-08 15h15.27.543679 +0100,
19,150,90,46,None,62,62,0,False,,,,right,1.0617438749759458,None,,,,,,,,,,,,,0,62,62,62,712.0105096249608,,,,,,,,,,,,,,,,,,,,,,,,,,,,,,,,,,,,,,,,,,,,,,,,,,,,,,,,,,,,,,,,,,,,,,,,,712.0043783329893,712.0105096249608,713.0094804579858,713.9935374159832,713.9935374159832,713.9935374159832,715.0621737079928,right,1.0617438749759458,None,,,,,,,,277329,001,2024-12-08_15h14.14.810,Test,2024.2.4,None,2024-12-08 15h15.27.543679 +0100,
59,150,120,59,None,63,63,0,True,,,,right,1.4278603750281036,None,,,,,,,,,,,,,0,63,63,63,715.0766915829736,,,,,,,,,,,,,,,,,,,,,,,,,,,,,,,,,,,,,,,,,,,,,,,,,,,,,,,,,,,,,,,,,,,,,,,,,715.0706189579796,715.0766915829736,716.0754065829678,717.0601160829538,717.0601160829538,717.0601160829538,718.4956160410075,right,1.4278603750281036,None,,,,,,,,277329,001,2024-12-08_15h14.14.810,Test,2024.2.4,None,2024-12-08 15h15.27.543679 +0100,
8,150,30,4,None,64,64,0,False,,,,right,2.447004374989774,None,,,,,,,,,,,,,0,64,64,64,718.5110723749967,,,,,,,,,,,,,,,,,,,,,,,,,,,,,,,,,,,,,,,,,,,,,,,,,,,,,,,,,,,,,,,,,,,,,,,,,718.504565124982,718.5110723749967,719.5080310409539,720.4939519579639,720.4939519579639,720.4939519579639,722.9445162909687,right,2.447004374989774,None,,,,,,,,277329,001,2024-12-08_15h14.14.810,Test,2024.2.4,None,2024-12-08 15h15.27.543679 +0100,
54,150,90,22,None,65,65,0,True,,,,right,1.2592607919941656,None,,,,,,,,,,,,,0,65,65,65,722.9591552079655,,,,,,,,,,,,,,,,,,,,,,,,,,,,,,,,,,,,,,,,,,,,,,,,,,,,,,,,,,,,,,,,,,,,,,,,,722.9530163749587,722.9591552079655,723.9532565829577,724.944452332973,724.944452332973,724.944452332973,726.2066564999986,right,1.2592607919941656,None,,,,,,,,277329,001,2024-12-08_15h14.14.810,Test,2024.2.4,None,2024-12-08 15h15.27.543679 +0100,
1,150,0,57,None,66,66,0,False,,,,right,1.3546317919972353,None,,,,,,,,,,,,,0,66,66,66,726.2217845830019,,,,,,,,,,,,,,,,,,,,,,,,,,,,,,,,,,,,,,,,,,,,,,,,,,,,,,,,,,,,,,,,,,,,,,,,,726.215515332995,726.2217845830019,727.2186887079733,728.2034086249769,728.2034086249769,728.2034086249769,729.561948040966,right,1.3546317919972353,None,,,,,,,,277329,001,2024-12-08_15h14.14.810,Test,2024.2.4,None,2024-12-08 15h15.27.543679 +0100,
55,150,90,9,None,67,67,0,True,,,,left,1.8056416250183247,None,,,,,,,,,,,,,0,67,67,67,729.5780785829993,,,,,,,,,,,,,,,,,,,,,,,,,,,,,,,,,,,,,,,,,,,,,,,,,,,,,,,,,,,,,,,,,,,,,,,,,729.5704880830017,729.5780785829993,730.5752674159594,731.5604151659645,731.5604151659645,731.5604151659645,733.3720866660005,left,1.8056416250183247,None,,,,,,,,277329,001,2024-12-08_15h14.14.810,Test,2024.2.4,None,2024-12-08 15h15.27.543679 +0100,
45,150,30,66,None,68,68,0,True,,,,right,2.0306707499548793,None,,,,,,,,,,,,,0,68,68,68,733.3859957910026,,,,,,,,,,,,,,,,,,,,,,,,,,,,,,,,,,,,,,,,,,,,,,,,,,,,,,,,,,,,,,,,,,,,,,,,,733.3797341249883,733.3859957910026,734.3746039579855,735.3700143749593,735.3700143749593,735.3700143749593,737.4053562500048,right,2.0306707499548793,None,,,,,,,,277329,001,2024-12-08_15h14.14.810,Test,2024.2.4,None,2024-12-08 15h15.27.543679 +0100,
30,150,150,11,None,69,69,0,False,,,,right,0.8859931250335649,None,,,,,,,,,,,,,0,69,69,69,737.4243476249976,,,,,,,,,,,,,,,,,,,,,,,,,,,,,,,,,,,,,,,,,,,,,,,,,,,,,,,,,,,,,,,,,,,,,,,,,737.4182590830023,737.4243476249976,738.4198691250058,739.4022172910045,739.4022172910045,739.4022172910045,740.2977109579952,right,0.8859931250335649,None,,,,,,,,277329,001,2024-12-08_15h14.14.810,Test,2024.2.4,None,2024-12-08 15h15.27.543679 +0100,
,,,,,,,,,,,,,,,,,,,,,,,,,,,,,,,,,,,,,,,,,,,,,,,,,,,,,,,,,,,,,,,,,,,,,,,,,,,,,,,,,,,,,,,,,,,,,,,,,,,,,,,,,,,,,,,,,,740.2980156249832,740.305899332976,740.305899332976,743.7843369159964,space,3.4653372920001857,None,277329,001,2024-12-08_15h14.14.810,Test,2024.2.4,None,2024-12-08 15h15.27.543679 +0100,
