Trial_Number,Exposure_Duration,Displacement_Angle,Stimulus,Response,thisN,thisTrialN,thisRepN,Is_Distractor,key_resp_3.keys,key_resp_3.rt,key_resp_3.duration,key_resp_7.keys,key_resp_7.rt,key_resp_7.duration,trials.thisRepN,trials.thisTrialN,trials.thisN,trials.thisIndex,trials_2.thisRepN,trials_2.thisTrialN,trials_2.thisN,trials_2.thisIndex,trials_3.thisRepN,trials_3.thisTrialN,trials_3.thisN,trials_3.thisIndex,trials_4.thisRepN,trials_4.thisTrialN,trials_4.thisN,trials_4.thisIndex,thisRow.t,notes,Intro_to_experiment.started,important1_2.started,key_resp_8.started,Intro_to_experiment.stopped,key_resp_8.keys,key_resp_8.rt,key_resp_8.duration,important.started,important1.started,key_resp_4.started,important.stopped,key_resp_4.keys,key_resp_4.rt,key_resp_4.duration,instruction.started,text_7.started,key_resp_9.started,instruction.stopped,key_resp_9.keys,key_resp_9.rt,key_resp_9.duration,training_trial.started,cross.started,image.started,aperture.started,cross.stopped,image.stopped,aperture.stopped,training_trial.stopped,New_instruction.started,text.started,key_resp_2.started,New_instruction.stopped,key_resp_2.keys,key_resp_2.rt,key_resp_2.duration,test_trial.started,cross2.started,cross2.stopped,image_2.started,key_resp_3.started,aperture_2.started,test_trial.stopped,trials_2.key_resp_3.keys,trials_2.key_resp_3.rt,trials_2.key_resp_3.duration,image_2.stopped,text_3.started,aperture_2.stopped,start_blok_2.started,key_resp_5.started,text_4.started,start_blok_2.stopped,key_resp_5.keys,key_resp_5.rt,key_resp_5.duration,training_2.started,cross_2.started,image_3.started,aperture_3.started,cross_2.stopped,image_3.stopped,aperture_3.stopped,training_2.stopped,nyeste_instruks.started,text_5.started,key_resp_6.started,nyeste_instruks.stopped,key_resp_6.keys,key_resp_6.rt,key_resp_6.duration,test_2.started,cross2_2.started,cross2_2.stopped,image_4.started,key_resp_7.started,aperture_4.started,test_2.stopped,trials_4.key_resp_7.keys,trials_4.key_resp_7.rt,trials_4.key_resp_7.duration,image_4.stopped,text_6.started,aperture_4.stopped,Instruction1.started,Instruktion.started,key_resp.started,Instruction1.stopped,key_resp.keys,key_resp.rt,key_resp.duration,participant,session,date,expName,psychopyVersion,frameRate,expStart,
,,,,,,,,,,,,,,,,,,,,,,,,,,,,,,,,,0.022804883992648683,0.034879642000305466,0.034879642000305466,37.36976022399904,space,37.328068003000226,None,,,,,,,,,,,,,,,,,,,,,,,,,,,,,,,,,,,,,,,,,,,,,,,,,,,,,,,,,,,,,,,,,,,,,,,,,,,,,,,,,,,,,289553,001,2024-12-05_13h26.03.960,Test,2024.2.1,59.38888716502516,2024-12-05 13h26.18.523237 +0100,
,,,,,,,,,,,,,,,,,,,,,,,,,,,,,,,,,,,,,,,,37.369827320988406,37.38472571199236,37.38472571199236,58.170362791992375,space,20.77512462300365,None,,,,,,,,,,,,,,,,,,,,,,,,,,,,,,,,,,,,,,,,,,,,,,,,,,,,,,,,,,,,,,,,,,,,,,,,,,,,,,289553,001,2024-12-05_13h26.03.960,Test,2024.2.1,59.38888716502516,2024-12-05 13h26.18.523237 +0100,
,,,,,,,,,,,,,,,,,,,,,,,,,,,,,,,,,,,,,,,,,,,,,,,58.170420839989674,58.186198582989164,58.186198582989164,78.05617897000047,space,19.857687766998424,None,,,,,,,,,,,,,,,,,,,,,,,,,,,,,,,,,,,,,,,,,,,,,,,,,,,,,,,,,,,,,,,,,,,,,,,289553,001,2024-12-05_13h26.03.960,Test,2024.2.1,59.38888716502516,2024-12-05 13h26.18.523237 +0100,
15,150,60,48,None,0,0,0,,,,,,,,0,0,0,14,,,,,,,,,,,,,78.08264575099747,,,,,,,,,,,,,,,,,,,,,,,78.07368950000091,78.08264575099747,78.2709026579978,78.2709026579978,78.28762507499778,79.97112024399394,79.97112024399394,79.9540836889937,,,,,,,,,,,,,,,,,,,,,,,,,,,,,,,,,,,,,,,,,,,,,,,,,,,,,,,,,,,,,,,289553,001,2024-12-05_13h26.03.960,Test,2024.2.1,59.38888716502516,2024-12-05 13h26.18.523237 +0100,
28,150,150,36,None,1,1,0,,,,,,,,0,1,1,27,,,,,,,,,,,,,79.97112024399394,,,,,,,,,,,,,,,,,,,,,,,79.95998644099745,79.97112024399394,80.17076860398811,80.17076860398811,80.17076860398811,81.87261544099601,81.87261544099601,81.85557205599616,,,,,,,,,,,,,,,,,,,,,,,,,,,,,,,,,,,,,,,,,,,,,,,,,,,,,,,,,,,,,,,289553,001,2024-12-05_13h26.03.960,Test,2024.2.1,59.38888716502516,2024-12-05 13h26.18.523237 +0100,
16,150,90,46,None,2,2,0,,,,,,,,0,2,2,15,,,,,,,,,,,,,81.87261544099601,,,,,,,,,,,,,,,,,,,,,,,81.86417550599435,81.87261544099601,82.07137972899363,82.07137972899363,82.08738935099973,83.77077944899793,83.77077944899793,83.75504612899385,,,,,,,,,,,,,,,,,,,,,,,,,,,,,,,,,,,,,,,,,,,,,,,,,,,,,,,,,,,,,,,289553,001,2024-12-05_13h26.03.960,Test,2024.2.1,59.38888716502516,2024-12-05 13h26.18.523237 +0100,
10,150,30,49,None,3,3,0,,,,,,,,0,3,3,9,,,,,,,,,,,,,83.77077944899793,,,,,,,,,,,,,,,,,,,,,,,83.76124466498732,83.77077944899793,83.97080840099079,83.97080840099079,83.97080840099079,85.67612867699063,85.67612867699063,85.65474881599948,,,,,,,,,,,,,,,,,,,,,,,,,,,,,,,,,,,,,,,,,,,,,,,,,,,,,,,,,,,,,,,289553,001,2024-12-05_13h26.03.960,Test,2024.2.1,59.38888716502516,2024-12-05 13h26.18.523237 +0100,
22,150,120,17,None,4,4,0,,,,,,,,0,4,4,21,,,,,,,,,,,,,85.67612867699063,,,,,,,,,,,,,,,,,,,,,,,85.66937963799865,85.67612867699063,85.85531574999914,85.85531574999914,85.88879866698699,87.55413597499137,87.55413597499137,87.53938015499443,,,,,,,,,,,,,,,,,,,,,,,,,,,,,,,,,,,,,,,,,,,,,,,,,,,,,,,,,,,,,,,289553,001,2024-12-05_13h26.03.960,Test,2024.2.1,59.38888716502516,2024-12-05 13h26.18.523237 +0100,
7,150,30,58,None,5,5,0,,,,,,,,0,5,5,6,,,,,,,,,,,,,87.55413597499137,,,,,,,,,,,,,,,,,,,,,,,87.5454420659953,87.55413597499137,87.7714241270005,87.7714241270005,87.75461510699824,89.47394923699903,89.47394923699903,89.4565868619975,,,,,,,,,,,,,,,,,,,,,,,,,,,,,,,,,,,,,,,,,,,,,,,,,,,,,,,,,,,,,,,289553,001,2024-12-05_13h26.03.960,Test,2024.2.1,59.38888716502516,2024-12-05 13h26.18.523237 +0100,
13,150,60,41,None,6,6,0,,,,,,,,0,6,6,12,,,,,,,,,,,,,89.47394923699903,,,,,,,,,,,,,,,,,,,,,,,89.46616806999373,89.47394923699903,89.65567343498697,89.65567343498697,89.6889033819898,91.35661059699487,91.35661059699487,91.34014007299265,,,,,,,,,,,,,,,,,,,,,,,,,,,,,,,,,,,,,,,,,,,,,,,,,,,,,,,,,,,,,,,289553,001,2024-12-05_13h26.03.960,Test,2024.2.1,59.38888716502516,2024-12-05 13h26.18.523237 +0100,
24,150,120,55,None,7,7,0,,,,,,,,0,7,7,23,,,,,,,,,,,,,91.35661059699487,,,,,,,,,,,,,,,,,,,,,,,91.34827745999792,91.35661059699487,91.55581836900092,91.55581836900092,91.55581836900092,93.25553253499675,93.25553253499675,93.23936286299431,,,,,,,,,,,,,,,,,,,,,,,,,,,,,,,,,,,,,,,,,,,,,,,,,,,,,,,,,,,,,,,289553,001,2024-12-05_13h26.03.960,Test,2024.2.1,59.38888716502516,2024-12-05 13h26.18.523237 +0100,
34,150,180,25,None,8,8,0,,,,,,,,0,8,8,33,,,,,,,,,,,,,93.25553253499675,,,,,,,,,,,,,,,,,,,,,,,93.24692913299077,93.27167884798837,93.45490209799027,93.45490209799027,93.47157614999742,95.15755459498905,95.15755459498905,95.13901888299733,,,,,,,,,,,,,,,,,,,,,,,,,,,,,,,,,,,,,,,,,,,,,,,,,,,,,,,,,,,,,,,289553,001,2024-12-05_13h26.03.960,Test,2024.2.1,59.38888716502516,2024-12-05 13h26.18.523237 +0100,
9,150,30,34,None,9,9,0,,,,,,,,0,9,9,8,,,,,,,,,,,,,95.15755459498905,,,,,,,,,,,,,,,,,,,,,,,95.1487194759975,95.17172908999783,95.35482241499994,95.35482241499994,95.37159007499577,97.06132320799225,97.06132320799225,97.04050558699237,,,,,,,,,,,,,,,,,,,,,,,,,,,,,,,,,,,,,,,,,,,,,,,,,,,,,,,,,,,,,,,289553,001,2024-12-05_13h26.03.960,Test,2024.2.1,59.38888716502516,2024-12-05 13h26.18.523237 +0100,
11,150,60,8,None,10,10,0,,,,,,,,0,10,10,10,,,,,,,,,,,,,97.06132320799225,,,,,,,,,,,,,,,,,,,,,,,97.05377332499484,97.06132320799225,97.256517212998,97.256517212998,97.27275588799966,98.97180708899396,98.97180708899396,98.95595655599027,,,,,,,,,,,,,,,,,,,,,,,,,,,,,,,,,,,,,,,,,,,,,,,,,,,,,,,,,,,,,,,289553,001,2024-12-05_13h26.03.960,Test,2024.2.1,59.38888716502516,2024-12-05 13h26.18.523237 +0100,
26,150,150,56,None,11,11,0,,,,,,,,0,11,11,25,,,,,,,,,,,,,98.97180708899396,,,,,,,,,,,,,,,,,,,,,,,98.96139945299365,98.97180708899396,99.15573370800121,99.15573370800121,99.17227417899994,100.85506506900128,100.85506506900128,100.83987243699085,,,,,,,,,,,,,,,,,,,,,,,,,,,,,,,,,,,,,,,,,,,,,,,,,,,,,,,,,,,,,,,289553,001,2024-12-05_13h26.03.960,Test,2024.2.1,59.38888716502516,2024-12-05 13h26.18.523237 +0100,
1,150,0,6,None,12,12,0,,,,,,,,0,12,12,0,,,,,,,,,,,,,100.85506506900128,,,,,,,,,,,,,,,,,,,,,,,100.84561599799781,100.85506506900128,101.05580397699669,101.05580397699669,101.05580397699669,102.75549370699446,102.75549370699446,102.73964045199682,,,,,,,,,,,,,,,,,,,,,,,,,,,,,,,,,,,,,,,,,,,,,,,,,,,,,,,,,,,,,,,289553,001,2024-12-05_13h26.03.960,Test,2024.2.1,59.38888716502516,2024-12-05 13h26.18.523237 +0100,
18,150,90,10,None,13,13,0,,,,,,,,0,13,13,17,,,,,,,,,,,,,102.75549370699446,,,,,,,,,,,,,,,,,,,,,,,102.7453825900011,102.75549370699446,102.95547911399626,102.95547911399626,102.95547911399626,104.65577186999144,104.65577186999144,104.64008024199575,,,,,,,,,,,,,,,,,,,,,,,,,,,,,,,,,,,,,,,,,,,,,,,,,,,,,,,,,,,,,,,289553,001,2024-12-05_13h26.03.960,Test,2024.2.1,59.38888716502516,2024-12-05 13h26.18.523237 +0100,
17,150,90,35,None,14,14,0,,,,,,,,0,14,14,16,,,,,,,,,,,,,104.65577186999144,,,,,,,,,,,,,,,,,,,,,,,104.64757572500093,104.65577186999144,104.85605870198924,104.85605870198924,104.85605870198924,106.5554085499898,106.5554085499898,106.54006166799809,,,,,,,,,,,,,,,,,,,,,,,,,,,,,,,,,,,,,,,,,,,,,,,,,,,,,,,,,,,,,,,289553,001,2024-12-05_13h26.03.960,Test,2024.2.1,59.38888716502516,2024-12-05 13h26.18.523237 +0100,
20,150,90,37,None,15,15,0,,,,,,,,0,15,15,19,,,,,,,,,,,,,106.5554085499898,,,,,,,,,,,,,,,,,,,,,,,106.54615876899334,106.5554085499898,106.75620531699678,106.75620531699678,106.75620531699678,108.45632538299833,108.45632538299833,108.44045360699238,,,,,,,,,,,,,,,,,,,,,,,,,,,,,,,,,,,,,,,,,,,,,,,,,,,,,,,,,,,,,,,289553,001,2024-12-05_13h26.03.960,Test,2024.2.1,59.38888716502516,2024-12-05 13h26.18.523237 +0100,
23,150,120,66,None,16,16,0,,,,,,,,0,16,16,22,,,,,,,,,,,,,108.45632538299833,,,,,,,,,,,,,,,,,,,,,,,108.44836399499036,108.45632538299833,108.65730838899617,108.65730838899617,108.65730838899617,110.35644614299235,110.35644614299235,110.34074258198962,,,,,,,,,,,,,,,,,,,,,,,,,,,,,,,,,,,,,,,,,,,,,,,,,,,,,,,,,,,,,,,289553,001,2024-12-05_13h26.03.960,Test,2024.2.1,59.38888716502516,2024-12-05 13h26.18.523237 +0100,
2,150,0,61,None,17,17,0,,,,,,,,0,17,17,1,,,,,,,,,,,,,110.35644614299235,,,,,,,,,,,,,,,,,,,,,,,110.3485181779979,110.35644614299235,110.5568992789922,110.5568992789922,110.5568992789922,112.25852454599226,112.25852454599226,112.24145357799716,,,,,,,,,,,,,,,,,,,,,,,,,,,,,,,,,,,,,,,,,,,,,,,,,,,,,,,,,,,,,,,289553,001,2024-12-05_13h26.03.960,Test,2024.2.1,59.38888716502516,2024-12-05 13h26.18.523237 +0100,
6,150,30,12,None,18,18,0,,,,,,,,0,18,18,5,,,,,,,,,,,,,112.25852454599226,,,,,,,,,,,,,,,,,,,,,,,112.25039313799061,112.25852454599226,112.45618955999089,112.45618955999089,112.47286001298926,,,114.15707276799367,,,,,,,,,,,,,,,,,,,,,,,,,,,,,,,,,,,,,,,,,,,,,,,,,,,,,,,,,,,,,,,289553,001,2024-12-05_13h26.03.960,Test,2024.2.1,59.38888716502516,2024-12-05 13h26.18.523237 +0100,
8,150,30,53,None,19,19,0,,,,,,,,0,19,19,7,,,,,,,,,,,,,114.17316143099742,,,,,,,,,,,,,,,,,,,,,,,114.1641543609876,114.17316143099742,114.35679672299011,114.35679672299011,114.37306383499526,116.05999843298923,116.05999843298923,116.04203267299454,,,,,,,,,,,,,,,,,,,,,,,,,,,,,,,,,,,,,,,,,,,,,,,,,,,,,,,,,,,,,,,289553,001,2024-12-05_13h26.03.960,Test,2024.2.1,59.38888716502516,2024-12-05 13h26.18.523237 +0100,
21,150,120,27,None,20,20,0,,,,,,,,0,20,20,20,,,,,,,,,,,,,116.05999843298923,,,,,,,,,,,,,,,,,,,,,,,116.05166512999858,116.05999843298923,116.25656260299729,116.25656260299729,116.27329289799673,117.95651908600121,117.95651908600121,117.94106723798905,,,,,,,,,,,,,,,,,,,,,,,,,,,,,,,,,,,,,,,,,,,,,,,,,,,,,,,,,,,,,,,289553,001,2024-12-05_13h26.03.960,Test,2024.2.1,59.38888716502516,2024-12-05 13h26.18.523237 +0100,
14,150,60,65,None,21,21,0,,,,,,,,0,21,21,13,,,,,,,,,,,,,117.95651908600121,,,,,,,,,,,,,,,,,,,,,,,117.94855022498814,117.95651908600121,118.15672341299069,118.15672341299069,118.15672341299069,119.8605143869936,119.8605143869936,119.8425331509934,,,,,,,,,,,,,,,,,,,,,,,,,,,,,,,,,,,,,,,,,,,,,,,,,,,,,,,,,,,,,,,289553,001,2024-12-05_13h26.03.960,Test,2024.2.1,59.38888716502516,2024-12-05 13h26.18.523237 +0100,
31,150,180,45,None,22,22,0,,,,,,,,0,22,22,30,,,,,,,,,,,,,119.8605143869936,,,,,,,,,,,,,,,,,,,,,,,119.85237936099293,119.8605143869936,120.05748506699456,120.05748506699456,120.07451550499536,121.75669633899815,121.75669633899815,121.74091965699336,,,,,,,,,,,,,,,,,,,,,,,,,,,,,,,,,,,,,,,,,,,,,,,,,,,,,,,,,,,,,,,289553,001,2024-12-05_13h26.03.960,Test,2024.2.1,59.38888716502516,2024-12-05 13h26.18.523237 +0100,
4,150,0,68,None,23,23,0,,,,,,,,0,23,23,3,,,,,,,,,,,,,121.75669633899815,,,,,,,,,,,,,,,,,,,,,,,121.74608865698974,121.75669633899815,121.95694551599445,121.95694551599445,121.95694551599445,123.65653541999927,123.65653541999927,123.64095076199737,,,,,,,,,,,,,,,,,,,,,,,,,,,,,,,,,,,,,,,,,,,,,,,,,,,,,,,,,,,,,,,289553,001,2024-12-05_13h26.03.960,Test,2024.2.1,59.38888716502516,2024-12-05 13h26.18.523237 +0100,
19,150,90,22,None,24,24,0,,,,,,,,0,24,24,18,,,,,,,,,,,,,123.65653541999927,,,,,,,,,,,,,,,,,,,,,,,123.64749611899606,123.65653541999927,123.85726759200043,123.85726759200043,123.85726759200043,125.55694321398914,125.55694321398914,125.54107296999427,,,,,,,,,,,,,,,,,,,,,,,,,,,,,,,,,,,,,,,,,,,,,,,,,,,,,,,,,,,,,,,289553,001,2024-12-05_13h26.03.960,Test,2024.2.1,59.38888716502516,2024-12-05 13h26.18.523237 +0100,
30,150,150,40,None,25,25,0,,,,,,,,0,25,25,29,,,,,,,,,,,,,125.55694321398914,,,,,,,,,,,,,,,,,,,,,,,125.54674030499882,125.55694321398914,125.75763642699167,125.75763642699167,125.75763642699167,127.46045548799157,127.46045548799157,127.44253149699944,,,,,,,,,,,,,,,,,,,,,,,,,,,,,,,,,,,,,,,,,,,,,,,,,,,,,,,,,,,,,,,289553,001,2024-12-05_13h26.03.960,Test,2024.2.1,59.38888716502516,2024-12-05 13h26.18.523237 +0100,
35,150,180,23,None,26,26,0,,,,,,,,0,26,26,34,,,,,,,,,,,,,127.46045548799157,,,,,,,,,,,,,,,,,,,,,,,127.45212471399282,127.46045548799157,127.65815030199883,127.65815030199883,127.67478090598888,129.357609210987,129.357609210987,129.34197740598756,,,,,,,,,,,,,,,,,,,,,,,,,,,,,,,,,,,,,,,,,,,,,,,,,,,,,,,,,,,,,,,289553,001,2024-12-05_13h26.03.960,Test,2024.2.1,59.38888716502516,2024-12-05 13h26.18.523237 +0100,
3,150,0,39,None,27,27,0,,,,,,,,0,27,27,2,,,,,,,,,,,,,129.357609210987,,,,,,,,,,,,,,,,,,,,,,,129.3497325599892,129.357609210987,129.55748416899587,129.55748416899587,129.55748416899587,131.25750114099355,131.25750114099355,131.24155600499944,,,,,,,,,,,,,,,,,,,,,,,,,,,,,,,,,,,,,,,,,,,,,,,,,,,,,,,,,,,,,,,289553,001,2024-12-05_13h26.03.960,Test,2024.2.1,59.38888716502516,2024-12-05 13h26.18.523237 +0100,
29,150,150,43,None,28,28,0,,,,,,,,0,28,28,28,,,,,,,,,,,,,131.25750114099355,,,,,,,,,,,,,,,,,,,,,,,131.24757003498962,131.25750114099355,131.45794904598733,131.45794904598733,131.45794904598733,133.15783277599257,133.15783277599257,133.1422842030006,,,,,,,,,,,,,,,,,,,,,,,,,,,,,,,,,,,,,,,,,,,,,,,,,,,,,,,,,,,,,,,289553,001,2024-12-05_13h26.03.960,Test,2024.2.1,59.38888716502516,2024-12-05 13h26.18.523237 +0100,
32,150,180,18,None,29,29,0,,,,,,,,0,29,29,31,,,,,,,,,,,,,133.15783277599257,,,,,,,,,,,,,,,,,,,,,,,133.14978610599064,133.15783277599257,133.35829085399746,133.35829085399746,133.35829085399746,135.05792902399844,135.05792902399844,135.04195777299174,,,,,,,,,,,,,,,,,,,,,,,,,,,,,,,,,,,,,,,,,,,,,,,,,,,,,,,,,,,,,,,289553,001,2024-12-05_13h26.03.960,Test,2024.2.1,59.38888716502516,2024-12-05 13h26.18.523237 +0100,
27,150,150,15,None,30,30,0,,,,,,,,0,30,30,26,,,,,,,,,,,,,135.05792902399844,,,,,,,,,,,,,,,,,,,,,,,135.04892297300103,135.05792902399844,135.25836892599182,135.25836892599182,135.25836892599182,136.95775829099875,136.95775829099875,136.94233951199567,,,,,,,,,,,,,,,,,,,,,,,,,,,,,,,,,,,,,,,,,,,,,,,,,,,,,,,,,,,,,,,289553,001,2024-12-05_13h26.03.960,Test,2024.2.1,59.38888716502516,2024-12-05 13h26.18.523237 +0100,
33,150,180,38,None,31,31,0,,,,,,,,0,31,31,32,,,,,,,,,,,,,136.95775829099875,,,,,,,,,,,,,,,,,,,,,,,136.94963457899576,136.95775829099875,137.15886771900114,137.15886771900114,137.15886771900114,138.85738503199536,138.85738503199536,138.84243548099766,,,,,,,,,,,,,,,,,,,,,,,,,,,,,,,,,,,,,,,,,,,,,,,,,,,,,,,,,,,,,,,289553,001,2024-12-05_13h26.03.960,Test,2024.2.1,59.38888716502516,2024-12-05 13h26.18.523237 +0100,
25,150,120,64,None,32,32,0,,,,,,,,0,32,32,24,,,,,,,,,,,,,138.85738503199536,,,,,,,,,,,,,,,,,,,,,,,138.84842403999937,138.85738503199536,139.0583620529942,139.0583620529942,139.0583620529942,140.75831693699,140.75831693699,140.74320122398785,,,,,,,,,,,,,,,,,,,,,,,,,,,,,,,,,,,,,,,,,,,,,,,,,,,,,,,,,,,,,,,289553,001,2024-12-05_13h26.03.960,Test,2024.2.1,59.38888716502516,2024-12-05 13h26.18.523237 +0100,
12,150,60,14,None,33,33,0,,,,,,,,0,33,33,11,,,,,,,,,,,,,140.75831693699,,,,,,,,,,,,,,,,,,,,,,,140.74884885799838,140.75831693699,140.95820198,140.95820198,140.95820198,142.6595516019879,142.6595516019879,142.64349158298864,,,,,,,,,,,,,,,,,,,,,,,,,,,,,,,,,,,,,,,,,,,,,,,,,,,,,,,,,,,,,,,289553,001,2024-12-05_13h26.03.960,Test,2024.2.1,59.38888716502516,2024-12-05 13h26.18.523237 +0100,
5,150,0,4,None,34,34,0,,,,,,,,0,34,34,4,,,,,,,,,,,,,142.6595516019879,,,,,,,,,,,,,,,,,,,,,,,142.6511454989959,142.6595516019879,142.85832687899529,142.85832687899529,142.85832687899529,144.55842944199685,144.55842944199685,144.54248116099916,,,,,,,,,,,,,,,,,,,,,,,,,,,,,,,,,,,,,,,,,,,,,,,,,,,,,,,,,,,,,,,289553,001,2024-12-05_13h26.03.960,Test,2024.2.1,59.38888716502516,2024-12-05 13h26.18.523237 +0100,
,,,,,,,,,,,,,,,,,,,,,,,,,,,,,,,,,,,,,,,,,,,,,,,,,,,,,,,,,,,,,,144.5426563410001,144.55842944199685,144.55842944199685,155.2104612969997,space,10.640448467005626,None,,,,,,,,,,,,,,,,,,,,,,,,,,,,,,,,,,,,,,,,,,,,,,,,,,,,,,,,289553,001,2024-12-05_13h26.03.960,Test,2024.2.1,59.38888716502516,2024-12-05 13h26.18.523237 +0100,
39,150,0,2,None,0,0,0,True,left,1.2547349899978144,None,,,,,,,,0,0,0,0,,,,,,,,,155.2350691719912,,,,,,,,,,,,,,,,,,,,,,,,,,,,,,,,,,,,,,155.2259363639896,155.2350691719912,156.24283261899836,157.20926313399104,157.20926313399104,157.20926313399104,158.4782714479952,left,1.2547349899978144,None,,,,,,,,,,,,,,,,,,,,,,,,,,,,,,,,,,,,,,,,,,,,,,289553,001,2024-12-05_13h26.03.960,Test,2024.2.1,59.38888716502516,2024-12-05 13h26.18.523237 +0100,
30,150,150,40,None,1,1,0,False,right,1.1526795329991728,None,,,,,,,,0,1,1,1,,,,,,,,,158.50771599198924,,,,,,,,,,,,,,,,,,,,,,,,,,,,,,,,,,,,,,158.48164589599764,158.50771599198924,159.50994424399687,160.49352392699802,160.49352392699802,160.49352392699802,161.6620201170008,right,1.1526795329991728,None,,,,,,,,,,,,,,,,,,,,,,,,,,,,,,,,,,,,,,,,,,,,,,289553,001,2024-12-05_13h26.03.960,Test,2024.2.1,59.38888716502516,2024-12-05 13h26.18.523237 +0100,
2,150,0,61,None,2,2,0,False,right,0.8143988550000358,None,,,,,,,,0,2,2,2,,,,,,,,,161.67587596298836,,,,,,,,,,,,,,,,,,,,,,,,,,,,,,,,,,,,,,161.6655228449963,161.67587596298836,162.67644417299016,163.67775576098938,163.67775576098938,163.67775576098938,164.49591016299382,right,0.8143988550000358,None,,,,,,,,,,,,,,,,,,,,,,,,,,,,,,,,,,,,,,,,,,,,,,289553,001,2024-12-05_13h26.03.960,Test,2024.2.1,59.38888716502516,2024-12-05 13h26.18.523237 +0100,
16,150,90,46,None,3,3,0,False,right,0.8715498649980873,None,,,,,,,,0,3,3,3,,,,,,,,,164.5094226069923,,,,,,,,,,,,,,,,,,,,,,,,,,,,,,,,,,,,,,164.49927437400038,164.5094226069923,165.51042557098845,166.51050969099742,166.51050969099742,166.51050969099742,167.3956526099937,right,0.8715498649980873,None,,,,,,,,,,,,,,,,,,,,,,,,,,,,,,,,,,,,,,,,,,,,,,289553,001,2024-12-05_13h26.03.960,Test,2024.2.1,59.38888716502516,2024-12-05 13h26.18.523237 +0100,
46,150,60,70,None,4,4,0,True,left,1.276139059002162,None,,,,,,,,0,4,4,4,,,,,,,,,167.41093736799667,,,,,,,,,,,,,,,,,,,,,,,,,,,,,,,,,,,,,,167.40265647399065,167.41093736799667,168.41036231500038,169.41064292399096,169.41064292399096,169.41064292399096,170.69596713899227,left,1.276139059002162,None,,,,,,,,,,,,,,,,,,,,,,,,,,,,,,,,,,,,,,,,,,,,,,289553,001,2024-12-05_13h26.03.960,Test,2024.2.1,59.38888716502516,2024-12-05 13h26.18.523237 +0100,
15,150,60,48,None,5,5,0,False,right,0.8977510660042753,None,,,,,,,,0,5,5,5,,,,,,,,,170.7100364689977,,,,,,,,,,,,,,,,,,,,,,,,,,,,,,,,,,,,,,170.6995842819888,170.7100364689977,171.71052574498754,172.71086290599487,172.71086290599487,172.71086290599487,173.61254553899926,right,0.8977510660042753,None,,,,,,,,,,,,,,,,,,,,,,,,,,,,,,,,,,,,,,,,,,,,,,289553,001,2024-12-05_13h26.03.960,Test,2024.2.1,59.38888716502516,2024-12-05 13h26.18.523237 +0100,
11,150,60,8,None,6,6,0,False,right,0.750202809998882,None,,,,,,,,0,6,6,6,,,,,,,,,173.62714309198782,,,,,,,,,,,,,,,,,,,,,,,,,,,,,,,,,,,,,,173.61602562500047,173.62714309198782,174.62772476900136,175.62771792899002,175.62771792899002,175.62771792899002,176.38043480999477,right,0.750202809998882,None,,,,,,,,,,,,,,,,,,,,,,,,,,,,,,,,,,,,,,,,,,,,,,289553,001,2024-12-05_13h26.03.960,Test,2024.2.1,59.38888716502516,2024-12-05 13h26.18.523237 +0100,
8,150,30,53,None,7,7,0,False,right,0.85166993799794,None,,,,,,,,0,7,7,7,,,,,,,,,176.3937341569981,,,,,,,,,,,,,,,,,,,,,,,,,,,,,,,,,,,,,,176.38401424999756,176.3937341569981,177.3939695779991,178.39387426699977,178.39387426699977,178.39387426699977,179.26318759498827,right,0.85166993799794,None,,,,,,,,,,,,,,,,,,,,,,,,,,,,,,,,,,,,,,,,,,,,,,289553,001,2024-12-05_13h26.03.960,Test,2024.2.1,59.38888716502516,2024-12-05 13h26.18.523237 +0100,
40,150,0,32,None,8,8,0,True,left,1.0892656200012425,None,,,,,,,,0,8,8,8,,,,,,,,,179.27989884199633,,,,,,,,,,,,,,,,,,,,,,,,,,,,,,,,,,,,,,179.27079648499785,179.27989884199633,180.29450194699166,181.27750409499276,181.27750409499276,181.27750409499276,182.3797028199915,left,1.0892656200012425,None,,,,,,,,,,,,,,,,,,,,,,,,,,,,,,,,,,,,,,,,,,,,,,289553,001,2024-12-05_13h26.03.960,Test,2024.2.1,59.38888716502516,2024-12-05 13h26.18.523237 +0100,
24,150,120,55,None,9,9,0,False,right,0.7727402669988805,None,,,,,,,,0,9,9,9,,,,,,,,,182.3944398780004,,,,,,,,,,,,,,,,,,,,,,,,,,,,,,,,,,,,,,182.3833335669915,182.3944398780004,183.3944599509996,184.37872728199,184.37872728199,184.37872728199,185.163450077991,right,0.7727402669988805,None,,,,,,,,,,,,,,,,,,,,,,,,,,,,,,,,,,,,,,,,,,,,,,289553,001,2024-12-05_13h26.03.960,Test,2024.2.1,59.38888716502516,2024-12-05 13h26.18.523237 +0100,
38,150,0,1,None,10,10,0,True,left,1.0811974100070074,None,,,,,,,,0,10,10,10,,,,,,,,,185.17955114800134,,,,,,,,,,,,,,,,,,,,,,,,,,,,,,,,,,,,,,185.17088977099047,185.17955114800134,186.19523960999504,187.17797400799464,187.17797400799464,187.17797400799464,188.2635833719978,left,1.0811974100070074,None,,,,,,,,,,,,,,,,,,,,,,,,,,,,,,,,,,,,,,,,,,,,,,289553,001,2024-12-05_13h26.03.960,Test,2024.2.1,59.38888716502516,2024-12-05 13h26.18.523237 +0100,
62,150,150,42,None,11,11,0,True,right,1.2348048490093788,None,,,,,,,,0,11,11,11,,,,,,,,,188.2784698339965,,,,,,,,,,,,,,,,,,,,,,,,,,,,,,,,,,,,,,188.26962705199549,188.2784698339965,189.27846337399387,190.2793992730003,190.2793992730003,190.2793992730003,191.5304412879923,right,1.2348048490093788,None,,,,,,,,,,,,,,,,,,,,,,,,,,,,,,,,,,,,,,,,,,,,,,289553,001,2024-12-05_13h26.03.960,Test,2024.2.1,59.38888716502516,2024-12-05 13h26.18.523237 +0100,
42,150,30,44,None,12,12,0,True,right,0.7869084510020912,None,,,,,,,,0,12,12,12,,,,,,,,,191.56046932798927,,,,,,,,,,,,,,,,,,,,,,,,,,,,,,,,,,,,,,191.53721321599733,191.56046932798927,192.56176012399374,193.54511860699859,193.54511860699859,193.54511860699859,194.34746260999236,right,0.7869084510020912,None,,,,,,,,,,,,,,,,,,,,,,,,,,,,,,,,,,,,,,,,,,,,,,289553,001,2024-12-05_13h26.03.960,Test,2024.2.1,59.38888716502516,2024-12-05 13h26.18.523237 +0100,
68,150,180,63,None,13,13,0,True,right,1.0404337129875785,None,,,,,,,,0,13,13,13,,,,,,,,,194.36380624798767,,,,,,,,,,,,,,,,,,,,,,,,,,,,,,,,,,,,,,194.35496804599825,194.36380624798767,195.37845549698977,196.36205135799537,196.36205135799537,196.36205135799537,197.4137618829991,right,1.0404337129875785,None,,,,,,,,,,,,,,,,,,,,,,,,,,,,,,,,,,,,,,,,,,,,,,289553,001,2024-12-05_13h26.03.960,Test,2024.2.1,59.38888716502516,2024-12-05 13h26.18.523237 +0100,
23,150,120,66,None,14,14,0,False,left,1.5218775950052077,None,,,,,,,,0,14,14,14,,,,,,,,,197.42989747998945,,,,,,,,,,,,,,,,,,,,,,,,,,,,,,,,,,,,,,197.4206546619971,197.42989747998945,198.42983513099898,199.42877826999757,199.42877826999757,199.42877826999757,200.96353391399316,left,1.5218775950052077,None,,,,,,,,,,,,,,,,,,,,,,,,,,,,,,,,,,,,,,,,,,,,,,289553,001,2024-12-05_13h26.03.960,Test,2024.2.1,59.38888716502516,2024-12-05 13h26.18.523237 +0100,
47,150,60,59,None,15,15,0,True,left,1.5096745780028868,None,,,,,,,,0,15,15,15,,,,,,,,,200.98029840999516,,,,,,,,,,,,,,,,,,,,,,,,,,,,,,,,,,,,,,200.97099914599676,200.98029840999516,201.996662739999,202.9624253649963,202.9624253649963,202.9624253649963,204.48108935898927,left,1.5096745780028868,None,,,,,,,,,,,,,,,,,,,,,,,,,,,,,,,,,,,,,,,,,,,,,,289553,001,2024-12-05_13h26.03.960,Test,2024.2.1,59.38888716502516,2024-12-05 13h26.18.523237 +0100,
52,150,90,28,None,16,16,0,True,right,1.0192951490025735,None,,,,,,,,0,16,16,16,,,,,,,,,204.51136187599332,,,,,,,,,,,,,,,,,,,,,,,,,,,,,,,,,,,,,,204.48830898400047,204.51136187599332,205.51273414799653,206.49617345399747,206.49617345399747,206.49617345399747,207.5299973749934,right,1.0192951490025735,None,,,,,,,,,,,,,,,,,,,,,,,,,,,,,,,,,,,,,,,,,,,,,,289553,001,2024-12-05_13h26.03.960,Test,2024.2.1,59.38888716502516,2024-12-05 13h26.18.523237 +0100,
35,150,180,23,None,17,17,0,False,right,2.1267674370028544,None,,,,,,,,0,17,17,17,,,,,,,,,207.54632162398775,,,,,,,,,,,,,,,,,,,,,,,,,,,,,,,,,,,,,,207.53651755600004,207.54632162398775,208.5462831959885,209.52981108699169,209.52981108699169,209.52981108699169,211.66489659898798,right,2.1267674370028544,None,,,,,,,,,,,,,,,,,,,,,,,,,,,,,,,,,,,,,,,,,,,,,,289553,001,2024-12-05_13h26.03.960,Test,2024.2.1,59.38888716502516,2024-12-05 13h26.18.523237 +0100,
49,150,60,69,None,18,18,0,True,left,1.6840459889936028,None,,,,,,,,0,18,18,18,,,,,,,,,211.68024233299366,,,,,,,,,,,,,,,,,,,,,,,,,,,,,,,,,,,,,,211.67240779499116,211.68024233299366,212.68041886900028,213.68057308899006,213.68057308899006,213.68057308899006,215.38231062699924,left,1.6840459889936028,None,,,,,,,,,,,,,,,,,,,,,,,,,,,,,,,,,,,,,,,,,,,,,,289553,001,2024-12-05_13h26.03.960,Test,2024.2.1,59.38888716502516,2024-12-05 13h26.18.523237 +0100,
65,150,150,52,None,19,19,0,True,left,1.052221528996597,None,,,,,,,,0,19,19,19,,,,,,,,,215.39819456799887,,,,,,,,,,,,,,,,,,,,,,,,,,,,,,,,,,,,,,215.38937469699886,215.39819456799887,216.4133823549928,217.39735939299862,217.39735939299862,217.39735939299862,218.46593255198968,left,1.052221528996597,None,,,,,,,,,,,,,,,,,,,,,,,,,,,,,,,,,,,,,,,,,,,,,,289553,001,2024-12-05_13h26.03.960,Test,2024.2.1,59.38888716502516,2024-12-05 13h26.18.523237 +0100,
69,150,180,9,None,20,20,0,True,right,2.468540599991684,None,,,,,,,,0,20,20,20,,,,,,,,,218.4822947549983,,,,,,,,,,,,,,,,,,,,,,,,,,,,,,,,,,,,,,218.47352493699873,218.4822947549983,219.496881346,220.48068529099692,220.48068529099692,220.48068529099692,222.96594622598786,right,2.468540599991684,None,,,,,,,,,,,,,,,,,,,,,,,,,,,,,,,,,,,,,,,,,,,,,,289553,001,2024-12-05_13h26.03.960,Test,2024.2.1,59.38888716502516,2024-12-05 13h26.18.523237 +0100,
54,150,90,21,None,21,21,0,True,left,1.0554448820039397,None,,,,,,,,0,21,21,21,,,,,,,,,222.9812364029931,,,,,,,,,,,,,,,,,,,,,,,,,,,,,,,,,,,,,,222.97255580799538,222.9812364029931,223.98148257099092,224.9805884279922,224.9805884279922,224.9805884279922,226.0484708849981,left,1.0554448820039397,None,,,,,,,,,,,,,,,,,,,,,,,,,,,,,,,,,,,,,,,,,,,,,,289553,001,2024-12-05_13h26.03.960,Test,2024.2.1,59.38888716502516,2024-12-05 13h26.18.523237 +0100,
53,150,90,62,None,22,22,0,True,left,1.4758167559921276,None,,,,,,,,0,22,22,22,,,,,,,,,226.06453293099185,,,,,,,,,,,,,,,,,,,,,,,,,,,,,,,,,,,,,,226.05468155098788,226.06453293099185,227.06369150200044,228.0474067539908,228.0474067539908,228.0474067539908,229.53788594198704,left,1.4758167559921276,None,,,,,,,,,,,,,,,,,,,,,,,,,,,,,,,,,,,,,,,,,,,,,,289553,001,2024-12-05_13h26.03.960,Test,2024.2.1,59.38888716502516,2024-12-05 13h26.18.523237 +0100,
29,150,150,43,None,23,23,0,False,left,1.5685274550050963,None,,,,,,,,0,23,23,23,,,,,,,,,229.5562322439946,,,,,,,,,,,,,,,,,,,,,,,,,,,,,,,,,,,,,,229.54280957998708,229.5562322439946,230.56432757400034,231.5477107899933,231.5477107899933,231.5477107899933,233.1326439419936,left,1.5685274550050963,None,,,,,,,,,,,,,,,,,,,,,,,,,,,,,,,,,,,,,,,,,,,,,,289553,001,2024-12-05_13h26.03.960,Test,2024.2.1,59.38888716502516,2024-12-05 13h26.18.523237 +0100,
56,150,120,16,None,24,24,0,True,right,1.3413954459974775,None,,,,,,,,0,24,24,24,,,,,,,,,233.14832066898816,,,,,,,,,,,,,,,,,,,,,,,,,,,,,,,,,,,,,,233.13958747999277,233.14832066898816,234.14795211498858,235.1322132829955,235.1322132829955,235.1322132829955,236.48263880299055,right,1.3413954459974775,None,,,,,,,,,,,,,,,,,,,,,,,,,,,,,,,,,,,,,,,,,,,,,,289553,001,2024-12-05_13h26.03.960,Test,2024.2.1,59.38888716502516,2024-12-05 13h26.18.523237 +0100,
61,150,150,51,None,25,25,0,True,right,1.4423024910065578,None,,,,,,,,0,25,25,25,,,,,,,,,236.49807101298939,,,,,,,,,,,,,,,,,,,,,,,,,,,,,,,,,,,,,,236.48788574698847,236.49807101298939,237.4989832729916,238.48256960698927,238.48256960698927,238.48256960698927,239.93270551098976,right,1.4423024910065578,None,,,,,,,,,,,,,,,,,,,,,,,,,,,,,,,,,,,,,,,,,,,,,,289553,001,2024-12-05_13h26.03.960,Test,2024.2.1,59.38888716502516,2024-12-05 13h26.18.523237 +0100,
41,150,30,19,None,26,26,0,True,left,1.5178495829895837,None,,,,,,,,0,26,26,26,,,,,,,,,239.9491105749912,,,,,,,,,,,,,,,,,,,,,,,,,,,,,,,,,,,,,,239.939965010999,239.9491105749912,240.94833684100013,241.93213523300074,241.93213523300074,241.93213523300074,243.46752208599355,left,1.5178495829895837,None,,,,,,,,,,,,,,,,,,,,,,,,,,,,,,,,,,,,,,,,,,,,,,289553,001,2024-12-05_13h26.03.960,Test,2024.2.1,59.38888716502516,2024-12-05 13h26.18.523237 +0100,
66,150,180,60,None,27,27,0,True,right,1.0506531050050398,None,,,,,,,,0,27,27,27,,,,,,,,,243.4827941609983,,,,,,,,,,,,,,,,,,,,,,,,,,,,,,,,,,,,,,243.47341927299567,243.4827941609983,244.4822151739936,245.48195925400069,245.48195925400069,245.48195925400069,246.53508490299282,right,1.0506531050050398,None,,,,,,,,,,,,,,,,,,,,,,,,,,,,,,,,,,,,,,,,,,,,,,289553,001,2024-12-05_13h26.03.960,Test,2024.2.1,59.38888716502516,2024-12-05 13h26.18.523237 +0100,
59,150,120,30,None,28,28,0,True,left,1.2670273719995748,None,,,,,,,,0,28,28,28,,,,,,,,,246.54919158898701,,,,,,,,,,,,,,,,,,,,,,,,,,,,,,,,,,,,,,246.54057235199434,246.54919158898701,247.54864733399882,248.54884364698955,248.54884364698955,248.54884364698955,249.8186664609966,left,1.2670273719995748,None,,,,,,,,,,,,,,,,,,,,,,,,,,,,,,,,,,,,,,,,,,,,,,289553,001,2024-12-05_13h26.03.960,Test,2024.2.1,59.38888716502516,2024-12-05 13h26.18.523237 +0100,
19,150,90,22,None,29,29,0,False,right,1.1868287450051866,None,,,,,,,,0,29,29,29,,,,,,,,,249.83356440698844,,,,,,,,,,,,,,,,,,,,,,,,,,,,,,,,,,,,,,249.82393583499652,249.83356440698844,250.83366627199575,251.83362761499302,251.83362761499302,251.83362761499302,253.03472945500107,right,1.1868287450051866,None,,,,,,,,,,,,,,,,,,,,,,,,,,,,,,,,,,,,,,,,,,,,,,289553,001,2024-12-05_13h26.03.960,Test,2024.2.1,59.38888716502516,2024-12-05 13h26.18.523237 +0100,
48,150,60,7,None,30,30,0,True,right,1.604366655999911,None,,,,,,,,0,30,30,30,,,,,,,,,253.04980594899098,,,,,,,,,,,,,,,,,,,,,,,,,,,,,,,,,,,,,,253.0412873479945,253.04980594899098,254.04931836298783,255.05037479900056,255.05037479900056,255.05037479900056,256.6676276049984,right,1.604366655999911,None,,,,,,,,,,,,,,,,,,,,,,,,,,,,,,,,,,,,,,,,,,,,,,289553,001,2024-12-05_13h26.03.960,Test,2024.2.1,59.38888716502516,2024-12-05 13h26.18.523237 +0100,
3,150,0,39,None,31,31,0,False,right,1.3353499289951287,None,,,,,,,,0,31,31,31,,,,,,,,,256.683618665993,,,,,,,,,,,,,,,,,,,,,,,,,,,,,,,,,,,,,,256.675268957988,256.683618665993,257.6833748659992,258.6831639209995,258.6831639209995,258.6831639209995,260.0223048879998,right,1.3353499289951287,None,,,,,,,,,,,,,,,,,,,,,,,,,,,,,,,,,,,,,,,,,,,,,,289553,001,2024-12-05_13h26.03.960,Test,2024.2.1,59.38888716502516,2024-12-05 13h26.18.523237 +0100,
12,150,60,14,None,32,32,0,False,left,1.0009600999910617,None,,,,,,,,0,32,32,32,,,,,,,,,260.03574538799876,,,,,,,,,,,,,,,,,,,,,,,,,,,,,,,,,,,,,,260.0276588419947,260.03574538799876,261.05044904099486,262.03324402899307,262.03324402899307,262.03324402899307,263.0513927839929,left,1.0009600999910617,None,,,,,,,,,,,,,,,,,,,,,,,,,,,,,,,,,,,,,,,,,,,,,,289553,001,2024-12-05_13h26.03.960,Test,2024.2.1,59.38888716502516,2024-12-05 13h26.18.523237 +0100,
63,150,150,20,None,33,33,0,True,left,2.030771689998801,None,,,,,,,,0,33,33,33,,,,,,,,,263.0672459919879,,,,,,,,,,,,,,,,,,,,,,,,,,,,,,,,,,,,,,263.05882664199453,263.0672459919879,264.06707870699756,265.0508965189947,265.0508965189947,265.0508965189947,267.08857193699805,left,2.030771689998801,None,,,,,,,,,,,,,,,,,,,,,,,,,,,,,,,,,,,,,,,,,,,,,,289553,001,2024-12-05_13h26.03.960,Test,2024.2.1,59.38888716502516,2024-12-05 13h26.18.523237 +0100,
28,150,150,36,None,34,34,0,False,right,1.5213403009984177,None,,,,,,,,0,34,34,34,,,,,,,,,267.10364042199217,,,,,,,,,,,,,,,,,,,,,,,,,,,,,,,,,,,,,,267.09365334399627,267.10364042199217,268.1170100099989,269.10113197499595,269.10113197499595,269.10113197499595,270.6360773179913,right,1.5213403009984177,None,,,,,,,,,,,,,,,,,,,,,,,,,,,,,,,,,,,,,,,,,,,,,,289553,001,2024-12-05_13h26.03.960,Test,2024.2.1,59.38888716502516,2024-12-05 13h26.18.523237 +0100,
21,150,120,27,None,35,35,0,False,right,1.2302931470039766,None,,,,,,,,0,35,35,35,,,,,,,,,270.6524561999977,,,,,,,,,,,,,,,,,,,,,,,,,,,,,,,,,,,,,,270.64335218998895,270.6524561999977,271.66824220299895,272.65174163499614,272.65174163499614,272.65174163499614,273.88639157298894,right,1.2302931470039766,None,,,,,,,,,,,,,,,,,,,,,,,,,,,,,,,,,,,,,,,,,,,,,,289553,001,2024-12-05_13h26.03.960,Test,2024.2.1,59.38888716502516,2024-12-05 13h26.18.523237 +0100,
67,150,180,26,None,36,36,0,True,right,15.674801100991317,None,,,,,,,,0,36,36,36,,,,,,,,,273.90199167600076,,,,,,,,,,,,,,,,,,,,,,,,,,,,,,,,,,,,,,273.8938385639922,273.90199167600076,274.90178679299424,275.90113875298994,275.90113875298994,275.90113875298994,291.5868845459918,right,15.674801100991317,None,278.9011243040004,278.9011243040004,278.9011243040004,,,,,,,,,,,,,,,,,,,,,,,,,,,,,,,,,,,,,,,,,,,289553,001,2024-12-05_13h26.03.960,Test,2024.2.1,59.38888716502516,2024-12-05 13h26.18.523237 +0100,
5,150,0,4,None,37,37,0,False,right,0.7597870690078707,None,,,,,,,,0,37,37,37,,,,,,,,,291.60312917600095,,,,,,,,,,,,,,,,,,,,,,,,,,,,,,,,,,,,,,291.5940982049942,291.60312917600095,292.61875260098896,293.60174447100144,293.60174447100144,293.60174447100144,294.3700763909874,right,0.7597870690078707,None,,,,,,,,,,,,,,,,,,,,,,,,,,,,,,,,,,,,,,,,,,,,,,289553,001,2024-12-05_13h26.03.960,Test,2024.2.1,59.38888716502516,2024-12-05 13h26.18.523237 +0100,
10,150,30,49,None,38,38,0,False,right,0.7333190140052466,None,,,,,,,,0,38,38,38,,,,,,,,,294.38610225399316,,,,,,,,,,,,,,,,,,,,,,,,,,,,,,,,,,,,,,294.3776390639978,294.38610225399316,295.3856478009984,296.3859489710012,296.3859489710012,296.3859489710012,297.1216131479887,right,0.7333190140052466,None,,,,,,,,,,,,,,,,,,,,,,,,,,,,,,,,,,,,,,,,,,,,,,289553,001,2024-12-05_13h26.03.960,Test,2024.2.1,59.38888716502516,2024-12-05 13h26.18.523237 +0100,
13,150,60,41,None,39,39,0,False,left,1.0443006249988684,None,,,,,,,,0,39,39,39,,,,,,,,,297.1363747389987,,,,,,,,,,,,,,,,,,,,,,,,,,,,,,,,,,,,,,297.1270800709899,297.1363747389987,298.13665766399936,299.1364514159941,299.1364514159941,299.1364514159941,300.18854157799797,left,1.0443006249988684,None,,,,,,,,,,,,,,,,,,,,,,,,,,,,,,,,,,,,,,,,,,,,,,289553,001,2024-12-05_13h26.03.960,Test,2024.2.1,59.38888716502516,2024-12-05 13h26.18.523237 +0100,
58,150,120,47,None,40,40,0,True,left,1.244565879998845,None,,,,,,,,0,40,40,40,,,,,,,,,300.2049283439992,,,,,,,,,,,,,,,,,,,,,,,,,,,,,,,,,,,,,,300.1957968439965,300.2049283439992,301.21942230899003,302.20351218798896,302.20351218798896,302.20351218798896,303.4547254059871,left,1.244565879998845,None,,,,,,,,,,,,,,,,,,,,,,,,,,,,,,,,,,,,,,,,,,,,,,289553,001,2024-12-05_13h26.03.960,Test,2024.2.1,59.38888716502516,2024-12-05 13h26.18.523237 +0100,
32,150,180,18,None,41,41,0,False,right,0.960071056993911,None,,,,,,,,0,41,41,41,,,,,,,,,303.47002659199643,,,,,,,,,,,,,,,,,,,,,,,,,,,,,,,,,,,,,,303.4602996670001,303.47002659199643,304.47060697599954,305.4700533619907,305.4700533619907,305.4700533619907,306.43775705699227,right,0.960071056993911,None,,,,,,,,,,,,,,,,,,,,,,,,,,,,,,,,,,,,,,,,,,,,,,289553,001,2024-12-05_13h26.03.960,Test,2024.2.1,59.38888716502516,2024-12-05 13h26.18.523237 +0100,
27,150,150,15,None,42,42,0,False,left,0.8820442370051751,None,,,,,,,,0,42,42,42,,,,,,,,,306.45312331299647,,,,,,,,,,,,,,,,,,,,,,,,,,,,,,,,,,,,,,306.4434523099917,306.45312331299647,307.45255899699987,308.43682899799023,308.43682899799023,308.43682899799023,309.3223437259876,left,0.8820442370051751,None,,,,,,,,,,,,,,,,,,,,,,,,,,,,,,,,,,,,,,,,,,,,,,289553,001,2024-12-05_13h26.03.960,Test,2024.2.1,59.38888716502516,2024-12-05 13h26.18.523237 +0100,
70,150,180,57,None,43,43,0,True,left,1.2963593089953065,None,,,,,,,,0,43,43,43,,,,,,,,,309.33665061999636,,,,,,,,,,,,,,,,,,,,,,,,,,,,,,,,,,,,,,309.32787189100054,309.33665061999636,310.33741597698827,311.3375251069956,311.3375251069956,311.3375251069956,312.6393210979877,left,1.2963593089953065,None,,,,,,,,,,,,,,,,,,,,,,,,,,,,,,,,,,,,,,,,,,,,,,289553,001,2024-12-05_13h26.03.960,Test,2024.2.1,59.38888716502516,2024-12-05 13h26.18.523237 +0100,
6,150,30,12,None,44,44,0,False,left,2.851768955006264,None,,,,,,,,0,44,44,44,,,,,,,,,312.65406577799877,,,,,,,,,,,,,,,,,,,,,,,,,,,,,,,,,,,,,,312.64502767199883,312.65406577799877,313.6534971129877,314.65373186299985,314.65373186299985,314.65373186299985,317.52253024399397,left,2.851768955006264,None,,,,,,,,,,,,,,,,,,,,,,,,,,,,,,,,,,,,,,,,,,,,,,289553,001,2024-12-05_13h26.03.960,Test,2024.2.1,59.38888716502516,2024-12-05 13h26.18.523237 +0100,
22,150,120,17,None,45,45,0,False,left,0.7548743280058261,None,,,,,,,,0,45,45,45,,,,,,,,,317.5379474599904,,,,,,,,,,,,,,,,,,,,,,,,,,,,,,,,,,,,,,317.52846095598943,317.5379474599904,318.53720499899646,319.5375477899943,319.5375477899943,319.5375477899943,320.3053380899946,left,0.7548743280058261,None,,,,,,,,,,,,,,,,,,,,,,,,,,,,,,,,,,,,,,,,,,,,,,289553,001,2024-12-05_13h26.03.960,Test,2024.2.1,59.38888716502516,2024-12-05 13h26.18.523237 +0100,
64,150,150,11,None,46,46,0,True,left,1.3515731350053102,None,,,,,,,,0,46,46,46,,,,,,,,,320.32030572000076,,,,,,,,,,,,,,,,,,,,,,,,,,,,,,,,,,,,,,320.31091548199765,320.32030572000076,321.3208359309938,322.3204947829945,322.3204947829945,322.3204947829945,323.68963257799624,left,1.3515731350053102,None,,,,,,,,,,,,,,,,,,,,,,,,,,,,,,,,,,,,,,,,,,,,,,289553,001,2024-12-05_13h26.03.960,Test,2024.2.1,59.38888716502516,2024-12-05 13h26.18.523237 +0100,
7,150,30,58,None,47,47,0,False,right,0.9166567029897124,None,,,,,,,,0,47,47,47,,,,,,,,,323.70621743099764,,,,,,,,,,,,,,,,,,,,,,,,,,,,,,,,,,,,,,323.6971840990009,323.70621743099764,324.7204353279958,325.70408873198903,325.70408873198903,325.70408873198903,326.62430483500066,right,0.9166567029897124,None,,,,,,,,,,,,,,,,,,,,,,,,,,,,,,,,,,,,,,,,,,,,,,289553,001,2024-12-05_13h26.03.960,Test,2024.2.1,59.38888716502516,2024-12-05 13h26.18.523237 +0100,
26,150,150,56,None,48,48,0,False,right,1.0343943660118384,None,,,,,,,,0,48,48,48,,,,,,,,,326.6454902109981,,,,,,,,,,,,,,,,,,,,,,,,,,,,,,,,,,,,,,326.63757789699594,326.6454902109981,327.6545980989904,328.63809111098817,328.63809111098817,328.63809111098817,329.6906797589909,right,1.0343943660118384,None,,,,,,,,,,,,,,,,,,,,,,,,,,,,,,,,,,,,,,,,,,,,,,289553,001,2024-12-05_13h26.03.960,Test,2024.2.1,59.38888716502516,2024-12-05 13h26.18.523237 +0100,
17,150,90,35,None,49,49,0,False,right,0.8891288860031636,None,,,,,,,,0,49,49,49,,,,,,,,,329.7057523859985,,,,,,,,,,,,,,,,,,,,,,,,,,,,,,,,,,,,,,329.6969493069919,329.7057523859985,330.72076604799076,331.70442701700085,331.70442701700085,331.70442701700085,332.60600095299014,right,0.8891288860031636,None,,,,,,,,,,,,,,,,,,,,,,,,,,,,,,,,,,,,,,,,,,,,,,289553,001,2024-12-05_13h26.03.960,Test,2024.2.1,59.38888716502516,2024-12-05 13h26.18.523237 +0100,
60,150,120,3,None,50,50,0,True,right,0.9237511550018098,None,,,,,,,,0,50,50,50,,,,,,,,,332.6211824819911,,,,,,,,,,,,,,,,,,,,,,,,,,,,,,,,,,,,,,332.6109627149999,332.6211824819911,333.6213559759926,334.6051458159927,334.6051458159927,334.6051458159927,335.5392770909966,right,0.9237511550018098,None,,,,,,,,,,,,,,,,,,,,,,,,,,,,,,,,,,,,,,,,,,,,,,289553,001,2024-12-05_13h26.03.960,Test,2024.2.1,59.38888716502516,2024-12-05 13h26.18.523237 +0100,
31,150,180,45,None,51,51,0,False,right,1.0130385800002841,None,,,,,,,,0,51,51,51,,,,,,,,,335.5586176759971,,,,,,,,,,,,,,,,,,,,,,,,,,,,,,,,,,,,,,335.54977781599155,335.5586176759971,336.5716394170013,337.55507247700007,337.55507247700007,337.55507247700007,338.57467326500046,right,1.0130385800002841,None,,,,,,,,,,,,,,,,,,,,,,,,,,,,,,,,,,,,,,,,,,,,,,289553,001,2024-12-05_13h26.03.960,Test,2024.2.1,59.38888716502516,2024-12-05 13h26.18.523237 +0100,
4,150,0,68,None,52,52,0,False,right,0.825041906995466,None,,,,,,,,0,52,52,52,,,,,,,,,338.58976354399056,,,,,,,,,,,,,,,,,,,,,,,,,,,,,,,,,,,,,,338.58044705700013,338.58976354399056,339.6051131319982,340.5887934499915,340.5887934499915,340.5887934499915,341.42329740499554,right,0.825041906995466,None,,,,,,,,,,,,,,,,,,,,,,,,,,,,,,,,,,,,,,,,,,,,,,289553,001,2024-12-05_13h26.03.960,Test,2024.2.1,59.38888716502516,2024-12-05 13h26.18.523237 +0100,
20,150,90,37,None,53,53,0,False,right,1.398186374004581,None,,,,,,,,0,53,53,53,,,,,,,,,341.43797568599985,,,,,,,,,,,,,,,,,,,,,,,,,,,,,,,,,,,,,,341.428732675995,341.43797568599985,342.43840895598987,343.4389611969964,343.4389611969964,343.4389611969964,344.84182581199275,right,1.398186374004581,None,,,,,,,,,,,,,,,,,,,,,,,,,,,,,,,,,,,,,,,,,,,,,,289553,001,2024-12-05_13h26.03.960,Test,2024.2.1,59.38888716502516,2024-12-05 13h26.18.523237 +0100,
44,150,30,13,None,54,54,0,True,right,1.5573450429947115,None,,,,,,,,0,54,54,54,,,,,,,,,344.8566451709921,,,,,,,,,,,,,,,,,,,,,,,,,,,,,,,,,,,,,,344.8468113729905,344.8566451709921,345.8718460849923,346.8557905829948,346.8557905829948,346.8557905829948,348.42405321598926,right,1.5573450429947115,None,,,,,,,,,,,,,,,,,,,,,,,,,,,,,,,,,,,,,,,,,,,,,,289553,001,2024-12-05_13h26.03.960,Test,2024.2.1,59.38888716502516,2024-12-05 13h26.18.523237 +0100,
37,150,0,5,None,55,55,0,True,left,1.0569882940035313,None,,,,,,,,0,55,55,55,,,,,,,,,348.43998135099537,,,,,,,,,,,,,,,,,,,,,,,,,,,,,,,,,,,,,,348.43147628600127,348.43998135099537,349.4557581699919,350.43950879600015,350.43950879600015,350.43950879600015,351.5083532699937,left,1.0569882940035313,None,,,,,,,,,,,,,,,,,,,,,,,,,,,,,,,,,,,,,,,,,,,,,,289553,001,2024-12-05_13h26.03.960,Test,2024.2.1,59.38888716502516,2024-12-05 13h26.18.523237 +0100,
25,150,120,64,None,56,56,0,False,right,4.816602054008399,None,,,,,,,,0,56,56,56,,,,,,,,,351.5232943269948,,,,,,,,,,,,,,,,,,,,,,,,,,,,,,,,,,,,,,351.51363267499255,351.5232943269948,352.523183805999,353.52343398399535,353.52343398399535,353.52343398399535,358.34572146099526,right,4.816602054008399,None,356.5239842799929,356.5073526419874,356.5239842799929,,,,,,,,,,,,,,,,,,,,,,,,,,,,,,,,,,,,,,,,,,,289553,001,2024-12-05_13h26.03.960,Test,2024.2.1,59.38888716502516,2024-12-05 13h26.18.523237 +0100,
33,150,180,38,None,57,57,0,False,right,3.0761652309884084,None,,,,,,,,0,57,57,57,,,,,,,,,358.3603507439984,,,,,,,,,,,,,,,,,,,,,,,,,,,,,,,,,,,,,,358.3514092599944,358.3603507439984,359.37401596699783,360.3621786349977,360.3621786349977,360.3621786349977,363.4424867619964,right,3.0761652309884084,None,363.3734722609952,363.35709889099235,363.3734722609952,,,,,,,,,,,,,,,,,,,,,,,,,,,,,,,,,,,,,,,,,,,289553,001,2024-12-05_13h26.03.960,Test,2024.2.1,59.38888716502516,2024-12-05 13h26.18.523237 +0100,
18,150,90,10,None,58,58,0,False,right,1.5302320740011055,None,,,,,,,,0,58,58,58,,,,,,,,,363.4569308569917,,,,,,,,,,,,,,,,,,,,,,,,,,,,,,,,,,,,,,363.4480584970006,363.4569308569917,364.45709832999273,365.45792156898824,365.45792156898824,365.45792156898824,366.99247957998887,right,1.5302320740011055,None,,,,,,,,,,,,,,,,,,,,,,,,,,,,,,,,,,,,,,,,,,,,,,289553,001,2024-12-05_13h26.03.960,Test,2024.2.1,59.38888716502516,2024-12-05 13h26.18.523237 +0100,
9,150,30,34,None,59,59,0,False,right,2.5911781930044526,None,,,,,,,,0,59,59,59,,,,,,,,,367.01059823799005,,,,,,,,,,,,,,,,,,,,,,,,,,,,,,,,,,,,,,367.00045080299606,367.01059823799005,368.0239194129972,369.0073171099939,369.0073171099939,369.0073171099939,371.609142131987,right,2.5911781930044526,None,,,,,,,,,,,,,,,,,,,,,,,,,,,,,,,,,,,,,,,,,,,,,,289553,001,2024-12-05_13h26.03.960,Test,2024.2.1,59.38888716502516,2024-12-05 13h26.18.523237 +0100,
1,150,0,6,None,60,60,0,False,right,0.8014227309904527,None,,,,,,,,0,60,60,60,,,,,,,,,371.62532001698855,,,,,,,,,,,,,,,,,,,,,,,,,,,,,,,,,,,,,,371.61605311399035,371.62532001698855,372.62536426899896,373.6242582119885,373.6242582119885,373.6242582119885,374.4426617489953,right,0.8014227309904527,None,,,,,,,,,,,,,,,,,,,,,,,,,,,,,,,,,,,,,,,,,,,,,,289553,001,2024-12-05_13h26.03.960,Test,2024.2.1,59.38888716502516,2024-12-05 13h26.18.523237 +0100,
34,150,180,25,None,61,61,0,False,right,0.9519369119952898,None,,,,,,,,0,61,61,61,,,,,,,,,374.4727781039983,,,,,,,,,,,,,,,,,,,,,,,,,,,,,,,,,,,,,,374.45007487198745,374.4727781039983,375.4754871779878,376.45819940300134,376.45819940300134,376.45819940300134,377.42655714799184,right,0.9519369119952898,None,,,,,,,,,,,,,,,,,,,,,,,,,,,,,,,,,,,,,,,,,,,,,,289553,001,2024-12-05_13h26.03.960,Test,2024.2.1,59.38888716502516,2024-12-05 13h26.18.523237 +0100,
43,150,30,29,None,62,62,0,True,left,1.176960520009743,None,,,,,,,,0,62,62,62,,,,,,,,,377.4412512229901,,,,,,,,,,,,,,,,,,,,,,,,,,,,,,,,,,,,,,377.4318183169962,377.4412512229901,378.44127553999715,379.44169742098893,379.44169742098893,379.44169742098893,380.62701349800045,left,1.176960520009743,None,,,,,,,,,,,,,,,,,,,,,,,,,,,,,,,,,,,,,,,,,,,,,,289553,001,2024-12-05_13h26.03.960,Test,2024.2.1,59.38888716502516,2024-12-05 13h26.18.523237 +0100,
14,150,60,65,None,63,63,0,False,right,1.435253110001213,None,,,,,,,,0,63,63,63,,,,,,,,,380.6423510809982,,,,,,,,,,,,,,,,,,,,,,,,,,,,,,,,,,,,,,380.63369084299484,380.6423510809982,381.64184879499953,382.6423502599937,382.6423502599937,382.6423502599937,384.09393178799655,right,1.435253110001213,None,,,,,,,,,,,,,,,,,,,,,,,,,,,,,,,,,,,,,,,,,,,,,,289553,001,2024-12-05_13h26.03.960,Test,2024.2.1,59.38888716502516,2024-12-05 13h26.18.523237 +0100,
55,150,90,67,None,64,64,0,True,left,1.9852776329935296,None,,,,,,,,0,64,64,64,,,,,,,,,384.10847047599964,,,,,,,,,,,,,,,,,,,,,,,,,,,,,,,,,,,,,,384.099518928997,384.10847047599964,385.10945716299466,386.10835748599493,386.10835748599493,386.10835748599493,388.11073746198963,left,1.9852776329935296,None,,,,,,,,,,,,,,,,,,,,,,,,,,,,,,,,,,,,,,,,,,,,,,289553,001,2024-12-05_13h26.03.960,Test,2024.2.1,59.38888716502516,2024-12-05 13h26.18.523237 +0100,
57,150,120,50,None,65,65,0,True,left,1.2385831379942829,None,,,,,,,,0,65,65,65,,,,,,,,,388.1255741849891,,,,,,,,,,,,,,,,,,,,,,,,,,,,,,,,,,,,,,388.1167283249961,388.1255741849891,389.1257401779876,390.12633402198844,390.12633402198844,390.12633402198844,391.37692809299915,left,1.2385831379942829,None,,,,,,,,,,,,,,,,,,,,,,,,,,,,,,,,,,,,,,,,,,,,,,289553,001,2024-12-05_13h26.03.960,Test,2024.2.1,59.38888716502516,2024-12-05 13h26.18.523237 +0100,
50,150,60,33,None,66,66,0,True,left,1.7419564800075023,None,,,,,,,,0,66,66,66,,,,,,,,,391.392164134988,,,,,,,,,,,,,,,,,,,,,,,,,,,,,,,,,,,,,,391.38237227499485,391.392164134988,392.39328250499966,393.37603566999314,393.37603566999314,393.37603566999314,395.12745493299735,left,1.7419564800075023,None,,,,,,,,,,,,,,,,,,,,,,,,,,,,,,,,,,,,,,,,,,,,,,289553,001,2024-12-05_13h26.03.960,Test,2024.2.1,59.38888716502516,2024-12-05 13h26.18.523237 +0100,
51,150,90,24,None,67,67,0,True,left,0.955876927007921,None,,,,,,,,0,67,67,67,,,,,,,,,395.14400555199245,,,,,,,,,,,,,,,,,,,,,,,,,,,,,,,,,,,,,,395.13492954699905,395.14400555199245,396.14360207499703,397.12689537699043,397.12689537699043,397.12689537699043,398.09440794699185,left,0.955876927007921,None,,,,,,,,,,,,,,,,,,,,,,,,,,,,,,,,,,,,,,,,,,,,,,289553,001,2024-12-05_13h26.03.960,Test,2024.2.1,59.38888716502516,2024-12-05 13h26.18.523237 +0100,
45,150,30,54,None,68,68,0,True,left,3.9232974970072974,None,,,,,,,,0,68,68,68,,,,,,,,,398.1106126759987,,,,,,,,,,,,,,,,,,,,,,,,,,,,,,,,,,,,,,398.1017076049902,398.1106126759987,399.125743038996,400.09357234300114,400.09357234300114,400.09357234300114,404.0273107959947,left,3.9232974970072974,None,403.09291324699007,403.10964798099303,403.09291324699007,,,,,,,,,,,,,,,,,,,,,,,,,,,,,,,,,,,,,,,,,,,289553,001,2024-12-05_13h26.03.960,Test,2024.2.1,59.38888716502516,2024-12-05 13h26.18.523237 +0100,
36,150,0,31,None,69,69,0,True,left,1.0438619560009101,None,,,,,,,,0,69,69,69,,,,,,,,,404.04257195600076,,,,,,,,,,,,,,,,,,,,,,,,,,,,,,,,,,,,,,404.03321483399486,404.04257195600076,405.04370164898864,406.02654527100094,406.02654527100094,406.02654527100094,407.07857138098916,left,1.0438619560009101,None,,,,,,,,,,,,,,,,,,,,,,,,,,,,,,,,,,,,,,,,,,,,,,289553,001,2024-12-05_13h26.03.960,Test,2024.2.1,59.38888716502516,2024-12-05 13h26.18.523237 +0100,
,,,,,,,,,,,,,,,,,,,,,,,,,,,,,,,,,,,,,,,,,,,,,,,,,,,,,,,,,,,,,,,,,,,,,,,,,,,,,,,,,,407.07875328999944,407.09309752698755,407.09309752698755,503.81848611700116,space,96.7120964860078,None,,,,,,,,,,,,,,,,,,,,,,,,,,,,,,,,,,,,289553,001,2024-12-05_13h26.03.960,Test,2024.2.1,59.38888716502516,2024-12-05 13h26.18.523237 +0100,
29,150,150,43,None,0,0,0,,,,,,,,,,,,,,,,0,0,0,28,,,,,503.8419996219891,,,,,,,,,,,,,,,,,,,,,,,,,,,,,,,,,,,,,,,,,,,,,,,,,,,,,,,,,,503.83286557300016,503.8419996219891,504.0331712529878,504.0331712529878,504.0497687939933,505.73369135099347,505.73369135099347,505.71757205999165,,,,,,,,,,,,,,,,,,,,,,,,,,,,289553,001,2024-12-05_13h26.03.960,Test,2024.2.1,59.38888716502516,2024-12-05 13h26.18.523237 +0100,
11,150,60,8,None,1,1,0,,,,,,,,,,,,,,,,0,1,1,10,,,,,505.73369135099347,,,,,,,,,,,,,,,,,,,,,,,,,,,,,,,,,,,,,,,,,,,,,,,,,,,,,,,,,,505.723775587001,505.73369135099347,505.93405202600115,505.93405202600115,505.93405202600115,507.6339540499903,507.6339540499903,507.618104809997,,,,,,,,,,,,,,,,,,,,,,,,,,,,289553,001,2024-12-05_13h26.03.960,Test,2024.2.1,59.38888716502516,2024-12-05 13h26.18.523237 +0100,
1,150,0,6,None,2,2,0,,,,,,,,,,,,,,,,0,2,2,0,,,,,507.6339540499903,,,,,,,,,,,,,,,,,,,,,,,,,,,,,,,,,,,,,,,,,,,,,,,,,,,,,,,,,,507.6233334879944,507.6339540499903,507.8335321369959,507.8335321369959,507.8335321369959,509.53758765799284,509.53758765799284,509.51919794299465,,,,,,,,,,,,,,,,,,,,,,,,,,,,289553,001,2024-12-05_13h26.03.960,Test,2024.2.1,59.38888716502516,2024-12-05 13h26.18.523237 +0100,
27,150,150,15,None,3,3,0,,,,,,,,,,,,,,,,0,3,3,26,,,,,509.53758765799284,,,,,,,,,,,,,,,,,,,,,,,,,,,,,,,,,,,,,,,,,,,,,,,,,,,,,,,,,,509.52933248199406,509.53758765799284,509.73399006899854,509.73399006899854,509.75103688798845,511.43333263999375,511.43333263999375,511.41782875399804,,,,,,,,,,,,,,,,,,,,,,,,,,,,289553,001,2024-12-05_13h26.03.960,Test,2024.2.1,59.38888716502516,2024-12-05 13h26.18.523237 +0100,
34,150,180,25,None,4,4,0,,,,,,,,,,,,,,,,0,4,4,33,,,,,511.43333263999375,,,,,,,,,,,,,,,,,,,,,,,,,,,,,,,,,,,,,,,,,,,,,,,,,,,,,,,,,,511.42345160400146,511.43333263999375,511.6339815859974,511.6339815859974,511.6339815859974,,,513.3187525409885,,,,,,,,,,,,,,,,,,,,,,,,,,,,289553,001,2024-12-05_13h26.03.960,Test,2024.2.1,59.38888716502516,2024-12-05 13h26.18.523237 +0100,
7,150,30,58,None,5,5,0,,,,,,,,,,,,,,,,0,5,5,6,,,,,513.3377803289914,,,,,,,,,,,,,,,,,,,,,,,,,,,,,,,,,,,,,,,,,,,,,,,,,,,,,,,,,,513.3287364719872,513.3377803289914,513.5339264359936,513.5339264359936,513.5507505649875,515.2342197619873,515.2342197619873,515.2183985009906,,,,,,,,,,,,,,,,,,,,,,,,,,,,289553,001,2024-12-05_13h26.03.960,Test,2024.2.1,59.38888716502516,2024-12-05 13h26.18.523237 +0100,
33,150,180,38,None,6,6,0,,,,,,,,,,,,,,,,0,6,6,32,,,,,515.2342197619873,,,,,,,,,,,,,,,,,,,,,,,,,,,,,,,,,,,,,,,,,,,,,,,,,,,,,,,,,,515.2257502469874,515.2342197619873,515.4176647259883,515.4176647259883,515.434061300999,517.1176655070012,517.1176655070012,517.1015398599993,,,,,,,,,,,,,,,,,,,,,,,,,,,,289553,001,2024-12-05_13h26.03.960,Test,2024.2.1,59.38888716502516,2024-12-05 13h26.18.523237 +0100,
21,150,120,27,None,7,7,0,,,,,,,,,,,,,,,,0,7,7,20,,,,,517.1176655070012,,,,,,,,,,,,,,,,,,,,,,,,,,,,,,,,,,,,,,,,,,,,,,,,,,,,,,,,,,517.10838582,517.1344138179993,517.317734960001,517.317734960001,517.3350136369991,519.0181243849947,519.0181243849947,519.001742456996,,,,,,,,,,,,,,,,,,,,,,,,,,,,289553,001,2024-12-05_13h26.03.960,Test,2024.2.1,59.38888716502516,2024-12-05 13h26.18.523237 +0100,
25,150,120,64,None,8,8,0,,,,,,,,,,,,,,,,0,8,8,24,,,,,519.0181243849947,,,,,,,,,,,,,,,,,,,,,,,,,,,,,,,,,,,,,,,,,,,,,,,,,,,,,,,,,,519.0084440089995,519.0181243849947,519.2189066279971,519.2189066279971,519.2189066279971,520.9341575009894,520.9341575009894,520.9185084179917,,,,,,,,,,,,,,,,,,,,,,,,,,,,289553,001,2024-12-05_13h26.03.960,Test,2024.2.1,59.38888716502516,2024-12-05 13h26.18.523237 +0100,
3,150,0,39,None,9,9,0,,,,,,,,,,,,,,,,0,9,9,2,,,,,520.9341575009894,,,,,,,,,,,,,,,,,,,,,,,,,,,,,,,,,,,,,,,,,,,,,,,,,,,,,,,,,,520.9240388619946,520.9341575009894,521.1182822650007,521.1182822650007,521.1350246879883,522.8173945579911,522.8173945579911,522.8025020729983,,,,,,,,,,,,,,,,,,,,,,,,,,,,289553,001,2024-12-05_13h26.03.960,Test,2024.2.1,59.38888716502516,2024-12-05 13h26.18.523237 +0100,
30,150,150,40,None,10,10,0,,,,,,,,,,,,,,,,0,10,10,29,,,,,522.8173945579911,,,,,,,,,,,,,,,,,,,,,,,,,,,,,,,,,,,,,,,,,,,,,,,,,,,,,,,,,,522.8084525089944,522.8173945579911,523.0181586679973,523.0181586679973,523.0181586679973,524.7179550549918,524.7179550549918,524.7026345060003,,,,,,,,,,,,,,,,,,,,,,,,,,,,289553,001,2024-12-05_13h26.03.960,Test,2024.2.1,59.38888716502516,2024-12-05 13h26.18.523237 +0100,
4,150,0,68,None,11,11,0,,,,,,,,,,,,,,,,0,11,11,3,,,,,524.7179550549918,,,,,,,,,,,,,,,,,,,,,,,,,,,,,,,,,,,,,,,,,,,,,,,,,,,,,,,,,,524.7098253549921,524.7179550549918,524.9184247099911,524.9184247099911,524.9184247099911,526.6179645639932,526.6179645639932,526.6020311729953,,,,,,,,,,,,,,,,,,,,,,,,,,,,289553,001,2024-12-05_13h26.03.960,Test,2024.2.1,59.38888716502516,2024-12-05 13h26.18.523237 +0100,
24,150,120,55,None,12,12,0,,,,,,,,,,,,,,,,0,12,12,23,,,,,526.6179645639932,,,,,,,,,,,,,,,,,,,,,,,,,,,,,,,,,,,,,,,,,,,,,,,,,,,,,,,,,,526.6084464969899,526.6179645639932,526.818820496992,526.818820496992,526.818820496992,528.5211826579907,528.5211826579907,528.503756635997,,,,,,,,,,,,,,,,,,,,,,,,,,,,289553,001,2024-12-05_13h26.03.960,Test,2024.2.1,59.38888716502516,2024-12-05 13h26.18.523237 +0100,
23,150,120,66,None,13,13,0,,,,,,,,,,,,,,,,0,13,13,22,,,,,528.5211826579907,,,,,,,,,,,,,,,,,,,,,,,,,,,,,,,,,,,,,,,,,,,,,,,,,,,,,,,,,,528.5129062049964,528.5211826579907,528.7187850639893,528.7187850639893,528.7349516429967,530.4186941539956,530.4186941539956,530.4023545699893,,,,,,,,,,,,,,,,,,,,,,,,,,,,289553,001,2024-12-05_13h26.03.960,Test,2024.2.1,59.38888716502516,2024-12-05 13h26.18.523237 +0100,
17,150,90,35,None,14,14,0,,,,,,,,,,,,,,,,0,14,14,16,,,,,530.4186941539956,,,,,,,,,,,,,,,,,,,,,,,,,,,,,,,,,,,,,,,,,,,,,,,,,,,,,,,,,,530.4086107749899,530.4186941539956,530.6188363639958,530.6188363639958,530.6188363639958,532.3185043039994,532.3185043039994,532.3028341689933,,,,,,,,,,,,,,,,,,,,,,,,,,,,289553,001,2024-12-05_13h26.03.960,Test,2024.2.1,59.38888716502516,2024-12-05 13h26.18.523237 +0100,
15,150,60,48,None,15,15,0,,,,,,,,,,,,,,,,0,15,15,14,,,,,532.3185043039994,,,,,,,,,,,,,,,,,,,,,,,,,,,,,,,,,,,,,,,,,,,,,,,,,,,,,,,,,,532.3095724359882,532.3185043039994,532.5186244020006,532.5186244020006,532.5186244020006,534.2188247839949,534.2188247839949,534.2029159289959,,,,,,,,,,,,,,,,,,,,,,,,,,,,289553,001,2024-12-05_13h26.03.960,Test,2024.2.1,59.38888716502516,2024-12-05 13h26.18.523237 +0100,
12,150,60,14,None,16,16,0,,,,,,,,,,,,,,,,0,16,16,11,,,,,534.2188247839949,,,,,,,,,,,,,,,,,,,,,,,,,,,,,,,,,,,,,,,,,,,,,,,,,,,,,,,,,,534.208752407998,534.2188247839949,534.4187095550005,534.4187095550005,534.4187095550005,536.11957213399,536.11957213399,536.1034585669986,,,,,,,,,,,,,,,,,,,,,,,,,,,,289553,001,2024-12-05_13h26.03.960,Test,2024.2.1,59.38888716502516,2024-12-05 13h26.18.523237 +0100,
10,150,30,49,None,17,17,0,,,,,,,,,,,,,,,,0,17,17,9,,,,,536.11957213399,,,,,,,,,,,,,,,,,,,,,,,,,,,,,,,,,,,,,,,,,,,,,,,,,,,,,,,,,,536.1108594339894,536.11957213399,536.3187197539955,536.3187197539955,536.3187197539955,538.0183521319996,538.0183521319996,538.0027588739904,,,,,,,,,,,,,,,,,,,,,,,,,,,,289553,001,2024-12-05_13h26.03.960,Test,2024.2.1,59.38888716502516,2024-12-05 13h26.18.523237 +0100,
28,150,150,36,None,18,18,0,,,,,,,,,,,,,,,,0,18,18,27,,,,,538.0183521319996,,,,,,,,,,,,,,,,,,,,,,,,,,,,,,,,,,,,,,,,,,,,,,,,,,,,,,,,,,538.0102041079954,538.0183521319996,538.2189309339883,538.2189309339883,538.2189309339883,539.9198326899932,539.9198326899932,539.9036461879878,,,,,,,,,,,,,,,,,,,,,,,,,,,,289553,001,2024-12-05_13h26.03.960,Test,2024.2.1,59.38888716502516,2024-12-05 13h26.18.523237 +0100,
32,150,180,18,None,19,19,0,,,,,,,,,,,,,,,,0,19,19,31,,,,,539.9198326899932,,,,,,,,,,,,,,,,,,,,,,,,,,,,,,,,,,,,,,,,,,,,,,,,,,,,,,,,,,539.9112651049945,539.9198326899932,540.1194141929882,540.1194141929882,540.1194141929882,541.8190812149987,541.8190812149987,541.8036326629954,,,,,,,,,,,,,,,,,,,,,,,,,,,,289553,001,2024-12-05_13h26.03.960,Test,2024.2.1,59.38888716502516,2024-12-05 13h26.18.523237 +0100,
5,150,0,4,None,20,20,0,,,,,,,,,,,,,,,,0,20,20,4,,,,,541.8190812149987,,,,,,,,,,,,,,,,,,,,,,,,,,,,,,,,,,,,,,,,,,,,,,,,,,,,,,,,,,541.8096537759993,541.8190812149987,542.0195010280004,542.0195010280004,542.0195010280004,543.7190161619947,543.7190161619947,543.703402277999,,,,,,,,,,,,,,,,,,,,,,,,,,,,289553,001,2024-12-05_13h26.03.960,Test,2024.2.1,59.38888716502516,2024-12-05 13h26.18.523237 +0100,
8,150,30,53,None,21,21,0,,,,,,,,,,,,,,,,0,21,21,7,,,,,543.7190161619947,,,,,,,,,,,,,,,,,,,,,,,,,,,,,,,,,,,,,,,,,,,,,,,,,,,,,,,,,,543.7091300969914,543.7190161619947,543.9194063350005,543.9194063350005,543.9194063350005,545.6193034559983,545.6193034559983,545.6040441429941,,,,,,,,,,,,,,,,,,,,,,,,,,,,289553,001,2024-12-05_13h26.03.960,Test,2024.2.1,59.38888716502516,2024-12-05 13h26.18.523237 +0100,
2,150,0,61,None,22,22,0,,,,,,,,,,,,,,,,0,22,22,1,,,,,545.6193034559983,,,,,,,,,,,,,,,,,,,,,,,,,,,,,,,,,,,,,,,,,,,,,,,,,,,,,,,,,,545.6114402579988,545.6193034559983,545.8199965959939,545.8199965959939,545.8199965959939,547.5234047439881,547.5234047439881,547.5051275409933,,,,,,,,,,,,,,,,,,,,,,,,,,,,289553,001,2024-12-05_13h26.03.960,Test,2024.2.1,59.38888716502516,2024-12-05 13h26.18.523237 +0100,
20,150,90,37,None,23,23,0,,,,,,,,,,,,,,,,0,23,23,19,,,,,547.5234047439881,,,,,,,,,,,,,,,,,,,,,,,,,,,,,,,,,,,,,,,,,,,,,,,,,,,,,,,,,,547.5150334149948,547.5234047439881,547.7198119809909,547.7198119809909,547.7364068850002,549.4199103169958,549.4199103169958,549.4037075909873,,,,,,,,,,,,,,,,,,,,,,,,,,,,289553,001,2024-12-05_13h26.03.960,Test,2024.2.1,59.38888716502516,2024-12-05 13h26.18.523237 +0100,
26,150,150,56,None,24,24,0,,,,,,,,,,,,,,,,0,24,24,25,,,,,549.4199103169958,,,,,,,,,,,,,,,,,,,,,,,,,,,,,,,,,,,,,,,,,,,,,,,,,,,,,,,,,,549.4091348729999,549.4199103169958,549.620394380996,549.620394380996,549.620394380996,551.3198045419995,551.3198045419995,551.3037969409925,,,,,,,,,,,,,,,,,,,,,,,,,,,,289553,001,2024-12-05_13h26.03.960,Test,2024.2.1,59.38888716502516,2024-12-05 13h26.18.523237 +0100,
22,150,120,17,None,25,25,0,,,,,,,,,,,,,,,,0,25,25,21,,,,,551.3198045419995,,,,,,,,,,,,,,,,,,,,,,,,,,,,,,,,,,,,,,,,,,,,,,,,,,,,,,,,,,551.3105737669975,551.3198045419995,551.519874960999,551.519874960999,551.519874960999,553.2242769049917,553.2242769049917,553.2055339029903,,,,,,,,,,,,,,,,,,,,,,,,,,,,289553,001,2024-12-05_13h26.03.960,Test,2024.2.1,59.38888716502516,2024-12-05 13h26.18.523237 +0100,
18,150,90,10,None,26,26,0,,,,,,,,,,,,,,,,0,26,26,17,,,,,553.2242769049917,,,,,,,,,,,,,,,,,,,,,,,,,,,,,,,,,,,,,,,,,,,,,,,,,,,,,,,,,,553.2154536469898,553.2242769049917,553.4202763249923,553.4202763249923,553.4365608699882,555.1203557809931,555.1203557809931,555.1041320270015,,,,,,,,,,,,,,,,,,,,,,,,,,,,289553,001,2024-12-05_13h26.03.960,Test,2024.2.1,59.38888716502516,2024-12-05 13h26.18.523237 +0100,
31,150,180,45,None,27,27,0,,,,,,,,,,,,,,,,0,27,27,30,,,,,555.1203557809931,,,,,,,,,,,,,,,,,,,,,,,,,,,,,,,,,,,,,,,,,,,,,,,,,,,,,,,,,,555.1117576169927,555.1203557809931,555.3208244249981,555.3208244249981,555.3208244249981,557.0206145269913,557.0206145269913,557.0044995429926,,,,,,,,,,,,,,,,,,,,,,,,,,,,289553,001,2024-12-05_13h26.03.960,Test,2024.2.1,59.38888716502516,2024-12-05 13h26.18.523237 +0100,
16,150,90,46,None,28,28,0,,,,,,,,,,,,,,,,0,28,28,15,,,,,557.0206145269913,,,,,,,,,,,,,,,,,,,,,,,,,,,,,,,,,,,,,,,,,,,,,,,,,,,,,,,,,,557.0095846100012,557.0206145269913,557.2203792199871,557.2203792199871,557.2203792199871,558.9198983419919,558.9198983419919,558.9045866339875,,,,,,,,,,,,,,,,,,,,,,,,,,,,289553,001,2024-12-05_13h26.03.960,Test,2024.2.1,59.38888716502516,2024-12-05 13h26.18.523237 +0100,
6,150,30,12,None,29,29,0,,,,,,,,,,,,,,,,0,29,29,5,,,,,558.9198983419919,,,,,,,,,,,,,,,,,,,,,,,,,,,,,,,,,,,,,,,,,,,,,,,,,,,,,,,,,,558.9105890059873,558.9198983419919,559.120434750992,559.120434750992,559.120434750992,560.8205449879897,560.8205449879897,560.8044655049889,,,,,,,,,,,,,,,,,,,,,,,,,,,,289553,001,2024-12-05_13h26.03.960,Test,2024.2.1,59.38888716502516,2024-12-05 13h26.18.523237 +0100,
35,150,180,23,None,30,30,0,,,,,,,,,,,,,,,,0,30,30,34,,,,,560.8205449879897,,,,,,,,,,,,,,,,,,,,,,,,,,,,,,,,,,,,,,,,,,,,,,,,,,,,,,,,,,560.8104137240007,560.8205449879897,561.0209810129891,561.0209810129891,561.0209810129891,562.7205055160011,562.7205055160011,562.7045229340001,,,,,,,,,,,,,,,,,,,,,,,,,,,,289553,001,2024-12-05_13h26.03.960,Test,2024.2.1,59.38888716502516,2024-12-05 13h26.18.523237 +0100,
14,150,60,65,None,31,31,0,,,,,,,,,,,,,,,,0,31,31,13,,,,,562.7205055160011,,,,,,,,,,,,,,,,,,,,,,,,,,,,,,,,,,,,,,,,,,,,,,,,,,,,,,,,,,562.7117585929955,562.7205055160011,562.9204771959921,562.9204771959921,562.9204771959921,564.6250030059891,564.6250030059891,564.6063411229989,,,,,,,,,,,,,,,,,,,,,,,,,,,,289553,001,2024-12-05_13h26.03.960,Test,2024.2.1,59.38888716502516,2024-12-05 13h26.18.523237 +0100,
19,150,90,22,None,32,32,0,,,,,,,,,,,,,,,,0,32,32,18,,,,,564.6250030059891,,,,,,,,,,,,,,,,,,,,,,,,,,,,,,,,,,,,,,,,,,,,,,,,,,,,,,,,,,564.6169752259884,564.6250030059891,564.820699783988,564.820699783988,564.8378495590005,566.5203044019872,566.5203044019872,566.5048409109877,,,,,,,,,,,,,,,,,,,,,,,,,,,,289553,001,2024-12-05_13h26.03.960,Test,2024.2.1,59.38888716502516,2024-12-05 13h26.18.523237 +0100,
13,150,60,41,None,33,33,0,,,,,,,,,,,,,,,,0,33,33,12,,,,,566.5203044019872,,,,,,,,,,,,,,,,,,,,,,,,,,,,,,,,,,,,,,,,,,,,,,,,,,,,,,,,,,566.5118624639872,566.5203044019872,566.7210051139991,566.7210051139991,566.7210051139991,568.4213499809994,568.4213499809994,568.405523761001,,,,,,,,,,,,,,,,,,,,,,,,,,,,289553,001,2024-12-05_13h26.03.960,Test,2024.2.1,59.38888716502516,2024-12-05 13h26.18.523237 +0100,
9,150,30,34,None,34,34,0,,,,,,,,,,,,,,,,0,34,34,8,,,,,568.4213499809994,,,,,,,,,,,,,,,,,,,,,,,,,,,,,,,,,,,,,,,,,,,,,,,,,,,,,,,,,,568.4129963939922,568.4213499809994,568.6212874939956,568.6212874939956,568.6212874939956,570.321155298996,570.321155298996,570.3061133029987,,,,,,,,,,,,,,,,,,,,,,,,,,,,289553,001,2024-12-05_13h26.03.960,Test,2024.2.1,59.38888716502516,2024-12-05 13h26.18.523237 +0100,
,,,,,,,,,,,,,,,,,,,,,,,,,,,,,,,,,,,,,,,,,,,,,,,,,,,,,,,,,,,,,,,,,,,,,,,,,,,,,,,,,,,,,,,,,,,,,,,,,570.3063023629948,570.321155298996,570.321155298996,577.8572939599981,space,7.52037582200137,None,,,,,,,,,,,,,,,,,,,,,289553,001,2024-12-05_13h26.03.960,Test,2024.2.1,59.38888716502516,2024-12-05 13h26.18.523237 +0100,
39,150,0,2,None,0,0,0,True,,,,left,1.0787952539976686,None,,,,,,,,,,,,,0,0,0,0,577.8834992379998,,,,,,,,,,,,,,,,,,,,,,,,,,,,,,,,,,,,,,,,,,,,,,,,,,,,,,,,,,,,,,,,,,,,,,,,,577.8743675709993,577.8834992379998,578.8890005449939,579.8717516350007,579.8717516350007,579.8717516350007,580.9573067519959,left,1.0787952539976686,None,,,,,,,,,,,289553,001,2024-12-05_13h26.03.960,Test,2024.2.1,59.38888716502516,2024-12-05 13h26.18.523237 +0100,
30,150,150,40,None,1,1,0,False,,,,right,0.9008309690107126,None,,,,,,,,,,,,,0,1,1,1,580.9738895609917,,,,,,,,,,,,,,,,,,,,,,,,,,,,,,,,,,,,,,,,,,,,,,,,,,,,,,,,,,,,,,,,,,,,,,,,,580.9646605390008,580.9738895609917,581.9882982609997,582.9728271989879,582.9728271989879,582.9728271989879,583.8905930269975,right,0.9008309690107126,None,,,,,,,,,,,289553,001,2024-12-05_13h26.03.960,Test,2024.2.1,59.38888716502516,2024-12-05 13h26.18.523237 +0100,
2,150,0,61,None,2,2,0,False,,,,right,0.955364768000436,None,,,,,,,,,,,,,0,2,2,2,583.9070093389892,,,,,,,,,,,,,,,,,,,,,,,,,,,,,,,,,,,,,,,,,,,,,,,,,,,,,,,,,,,,,,,,,,,,,,,,,583.8981400310004,583.9070093389892,584.9224816209899,585.9057287689939,585.9057287689939,585.9057287689939,586.8744599209895,right,0.955364768000436,None,,,,,,,,,,,289553,001,2024-12-05_13h26.03.960,Test,2024.2.1,59.38888716502516,2024-12-05 13h26.18.523237 +0100,
16,150,90,46,None,3,3,0,False,,,,left,0.8971043649944477,None,,,,,,,,,,,,,0,3,3,3,586.8892143119883,,,,,,,,,,,,,,,,,,,,,,,,,,,,,,,,,,,,,,,,,,,,,,,,,,,,,,,,,,,,,,,,,,,,,,,,,586.8783832629997,586.8892143119883,587.8890315499884,588.889179766993,588.889179766993,588.889179766993,589.7912544499995,left,0.8971043649944477,None,,,,,,,,,,,289553,001,2024-12-05_13h26.03.960,Test,2024.2.1,59.38888716502516,2024-12-05 13h26.18.523237 +0100,
46,150,60,70,None,4,4,0,True,,,,right,1.5017147420003312,None,,,,,,,,,,,,,0,4,4,4,589.807950552,,,,,,,,,,,,,,,,,,,,,,,,,,,,,,,,,,,,,,,,,,,,,,,,,,,,,,,,,,,,,,,,,,,,,,,,,589.7992264279892,589.807950552,590.8225034119969,591.8064440119924,591.8064440119924,591.8064440119924,593.3245697979874,right,1.5017147420003312,None,,,,,,,,,,,289553,001,2024-12-05_13h26.03.960,Test,2024.2.1,59.38888716502516,2024-12-05 13h26.18.523237 +0100,
15,150,60,48,None,5,5,0,False,,,,right,1.018954422994284,None,,,,,,,,,,,,,0,5,5,5,593.3401371229993,,,,,,,,,,,,,,,,,,,,,,,,,,,,,,,,,,,,,,,,,,,,,,,,,,,,,,,,,,,,,,,,,,,,,,,,,593.3306008129875,593.3401371229993,594.3396178969997,595.3240271179966,595.3240271179966,595.3240271179966,596.3578676709876,right,1.018954422994284,None,,,,,,,,,,,289553,001,2024-12-05_13h26.03.960,Test,2024.2.1,59.38888716502516,2024-12-05 13h26.18.523237 +0100,
11,150,60,8,None,6,6,0,False,,,,right,0.8558640120027121,None,,,,,,,,,,,,,0,6,6,6,596.3738851559901,,,,,,,,,,,,,,,,,,,,,,,,,,,,,,,,,,,,,,,,,,,,,,,,,,,,,,,,,,,,,,,,,,,,,,,,,596.365257049998,596.3738851559901,597.3733933129988,598.3733645409957,598.3733645409957,598.3733645409957,599.240787193994,right,0.8558640120027121,None,,,,,,,,,,,289553,001,2024-12-05_13h26.03.960,Test,2024.2.1,59.38888716502516,2024-12-05 13h26.18.523237 +0100,
8,150,30,53,None,7,7,0,False,,,,left,1.760512633001781,None,,,,,,,,,,,,,0,7,7,7,599.2564926259947,,,,,,,,,,,,,,,,,,,,,,,,,,,,,,,,,,,,,,,,,,,,,,,,,,,,,,,,,,,,,,,,,,,,,,,,,599.247515015988,599.2564926259947,600.2567739980004,601.2401052239875,601.2401052239875,601.2401052239875,603.0082140960003,left,1.760512633001781,None,,,,,,,,,,,289553,001,2024-12-05_13h26.03.960,Test,2024.2.1,59.38888716502516,2024-12-05 13h26.18.523237 +0100,
40,150,0,32,None,8,8,0,True,,,,right,0.8889843549986836,None,,,,,,,,,,,,,0,8,8,8,603.0241321369977,,,,,,,,,,,,,,,,,,,,,,,,,,,,,,,,,,,,,,,,,,,,,,,,,,,,,,,,,,,,,,,,,,,,,,,,,603.014914001993,603.0241321369977,604.0236086410005,605.0080490719993,605.0080490719993,605.0080490719993,605.9082027349941,right,0.8889843549986836,None,,,,,,,,,,,289553,001,2024-12-05_13h26.03.960,Test,2024.2.1,59.38888716502516,2024-12-05 13h26.18.523237 +0100,
24,150,120,55,None,9,9,0,False,,,,right,0.8483204799995292,None,,,,,,,,,,,,,0,9,9,9,605.9236099939881,,,,,,,,,,,,,,,,,,,,,,,,,,,,,,,,,,,,,,,,,,,,,,,,,,,,,,,,,,,,,,,,,,,,,,,,,605.9139159100014,605.9236099939881,606.9241349499935,607.9237645699905,607.9237645699905,607.9237645699905,608.776056852992,right,0.8483204799995292,None,,,,,,,,,,,289553,001,2024-12-05_13h26.03.960,Test,2024.2.1,59.38888716502516,2024-12-05 13h26.18.523237 +0100,
38,150,0,1,None,10,10,0,True,,,,right,2.783777403004933,None,,,,,,,,,,,,,0,10,10,10,608.7922026869928,,,,,,,,,,,,,,,,,,,,,,,,,,,,,,,,,,,,,,,,,,,,,,,,,,,,,,,,,,,,,,,,,,,,,,,,,608.7829360949981,608.7922026869928,609.8070949069952,610.79070641,610.79070641,610.79070641,613.5772535549913,right,2.783777403004933,None,,,,,,,,,,,289553,001,2024-12-05_13h26.03.960,Test,2024.2.1,59.38888716502516,2024-12-05 13h26.18.523237 +0100,
62,150,150,42,None,11,11,0,True,,,,left,0.9746125609963201,None,,,,,,,,,,,,,0,11,11,11,613.5922356329975,,,,,,,,,,,,,,,,,,,,,,,,,,,,,,,,,,,,,,,,,,,,,,,,,,,,,,,,,,,,,,,,,,,,,,,,,613.583046476997,613.5922356329975,614.6081650849956,615.590844595994,615.590844595994,615.590844595994,616.5757389700011,left,0.9746125609963201,None,,,,,,,,,,,289553,001,2024-12-05_13h26.03.960,Test,2024.2.1,59.38888716502516,2024-12-05 13h26.18.523237 +0100,
42,150,30,44,None,12,12,0,True,,,,right,1.6563071900018258,None,,,,,,,,,,,,,0,12,12,12,616.5916313909984,,,,,,,,,,,,,,,,,,,,,,,,,,,,,,,,,,,,,,,,,,,,,,,,,,,,,,,,,,,,,,,,,,,,,,,,,616.5823129880009,616.5916313909984,617.590942728988,618.5756217839953,618.5756217839953,618.5756217839953,620.2425981429988,right,1.6563071900018258,None,,,,,,,,,,,289553,001,2024-12-05_13h26.03.960,Test,2024.2.1,59.38888716502516,2024-12-05 13h26.18.523237 +0100,
68,150,180,63,None,13,13,0,True,,,,right,1.281305324009736,None,,,,,,,,,,,,,0,13,13,13,620.258752351001,,,,,,,,,,,,,,,,,,,,,,,,,,,,,,,,,,,,,,,,,,,,,,,,,,,,,,,,,,,,,,,,,,,,,,,,,620.2492976069916,620.258752351001,621.2579577769939,622.258755235991,622.258755235991,622.258755235991,623.5438801929995,right,1.281305324009736,None,,,,,,,,,,,289553,001,2024-12-05_13h26.03.960,Test,2024.2.1,59.38888716502516,2024-12-05 13h26.18.523237 +0100,
23,150,120,66,None,14,14,0,False,,,,right,0.961474815994734,None,,,,,,,,,,,,,0,14,14,14,623.560145149997,,,,,,,,,,,,,,,,,,,,,,,,,,,,,,,,,,,,,,,,,,,,,,,,,,,,,,,,,,,,,,,,,,,,,,,,,623.5510802539939,623.560145149997,624.5761650700006,625.5583219559921,625.5583219559921,625.5583219559921,626.5272714719904,right,0.961474815994734,None,,,,,,,,,,,289553,001,2024-12-05_13h26.03.960,Test,2024.2.1,59.38888716502516,2024-12-05 13h26.18.523237 +0100,
47,150,60,59,None,15,15,0,True,,,,right,0.875267809999059,None,,,,,,,,,,,,,0,15,15,15,626.5423519600008,,,,,,,,,,,,,,,,,,,,,,,,,,,,,,,,,,,,,,,,,,,,,,,,,,,,,,,,,,,,,,,,,,,,,,,,,626.5328137439938,626.5423519600008,627.5428159159928,628.5420435129927,628.5420435129927,628.5420435129927,629.4269832869904,right,0.875267809999059,None,,,,,,,,,,,289553,001,2024-12-05_13h26.03.960,Test,2024.2.1,59.38888716502516,2024-12-05 13h26.18.523237 +0100,
52,150,90,28,None,16,16,0,True,,,,left,1.3083067279949319,None,,,,,,,,,,,,,0,16,16,16,629.4434283589944,,,,,,,,,,,,,,,,,,,,,,,,,,,,,,,,,,,,,,,,,,,,,,,,,,,,,,,,,,,,,,,,,,,,,,,,,629.4346486779978,629.4434283589944,630.4585371479916,631.4419696449913,631.4419696449913,631.4419696449913,632.7600293629948,left,1.3083067279949319,None,,,,,,,,,,,289553,001,2024-12-05_13h26.03.960,Test,2024.2.1,59.38888716502516,2024-12-05 13h26.18.523237 +0100,
35,150,180,23,None,17,17,0,False,,,,left,0.8724676059937337,None,,,,,,,,,,,,,0,17,17,17,632.7751963229966,,,,,,,,,,,,,,,,,,,,,,,,,,,,,,,,,,,,,,,,,,,,,,,,,,,,,,,,,,,,,,,,,,,,,,,,,632.763738677997,632.7751963229966,633.7762007150013,634.7756713650015,634.7756713650015,634.7756713650015,635.6605145529902,left,0.8724676059937337,None,,,,,,,,,,,289553,001,2024-12-05_13h26.03.960,Test,2024.2.1,59.38888716502516,2024-12-05 13h26.18.523237 +0100,
49,150,60,69,None,18,18,0,True,,,,left,0.9924678550014505,None,,,,,,,,,,,,,0,18,18,18,635.6914208160015,,,,,,,,,,,,,,,,,,,,,,,,,,,,,,,,,,,,,,,,,,,,,,,,,,,,,,,,,,,,,,,,,,,,,,,,,635.6679145789967,635.6914208160015,636.6926004339912,637.676474145992,637.676474145992,637.676474145992,638.6782799770008,left,0.9924678550014505,None,,,,,,,,,,,289553,001,2024-12-05_13h26.03.960,Test,2024.2.1,59.38888716502516,2024-12-05 13h26.18.523237 +0100,
65,150,150,52,None,19,19,0,True,,,,left,1.077767708004103,None,,,,,,,,,,,,,0,19,19,19,638.6928939019999,,,,,,,,,,,,,,,,,,,,,,,,,,,,,,,,,,,,,,,,,,,,,,,,,,,,,,,,,,,,,,,,,,,,,,,,,638.6838527869986,638.6928939019999,639.6925755339907,640.7042518519884,640.7042518519884,640.7042518519884,641.7940339409979,left,1.077767708004103,None,,,,,,,,,,,289553,001,2024-12-05_13h26.03.960,Test,2024.2.1,59.38888716502516,2024-12-05 13h26.18.523237 +0100,
69,150,180,9,None,20,20,0,True,,,,right,1.9779326939897146,None,,,,,,,,,,,,,0,20,20,20,641.8089523269882,,,,,,,,,,,,,,,,,,,,,,,,,,,,,,,,,,,,,,,,,,,,,,,,,,,,,,,,,,,,,,,,,,,,,,,,,641.7994576429919,641.8089523269882,642.8105388979893,643.8094304139959,643.8094304139959,643.8094304139959,645.7948008859967,right,1.9779326939897146,None,,,,,,,,,,,289553,001,2024-12-05_13h26.03.960,Test,2024.2.1,59.38888716502516,2024-12-05 13h26.18.523237 +0100,
54,150,90,21,None,21,21,0,True,,,,left,1.7328418270044494,None,,,,,,,,,,,,,0,21,21,21,645.8111484269903,,,,,,,,,,,,,,,,,,,,,,,,,,,,,,,,,,,,,,,,,,,,,,,,,,,,,,,,,,,,,,,,,,,,,,,,,645.8022955079941,645.8111484269903,646.8106593059929,647.8370077649888,647.8370077649888,647.8370077649888,649.5783282599878,left,1.7328418270044494,None,,,,,,,,,,,289553,001,2024-12-05_13h26.03.960,Test,2024.2.1,59.38888716502516,2024-12-05 13h26.18.523237 +0100,
53,150,90,62,None,22,22,0,True,,,,right,0.7759293400013121,None,,,,,,,,,,,,,0,22,22,22,649.5969146349962,,,,,,,,,,,,,,,,,,,,,,,,,,,,,,,,,,,,,,,,,,,,,,,,,,,,,,,,,,,,,,,,,,,,,,,,,649.5870629109995,649.5969146349962,650.6100223379908,651.5767525929987,651.5767525929987,651.5767525929987,652.3614017979999,right,0.7759293400013121,None,,,,,,,,,,,289553,001,2024-12-05_13h26.03.960,Test,2024.2.1,59.38888716502516,2024-12-05 13h26.18.523237 +0100,
29,150,150,43,None,23,23,0,False,,,,right,1.1341323529923102,None,,,,,,,,,,,,,0,23,23,23,652.3773006879928,,,,,,,,,,,,,,,,,,,,,,,,,,,,,,,,,,,,,,,,,,,,,,,,,,,,,,,,,,,,,,,,,,,,,,,,,652.3683622399985,652.3773006879928,653.3774856659875,654.3605236579897,654.3605236579897,654.3605236579897,655.5121454039909,right,1.1341323529923102,None,,,,,,,,,,,289553,001,2024-12-05_13h26.03.960,Test,2024.2.1,59.38888716502516,2024-12-05 13h26.18.523237 +0100,
56,150,120,16,None,24,24,0,True,,,,right,2.1679989109979942,None,,,,,,,,,,,,,0,24,24,24,655.5294999609905,,,,,,,,,,,,,,,,,,,,,,,,,,,,,,,,,,,,,,,,,,,,,,,,,,,,,,,,,,,,,,,,,,,,,,,,,655.5203417640005,655.5294999609905,656.5439662469871,657.5274362289929,657.5274362289929,657.5274362289929,659.7127786339988,right,2.1679989109979942,None,,,,,,,,,,,289553,001,2024-12-05_13h26.03.960,Test,2024.2.1,59.38888716502516,2024-12-05 13h26.18.523237 +0100,
61,150,150,51,None,25,25,0,True,,,,right,0.8769500799971865,None,,,,,,,,,,,,,0,25,25,25,659.7278327039967,,,,,,,,,,,,,,,,,,,,,,,,,,,,,,,,,,,,,,,,,,,,,,,,,,,,,,,,,,,,,,,,,,,,,,,,,659.7182718119875,659.7278327039967,660.7274533599993,661.7276487619965,661.7276487619965,661.7276487619965,662.6124192009884,right,0.8769500799971865,None,,,,,,,,,,,289553,001,2024-12-05_13h26.03.960,Test,2024.2.1,59.38888716502516,2024-12-05 13h26.18.523237 +0100,
41,150,30,19,None,26,26,0,True,,,,right,2.8503389800025616,None,,,,,,,,,,,,,0,26,26,26,662.6290037169965,,,,,,,,,,,,,,,,,,,,,,,,,,,,,,,,,,,,,,,,,,,,,,,,,,,,,,,,,,,,,,,,,,,,,,,,,662.6197988169879,662.6290037169965,663.7925950589997,664.6121928489883,664.6121928489883,664.6121928489883,667.4801303929999,right,2.8503389800025616,None,,,,,,,,,,,289553,001,2024-12-05_13h26.03.960,Test,2024.2.1,59.38888716502516,2024-12-05 13h26.18.523237 +0100,
66,150,180,60,None,27,27,0,True,,,,right,0.8998921720049111,None,,,,,,,,,,,,,0,27,27,27,667.4960953549889,,,,,,,,,,,,,,,,,,,,,,,,,,,,,,,,,,,,,,,,,,,,,,,,,,,,,,,,,,,,,,,,,,,,,,,,,667.4866581969982,667.4960953549889,668.5116869579942,669.4957321129914,669.4957321129914,669.4957321129914,670.4128415890009,right,0.8998921720049111,None,,,,,,,,,,,289553,001,2024-12-05_13h26.03.960,Test,2024.2.1,59.38888716502516,2024-12-05 13h26.18.523237 +0100,
59,150,120,30,None,28,28,0,True,,,,left,2.767858934996184,None,,,,,,,,,,,,,0,28,28,28,670.4278391639964,,,,,,,,,,,,,,,,,,,,,,,,,,,,,,,,,,,,,,,,,,,,,,,,,,,,,,,,,,,,,,,,,,,,,,,,,670.4193573289958,670.4278391639964,671.4286185529927,672.4281177699886,672.4281177699886,672.4281177699886,675.1983906559908,left,2.767858934996184,None,,,,,,,,,,,289553,001,2024-12-05_13h26.03.960,Test,2024.2.1,59.38888716502516,2024-12-05 13h26.18.523237 +0100,
19,150,90,22,None,29,29,0,False,,,,left,1.1603089150012238,None,,,,,,,,,,,,,0,29,29,29,675.2113482569985,,,,,,,,,,,,,,,,,,,,,,,,,,,,,,,,,,,,,,,,,,,,,,,,,,,,,,,,,,,,,,,,,,,,,,,,,675.2019496579887,675.2113482569985,676.2120358719985,677.2119908239983,677.2119908239983,677.2119908239983,678.3799453019892,left,1.1603089150012238,None,,,,,,,,,,,289553,001,2024-12-05_13h26.03.960,Test,2024.2.1,59.38888716502516,2024-12-05 13h26.18.523237 +0100,
48,150,60,7,None,30,30,0,True,,,,left,1.0140433429914992,None,,,,,,,,,,,,,0,30,30,30,678.3955737849901,,,,,,,,,,,,,,,,,,,,,,,,,,,,,,,,,,,,,,,,,,,,,,,,,,,,,,,,,,,,,,,,,,,,,,,,,678.3864747539919,678.3955737849901,679.3953399799939,680.3953388919908,680.3953388919908,680.3953388919908,681.4143370879901,left,1.0140433429914992,None,,,,,,,,,,,289553,001,2024-12-05_13h26.03.960,Test,2024.2.1,59.38888716502516,2024-12-05 13h26.18.523237 +0100,
3,150,0,39,None,31,31,0,False,,,,left,4.470396492994041,None,,,,,,,,,,,,,0,31,31,31,681.4299910519912,,,,,,,,,,,,,,,,,,,,,,,,,,,,,,,,,,,,,,,,,,,,,,,,,,,,,,,,,,,,,,,,,,,,,,,,,681.4199494539935,681.4299910519912,682.4287650949991,683.4288062799897,683.4288062799897,683.4288062799897,687.9138064589933,left,4.470396492994041,None,686.4294363949884,686.4294363949884,686.4294363949884,,,,,,,,289553,001,2024-12-05_13h26.03.960,Test,2024.2.1,59.38888716502516,2024-12-05 13h26.18.523237 +0100,
12,150,60,14,None,32,32,0,False,,,,right,1.9826874210120877,None,,,,,,,,,,,,,0,32,32,32,687.9291547839966,,,,,,,,,,,,,,,,,,,,,,,,,,,,,,,,,,,,,,,,,,,,,,,,,,,,,,,,,,,,,,,,,,,,,,,,,687.919262875992,687.9291547839966,688.9298456589895,689.9139986379887,689.9139986379887,689.9139986379887,691.8991445209977,right,1.9826874210120877,None,,,,,,,,,,,289553,001,2024-12-05_13h26.03.960,Test,2024.2.1,59.38888716502516,2024-12-05 13h26.18.523237 +0100,
63,150,150,20,None,33,33,0,True,,,,left,1.3102242680033669,None,,,,,,,,,,,,,0,33,33,33,691.9138165159966,,,,,,,,,,,,,,,,,,,,,,,,,,,,,,,,,,,,,,,,,,,,,,,,,,,,,,,,,,,,,,,,,,,,,,,,,691.9043296369928,691.9138165159966,692.9131006370008,693.9127641329978,693.9127641329978,693.9127641329978,695.231163118995,left,1.3102242680033669,None,,,,,,,,,,,289553,001,2024-12-05_13h26.03.960,Test,2024.2.1,59.38888716502516,2024-12-05 13h26.18.523237 +0100,
28,150,150,36,None,34,34,0,False,,,,right,1.36982500400336,None,,,,,,,,,,,,,0,34,34,34,695.245998901999,,,,,,,,,,,,,,,,,,,,,,,,,,,,,,,,,,,,,,,,,,,,,,,,,,,,,,,,,,,,,,,,,,,,,,,,,695.2356708519947,695.245998901999,696.2463292600005,697.2464872599958,697.2464872599958,697.2464872599958,698.6326475679962,right,1.36982500400336,None,,,,,,,,,,,289553,001,2024-12-05_13h26.03.960,Test,2024.2.1,59.38888716502516,2024-12-05 13h26.18.523237 +0100,
21,150,120,27,None,35,35,0,False,,,,left,1.0373729330021888,None,,,,,,,,,,,,,0,35,35,35,698.648146787993,,,,,,,,,,,,,,,,,,,,,,,,,,,,,,,,,,,,,,,,,,,,,,,,,,,,,,,,,,,,,,,,,,,,,,,,,698.6389208229957,698.648146787993,699.663132857997,700.6467262239894,700.6467262239894,700.6467262239894,701.6991660579952,left,1.0373729330021888,None,,,,,,,,,,,289553,001,2024-12-05_13h26.03.960,Test,2024.2.1,59.38888716502516,2024-12-05 13h26.18.523237 +0100,
67,150,180,26,None,36,36,0,True,,,,left,1.0682655830023577,None,,,,,,,,,,,,,0,36,36,36,701.7136736999964,,,,,,,,,,,,,,,,,,,,,,,,,,,,,,,,,,,,,,,,,,,,,,,,,,,,,,,,,,,,,,,,,,,,,,,,,701.7046028429904,701.7136736999964,702.7147555059928,703.7134081959957,703.7134081959957,703.7134081959957,704.7990161509952,left,1.0682655830023577,None,,,,,,,,,,,289553,001,2024-12-05_13h26.03.960,Test,2024.2.1,59.38888716502516,2024-12-05 13h26.18.523237 +0100,
5,150,0,4,None,37,37,0,False,,,,left,1.4045877239987021,None,,,,,,,,,,,,,0,37,37,37,704.8146214699955,,,,,,,,,,,,,,,,,,,,,,,,,,,,,,,,,,,,,,,,,,,,,,,,,,,,,,,,,,,,,,,,,,,,,,,,,704.8045567119989,704.8146214699955,705.8137056089909,706.8140112779947,706.8140112779947,706.8140112779947,708.2327376489993,left,1.4045877239987021,None,,,,,,,,,,,289553,001,2024-12-05_13h26.03.960,Test,2024.2.1,59.38888716502516,2024-12-05 13h26.18.523237 +0100,
10,150,30,49,None,38,38,0,False,,,,left,3.6100266619905597,None,,,,,,,,,,,,,0,38,38,38,708.2505371180014,,,,,,,,,,,,,,,,,,,,,,,,,,,,,,,,,,,,,,,,,,,,,,,,,,,,,,,,,,,,,,,,,,,,,,,,,708.2417011439975,708.2505371180014,709.2643298179901,710.2474492030015,710.2474492030015,710.2474492030015,713.8656938130007,left,3.6100266619905597,None,713.2477157469984,713.2477157469984,713.2477157469984,,,,,,,,289553,001,2024-12-05_13h26.03.960,Test,2024.2.1,59.38888716502516,2024-12-05 13h26.18.523237 +0100,
13,150,60,41,None,39,39,0,False,,,,right,0.9820561550004641,None,,,,,,,,,,,,,0,39,39,39,713.8805844029994,,,,,,,,,,,,,,,,,,,,,,,,,,,,,,,,,,,,,,,,,,,,,,,,,,,,,,,,,,,,,,,,,,,,,,,,,713.8709020599927,713.8805844029994,714.8812097099872,715.8813990599883,715.8813990599883,715.8813990599883,716.8676155360008,right,0.9820561550004641,None,,,,,,,,,,,289553,001,2024-12-05_13h26.03.960,Test,2024.2.1,59.38888716502516,2024-12-05 13h26.18.523237 +0100,
58,150,120,47,None,40,40,0,True,,,,left,1.0877553919999627,None,,,,,,,,,,,,,0,40,40,40,716.882773166988,,,,,,,,,,,,,,,,,,,,,,,,,,,,,,,,,,,,,,,,,,,,,,,,,,,,,,,,,,,,,,,,,,,,,,,,,716.8730124799913,716.882773166988,717.8816561729909,718.8810248249938,718.8810248249938,718.8810248249938,719.9829638689989,left,1.0877553919999627,None,,,,,,,,,,,289553,001,2024-12-05_13h26.03.960,Test,2024.2.1,59.38888716502516,2024-12-05 13h26.18.523237 +0100,
32,150,180,18,None,41,41,0,False,,,,right,1.6025072039919905,None,,,,,,,,,,,,,0,41,41,41,720.0007211699995,,,,,,,,,,,,,,,,,,,,,,,,,,,,,,,,,,,,,,,,,,,,,,,,,,,,,,,,,,,,,,,,,,,,,,,,,719.9916194849939,720.0007211699995,721.0141535449948,721.998512909995,721.998512909995,721.998512909995,723.616555799992,right,1.6025072039919905,None,,,,,,,,,,,289553,001,2024-12-05_13h26.03.960,Test,2024.2.1,59.38888716502516,2024-12-05 13h26.18.523237 +0100,
27,150,150,15,None,42,42,0,False,,,,right,0.7525714400107972,None,,,,,,,,,,,,,0,42,42,42,723.6313496090006,,,,,,,,,,,,,,,,,,,,,,,,,,,,,,,,,,,,,,,,,,,,,,,,,,,,,,,,,,,,,,,,,,,,,,,,,723.6219701480004,723.6313496090006,724.6328669279901,725.6159753029933,725.6159753029933,725.6159753029933,726.3839285689901,right,0.7525714400107972,None,,,,,,,,,,,289553,001,2024-12-05_13h26.03.960,Test,2024.2.1,59.38888716502516,2024-12-05 13h26.18.523237 +0100,
70,150,180,57,None,43,43,0,True,,,,right,0.7997144629916875,None,,,,,,,,,,,,,0,43,43,43,726.3995313529886,,,,,,,,,,,,,,,,,,,,,,,,,,,,,,,,,,,,,,,,,,,,,,,,,,,,,,,,,,,,,,,,,,,,,,,,,726.3899028710002,726.3995313529886,727.4152500669879,728.382847750996,728.382847750996,728.382847750996,729.1849325359944,right,0.7997144629916875,None,,,,,,,,,,,289553,001,2024-12-05_13h26.03.960,Test,2024.2.1,59.38888716502516,2024-12-05 13h26.18.523237 +0100,
6,150,30,12,None,44,44,0,False,,,,right,0.7549462649913039,None,,,,,,,,,,,,,0,44,44,44,729.1990854059986,,,,,,,,,,,,,,,,,,,,,,,,,,,,,,,,,,,,,,,,,,,,,,,,,,,,,,,,,,,,,,,,,,,,,,,,,729.1902102019958,729.1990854059986,730.1988859159901,731.1997028949991,731.1997028949991,731.1997028949991,731.9666134049912,right,0.7549462649913039,None,,,,,,,,,,,289553,001,2024-12-05_13h26.03.960,Test,2024.2.1,59.38888716502516,2024-12-05 13h26.18.523237 +0100,
22,150,120,17,None,45,45,0,False,,,,right,0.5929633129999274,None,,,,,,,,,,,,,0,45,45,45,731.9824606539914,,,,,,,,,,,,,,,,,,,,,,,,,,,,,,,,,,,,,,,,,,,,,,,,,,,,,,,,,,,,,,,,,,,,,,,,,731.9732552709902,731.9824606539914,732.9834045069874,733.9663656899938,733.9663656899938,733.9663656899938,734.5673875969951,right,0.5929633129999274,None,,,,,,,,,,,289553,001,2024-12-05_13h26.03.960,Test,2024.2.1,59.38888716502516,2024-12-05 13h26.18.523237 +0100,
64,150,150,11,None,46,46,0,True,,,,left,1.7605799860029947,None,,,,,,,,,,,,,0,46,46,46,734.5871459349873,,,,,,,,,,,,,,,,,,,,,,,,,,,,,,,,,,,,,,,,,,,,,,,,,,,,,,,,,,,,,,,,,,,,,,,,,734.5762466129963,734.5871459349873,735.5994143879943,736.5825911369902,736.5825911369902,736.5825911369902,738.3517932879913,left,1.7605799860029947,None,,,,,,,,,,,289553,001,2024-12-05_13h26.03.960,Test,2024.2.1,59.38888716502516,2024-12-05 13h26.18.523237 +0100,
7,150,30,58,None,47,47,0,False,,,,right,0.8822207960038213,None,,,,,,,,,,,,,0,47,47,47,738.3696265100007,,,,,,,,,,,,,,,,,,,,,,,,,,,,,,,,,,,,,,,,,,,,,,,,,,,,,,,,,,,,,,,,,,,,,,,,,738.3604268499912,738.3696265100007,739.3829657619935,740.3664896039991,740.3664896039991,740.3664896039991,741.2520813379961,right,0.8822207960038213,None,,,,,,,,,,,289553,001,2024-12-05_13h26.03.960,Test,2024.2.1,59.38888716502516,2024-12-05 13h26.18.523237 +0100,
26,150,150,56,None,48,48,0,False,,,,right,0.5846695900108898,None,,,,,,,,,,,,,0,48,48,48,741.268456862992,,,,,,,,,,,,,,,,,,,,,,,,,,,,,,,,,,,,,,,,,,,,,,,,,,,,,,,,,,,,,,,,,,,,,,,,,741.2594716339954,741.268456862992,742.2835991629981,743.2665482439916,743.2665482439916,743.2665482439916,743.8689352739893,right,0.5846695900108898,None,,,,,,,,,,,289553,001,2024-12-05_13h26.03.960,Test,2024.2.1,59.38888716502516,2024-12-05 13h26.18.523237 +0100,
17,150,90,35,None,49,49,0,False,,,,left,0.7587272569944616,None,,,,,,,,,,,,,0,49,49,49,743.885300073991,,,,,,,,,,,,,,,,,,,,,,,,,,,,,,,,,,,,,,,,,,,,,,,,,,,,,,,,,,,,,,,,,,,,,,,,,743.8764583379962,743.885300073991,744.9008338040003,745.8843866989919,745.8843866989919,745.8843866989919,746.6518142769928,left,0.7587272569944616,None,,,,,,,,,,,289553,001,2024-12-05_13h26.03.960,Test,2024.2.1,59.38888716502516,2024-12-05 13h26.18.523237 +0100,
60,150,120,3,None,50,50,0,True,,,,left,0.8237435269984417,None,,,,,,,,,,,,,0,50,50,50,746.6669526920014,,,,,,,,,,,,,,,,,,,,,,,,,,,,,,,,,,,,,,,,,,,,,,,,,,,,,,,,,,,,,,,,,,,,,,,,,746.6575668199948,746.6669526920014,747.666977351997,748.6515624299936,748.6515624299936,748.6515624299936,749.4847315389925,left,0.8237435269984417,None,,,,,,,,,,,289553,001,2024-12-05_13h26.03.960,Test,2024.2.1,59.38888716502516,2024-12-05 13h26.18.523237 +0100,
31,150,180,45,None,51,51,0,False,,,,right,0.8049398130096961,None,,,,,,,,,,,,,0,51,51,51,749.5005879539967,,,,,,,,,,,,,,,,,,,,,,,,,,,,,,,,,,,,,,,,,,,,,,,,,,,,,,,,,,,,,,,,,,,,,,,,,749.4912861779885,749.5005879539967,750.5002776429901,751.4840909969935,751.4840909969935,751.4840909969935,752.3017458739923,right,0.8049398130096961,None,,,,,,,,,,,289553,001,2024-12-05_13h26.03.960,Test,2024.2.1,59.38888716502516,2024-12-05 13h26.18.523237 +0100,
4,150,0,68,None,52,52,0,False,,,,left,2.386421724993852,None,,,,,,,,,,,,,0,52,52,52,752.3170161649905,,,,,,,,,,,,,,,,,,,,,,,,,,,,,,,,,,,,,,,,,,,,,,,,,,,,,,,,,,,,,,,,,,,,,,,,,752.3081907329906,752.3170161649905,753.3171576379973,754.3177543369966,754.3177543369966,754.3177543369966,756.71942971299,left,2.386421724993852,None,,,,,,,,,,,289553,001,2024-12-05_13h26.03.960,Test,2024.2.1,59.38888716502516,2024-12-05 13h26.18.523237 +0100,
20,150,90,37,None,53,53,0,False,,,,left,0.803670098001021,None,,,,,,,,,,,,,0,53,53,53,756.7356132979912,,,,,,,,,,,,,,,,,,,,,,,,,,,,,,,,,,,,,,,,,,,,,,,,,,,,,,,,,,,,,,,,,,,,,,,,,756.7263848149887,756.7356132979912,757.7342861759971,758.7342901410011,758.7342901410011,758.7342901410011,759.5524994779989,left,0.803670098001021,None,,,,,,,,,,,289553,001,2024-12-05_13h26.03.960,Test,2024.2.1,59.38888716502516,2024-12-05 13h26.18.523237 +0100,
44,150,30,13,None,54,54,0,True,,,,left,1.1554658609966282,None,,,,,,,,,,,,,0,54,54,54,759.5683885539911,,,,,,,,,,,,,,,,,,,,,,,,,,,,,,,,,,,,,,,,,,,,,,,,,,,,,,,,,,,,,,,,,,,,,,,,,759.5590610379877,759.5683885539911,760.5687466239906,761.5681898729963,761.5681898729963,761.5681898729963,762.7367496509978,left,1.1554658609966282,None,,,,,,,,,,,289553,001,2024-12-05_13h26.03.960,Test,2024.2.1,59.38888716502516,2024-12-05 13h26.18.523237 +0100,
37,150,0,5,None,55,55,0,True,,,,right,1.3949473700049566,None,,,,,,,,,,,,,0,55,55,55,762.7526498639927,,,,,,,,,,,,,,,,,,,,,,,,,,,,,,,,,,,,,,,,,,,,,,,,,,,,,,,,,,,,,,,,,,,,,,,,,762.744072713991,762.7526498639927,763.7680083209998,764.7513990609878,764.7513990609878,764.7513990609878,766.1529543929937,right,1.3949473700049566,None,,,,,,,,,,,289553,001,2024-12-05_13h26.03.960,Test,2024.2.1,59.38888716502516,2024-12-05 13h26.18.523237 +0100,
25,150,120,64,None,56,56,0,False,,,,right,2.918179569009226,None,,,,,,,,,,,,,0,56,56,56,766.1691578439932,,,,,,,,,,,,,,,,,,,,,,,,,,,,,,,,,,,,,,,,,,,,,,,,,,,,,,,,,,,,,,,,,,,,,,,,,766.1603408219962,766.1691578439932,767.1691642369988,768.1683893820009,768.1683893820009,768.1683893820009,771.1033236459916,right,2.918179569009226,None,,,,,,,,,,,289553,001,2024-12-05_13h26.03.960,Test,2024.2.1,59.38888716502516,2024-12-05 13h26.18.523237 +0100,
33,150,180,38,None,57,57,0,False,,,,right,0.7520158979896223,None,,,,,,,,,,,,,0,57,57,57,771.1183299319964,,,,,,,,,,,,,,,,,,,,,,,,,,,,,,,,,,,,,,,,,,,,,,,,,,,,,,,,,,,,,,,,,,,,,,,,,771.1089162969874,771.1183299319964,772.1185290819994,773.1017169169936,773.1017169169936,773.1017169169936,773.870180672995,right,0.7520158979896223,None,,,,,,,,,,,289553,001,2024-12-05_13h26.03.960,Test,2024.2.1,59.38888716502516,2024-12-05 13h26.18.523237 +0100,
18,150,90,10,None,58,58,0,False,,,,right,0.8552367070078617,None,,,,,,,,,,,,,0,58,58,58,773.8863670009887,,,,,,,,,,,,,,,,,,,,,,,,,,,,,,,,,,,,,,,,,,,,,,,,,,,,,,,,,,,,,,,,,,,,,,,,,773.8767454599874,773.8863670009887,774.8852463369985,775.8693310999952,775.8693310999952,775.8693310999952,776.7365726360003,right,0.8552367070078617,None,,,,,,,,,,,289553,001,2024-12-05_13h26.03.960,Test,2024.2.1,59.38888716502516,2024-12-05 13h26.18.523237 +0100,
9,150,30,34,None,59,59,0,False,,,,left,0.8946527590014739,None,,,,,,,,,,,,,0,59,59,59,776.752383242987,,,,,,,,,,,,,,,,,,,,,,,,,,,,,,,,,,,,,,,,,,,,,,,,,,,,,,,,,,,,,,,,,,,,,,,,,776.7433582269878,776.752383242987,777.7520899139927,778.7358072979987,778.7358072979987,778.7358072979987,779.637178688994,left,0.8946527590014739,None,,,,,,,,,,,289553,001,2024-12-05_13h26.03.960,Test,2024.2.1,59.38888716502516,2024-12-05 13h26.18.523237 +0100,
1,150,0,6,None,60,60,0,False,,,,right,1.4002632119954797,None,,,,,,,,,,,,,0,60,60,60,779.6525605789939,,,,,,,,,,,,,,,,,,,,,,,,,,,,,,,,,,,,,,,,,,,,,,,,,,,,,,,,,,,,,,,,,,,,,,,,,779.6431097369932,779.6525605789939,780.6523352439981,781.6525676839956,781.6525676839956,781.6525676839956,783.055312728,right,1.4002632119954797,None,,,,,,,,,,,289553,001,2024-12-05_13h26.03.960,Test,2024.2.1,59.38888716502516,2024-12-05 13h26.18.523237 +0100,
34,150,180,25,None,61,61,0,False,,,,right,1.070501679991139,None,,,,,,,,,,,,,0,61,61,61,783.0712536359933,,,,,,,,,,,,,,,,,,,,,,,,,,,,,,,,,,,,,,,,,,,,,,,,,,,,,,,,,,,,,,,,,,,,,,,,,783.0625866189948,783.0712536359933,784.0860678460012,785.0699408439978,785.0699408439978,785.0699408439978,786.1542485209939,right,1.070501679991139,None,,,,,,,,,,,289553,001,2024-12-05_13h26.03.960,Test,2024.2.1,59.38888716502516,2024-12-05 13h26.18.523237 +0100,
43,150,30,29,None,62,62,0,True,,,,right,1.5076757859933423,None,,,,,,,,,,,,,0,62,62,62,786.1694019209972,,,,,,,,,,,,,,,,,,,,,,,,,,,,,,,,,,,,,,,,,,,,,,,,,,,,,,,,,,,,,,,,,,,,,,,,,786.1600049219996,786.1694019209972,787.1705352969875,788.1699289019889,788.1699289019889,788.1699289019889,789.6879914429883,right,1.5076757859933423,None,,,,,,,,,,,289553,001,2024-12-05_13h26.03.960,Test,2024.2.1,59.38888716502516,2024-12-05 13h26.18.523237 +0100,
14,150,60,65,None,63,63,0,False,,,,left,0.6433220530016115,None,,,,,,,,,,,,,0,63,63,63,789.7027798779891,,,,,,,,,,,,,,,,,,,,,,,,,,,,,,,,,,,,,,,,,,,,,,,,,,,,,,,,,,,,,,,,,,,,,,,,,789.6932407049899,789.7027798779891,790.7030768219993,791.6872798869881,791.6872798869881,791.6872798869881,792.3382716979977,left,0.6433220530016115,None,,,,,,,,,,,289553,001,2024-12-05_13h26.03.960,Test,2024.2.1,59.38888716502516,2024-12-05 13h26.18.523237 +0100,
55,150,90,67,None,64,64,0,True,,,,left,0.5175908660021378,None,,,,,,,,,,,,,0,64,64,64,792.3524725710013,,,,,,,,,,,,,,,,,,,,,,,,,,,,,,,,,,,,,,,,,,,,,,,,,,,,,,,,,,,,,,,,,,,,,,,,,792.3432167579886,792.3524725710013,793.3531688249932,794.3532434049994,794.3532434049994,794.3532434049994,794.8886313849944,left,0.5175908660021378,None,,,,,,,,,,,289553,001,2024-12-05_13h26.03.960,Test,2024.2.1,59.38888716502516,2024-12-05 13h26.18.523237 +0100,
57,150,120,50,None,65,65,0,True,,,,right,0.9360535309970146,None,,,,,,,,,,,,,0,65,65,65,794.903833851,,,,,,,,,,,,,,,,,,,,,,,,,,,,,,,,,,,,,,,,,,,,,,,,,,,,,,,,,,,,,,,,,,,,,,,,,794.8943788789911,794.903833851,795.903420837989,796.9035558350006,796.9035558350006,796.9035558350006,797.8557885889895,right,0.9360535309970146,None,,,,,,,,,,,289553,001,2024-12-05_13h26.03.960,Test,2024.2.1,59.38888716502516,2024-12-05 13h26.18.523237 +0100,
50,150,60,33,None,66,66,0,True,,,,left,2.1012425030057784,None,,,,,,,,,,,,,0,66,66,66,797.8853697489976,,,,,,,,,,,,,,,,,,,,,,,,,,,,,,,,,,,,,,,,,,,,,,,,,,,,,,,,,,,,,,,,,,,,,,,,,797.8622907579993,797.8853697489976,798.8864544519893,799.8699519379879,799.8699519379879,799.8699519379879,801.9737356729893,left,2.1012425030057784,None,,,,,,,,,,,289553,001,2024-12-05_13h26.03.960,Test,2024.2.1,59.38888716502516,2024-12-05 13h26.18.523237 +0100,
51,150,90,24,None,67,67,0,True,,,,left,0.7356427699996857,None,,,,,,,,,,,,,0,67,67,67,801.9882444690011,,,,,,,,,,,,,,,,,,,,,,,,,,,,,,,,,,,,,,,,,,,,,,,,,,,,,,,,,,,,,,,,,,,,,,,,,801.9789507749956,801.9882444690011,802.9882212800003,803.987260304988,803.987260304988,803.987260304988,804.7397014019953,left,0.7356427699996857,None,,,,,,,,,,,289553,001,2024-12-05_13h26.03.960,Test,2024.2.1,59.38888716502516,2024-12-05 13h26.18.523237 +0100,
45,150,30,54,None,68,68,0,True,,,,left,0.8925108410039684,None,,,,,,,,,,,,,0,68,68,68,804.7548520139972,,,,,,,,,,,,,,,,,,,,,,,,,,,,,,,,,,,,,,,,,,,,,,,,,,,,,,,,,,,,,,,,,,,,,,,,,804.7453101839928,804.7548520139972,805.7539565329935,806.753959676993,806.753959676993,806.753959676993,807.6549167319899,left,0.8925108410039684,None,,,,,,,,,,,289553,001,2024-12-05_13h26.03.960,Test,2024.2.1,59.38888716502516,2024-12-05 13h26.18.523237 +0100,
36,150,0,31,None,69,69,0,True,,,,left,0.9041139990004012,None,,,,,,,,,,,,,0,69,69,69,807.6711397030012,,,,,,,,,,,,,,,,,,,,,,,,,,,,,,,,,,,,,,,,,,,,,,,,,,,,,,,,,,,,,,,,,,,,,,,,,807.6621206769923,807.6711397030012,808.6716156529874,809.6541538629972,809.6541538629972,809.6541538629972,810.5728304359945,left,0.9041139990004012,None,,,,,,,,,,,289553,001,2024-12-05_13h26.03.960,Test,2024.2.1,59.38888716502516,2024-12-05 13h26.18.523237 +0100,
,,,,,,,,,,,,,,,,,,,,,,,,,,,,,,,,,,,,,,,,,,,,,,,,,,,,,,,,,,,,,,,,,,,,,,,,,,,,,,,,,,,,,,,,,,,,,,,,,,,,,,,,,,,,,,,,,,,,,810.5730401030014,810.5879031499935,810.5879031499935,813.1058759149892,space,2.504424104001373,None,289553,001,2024-12-05_13h26.03.960,Test,2024.2.1,59.38888716502516,2024-12-05 13h26.18.523237 +0100,
