Trial_Number,Exposure_Duration,Displacement_Angle,Stimulus,Response,thisN,thisTrialN,thisRepN,Is_Distractor,key_resp_3.keys,key_resp_3.rt,key_resp_3.duration,key_resp_7.keys,key_resp_7.rt,key_resp_7.duration,trials.thisRepN,trials.thisTrialN,trials.thisN,trials.thisIndex,trials_2.thisRepN,trials_2.thisTrialN,trials_2.thisN,trials_2.thisIndex,trials_3.thisRepN,trials_3.thisTrialN,trials_3.thisN,trials_3.thisIndex,trials_4.thisRepN,trials_4.thisTrialN,trials_4.thisN,trials_4.thisIndex,thisRow.t,notes,Intro_to_experiment.started,important1_2.started,key_resp_8.started,Intro_to_experiment.stopped,key_resp_8.keys,key_resp_8.rt,key_resp_8.duration,important.started,important1.started,key_resp_4.started,important.stopped,key_resp_4.keys,key_resp_4.rt,key_resp_4.duration,instruction.started,text_7.started,key_resp_9.started,text_7.stopped,instruction.stopped,key_resp_9.keys,key_resp_9.rt,key_resp_9.duration,training_trial.started,cross.started,image.started,aperture.started,cross.stopped,image.stopped,aperture.stopped,training_trial.stopped,New_instruction.started,text.started,key_resp_2.started,New_instruction.stopped,key_resp_2.keys,key_resp_2.rt,key_resp_2.duration,test_trial.started,cross2.started,cross2.stopped,image_2.started,key_resp_3.started,aperture_2.started,test_trial.stopped,trials_2.key_resp_3.keys,trials_2.key_resp_3.rt,trials_2.key_resp_3.duration,image_2.stopped,text_3.started,aperture_2.stopped,start_blok_2.started,key_resp_5.started,text_4.started,start_blok_2.stopped,key_resp_5.keys,key_resp_5.rt,key_resp_5.duration,training_2.started,cross_2.started,image_3.started,aperture_3.started,cross_2.stopped,image_3.stopped,aperture_3.stopped,training_2.stopped,nyeste_instruks.started,text_5.started,key_resp_6.started,nyeste_instruks.stopped,key_resp_6.keys,key_resp_6.rt,key_resp_6.duration,test_2.started,cross2_2.started,cross2_2.stopped,image_4.started,key_resp_7.started,aperture_4.started,test_2.stopped,trials_4.key_resp_7.keys,trials_4.key_resp_7.rt,trials_4.key_resp_7.duration,Instruction1.started,Instruktion.started,key_resp.started,Instruction1.stopped,key_resp.keys,key_resp.rt,key_resp.duration,participant,session,date,expName,psychopyVersion,frameRate,expStart,
,,,,,,,,,,,,,,,,,,,,,,,,,,,,,,,,,0.009812972999952763,0.02338116100008847,0.02338116100008847,158.23262630499994,space,158.17433914100002,None,,,,,,,,,,,,,,,,,,,,,,,,,,,,,,,,,,,,,,,,,,,,,,,,,,,,,,,,,,,,,,,,,,,,,,,,,,,,,,,,,,,305240,001,2024-11-28_15h54.46.848,Test,2024.2.1,60.0539673777155,2024-11-28 15h54.56.968589 +0100,
,,,,,,,,,,,,,,,,,,,,,,,,,,,,,,,,,,,,,,,,158.23269599700006,158.25192837799977,158.25192837799977,174.69353489600007,space,16.428727121000065,None,,,,,,,,,,,,,,,,,,,,,,,,,,,,,,,,,,,,,,,,,,,,,,,,,,,,,,,,,,,,,,,,,,,,,,,,,,,,305240,001,2024-11-28_15h54.46.848,Test,2024.2.1,60.0539673777155,2024-11-28 15h54.56.968589 +0100,
,,,,,,,,,,,,,,,,,,,,,,,,,,,,,,,,,,,,,,,,,,,,,,,174.69359479800005,174.7079318440001,174.7079318440001,175.70808159599983,184.2607510570001,space,9.548559386999841,None,,,,,,,,,,,,,,,,,,,,,,,,,,,,,,,,,,,,,,,,,,,,,,,,,,,,,,,,,,,,,,,,,,,,305240,001,2024-11-28_15h54.46.848,Test,2024.2.1,60.0539673777155,2024-11-28 15h54.56.968589 +0100,
13,150,60,9,None,0,0,0,,,,,,,,0,0,0,12,,,,,,,,,,,,,184.28909476399986,,,,,,,,,,,,,,,,,,,,,,,,184.2796605159997,184.28909476399986,184.4751943389997,184.4751943389997,184.49176562999992,186.1752775,186.1752775,186.1597491819998,,,,,,,,,,,,,,,,,,,,,,,,,,,,,,,,,,,,,,,,,,,,,,,,,,,,,,,,,,,,305240,001,2024-11-28_15h54.46.848,Test,2024.2.1,60.0539673777155,2024-11-28 15h54.56.968589 +0100,
29,150,150,43,None,1,1,0,,,,,,,,0,1,1,28,,,,,,,,,,,,,186.1752775,,,,,,,,,,,,,,,,,,,,,,,,186.16693352799984,186.1752775,186.37565748499992,186.37565748499992,186.37565748499992,188.07646587599993,188.07646587599993,188.05973236699992,,,,,,,,,,,,,,,,,,,,,,,,,,,,,,,,,,,,,,,,,,,,,,,,,,,,,,,,,,,,305240,001,2024-11-28_15h54.46.848,Test,2024.2.1,60.0539673777155,2024-11-28 15h54.56.968589 +0100,
31,150,180,20,None,2,2,0,,,,,,,,0,2,2,30,,,,,,,,,,,,,188.07646587599993,,,,,,,,,,,,,,,,,,,,,,,,188.0676220559999,188.07646587599993,188.2754510300001,188.2754510300001,188.2754510300001,189.9794690929998,189.9794690929998,189.96115593800005,,,,,,,,,,,,,,,,,,,,,,,,,,,,,,,,,,,,,,,,,,,,,,,,,,,,,,,,,,,,305240,001,2024-11-28_15h54.46.848,Test,2024.2.1,60.0539673777155,2024-11-28 15h54.56.968589 +0100,
33,150,180,67,None,3,3,0,,,,,,,,0,3,3,32,,,,,,,,,,,,,189.9794690929998,,,,,,,,,,,,,,,,,,,,,,,,189.97118181199994,189.9794690929998,190.17612006299987,190.17612006299987,190.19211880300008,191.87552981099998,191.87552981099998,191.8598720099999,,,,,,,,,,,,,,,,,,,,,,,,,,,,,,,,,,,,,,,,,,,,,,,,,,,,,,,,,,,,305240,001,2024-11-28_15h54.46.848,Test,2024.2.1,60.0539673777155,2024-11-28 15h54.56.968589 +0100,
12,150,60,15,None,4,4,0,,,,,,,,0,4,4,11,,,,,,,,,,,,,191.87552981099998,,,,,,,,,,,,,,,,,,,,,,,,191.86733464999998,191.87552981099998,192.0760417399997,192.0760417399997,192.0760417399997,193.7759623510001,193.7759623510001,193.75988568999992,,,,,,,,,,,,,,,,,,,,,,,,,,,,,,,,,,,,,,,,,,,,,,,,,,,,,,,,,,,,305240,001,2024-11-28_15h54.46.848,Test,2024.2.1,60.0539673777155,2024-11-28 15h54.56.968589 +0100,
24,150,120,26,None,5,5,0,,,,,,,,0,5,5,23,,,,,,,,,,,,,193.7759623510001,,,,,,,,,,,,,,,,,,,,,,,,193.76767053999993,193.7759623510001,193.97581603299977,193.97581603299977,193.97581603299977,195.67575853300013,195.67575853300013,195.66049509100003,,,,,,,,,,,,,,,,,,,,,,,,,,,,,,,,,,,,,,,,,,,,,,,,,,,,,,,,,,,,305240,001,2024-11-28_15h54.46.848,Test,2024.2.1,60.0539673777155,2024-11-28 15h54.56.968589 +0100,
10,150,30,28,None,6,6,0,,,,,,,,0,6,6,9,,,,,,,,,,,,,195.67575853300013,,,,,,,,,,,,,,,,,,,,,,,,195.66652594900006,195.67575853300013,195.87662185599993,195.87662185599993,195.87662185599993,197.57594956399998,197.57594956399998,197.560323746,,,,,,,,,,,,,,,,,,,,,,,,,,,,,,,,,,,,,,,,,,,,,,,,,,,,,,,,,,,,305240,001,2024-11-28_15h54.46.848,Test,2024.2.1,60.0539673777155,2024-11-28 15h54.56.968589 +0100,
6,150,30,36,None,7,7,0,,,,,,,,0,7,7,5,,,,,,,,,,,,,197.57594956399998,,,,,,,,,,,,,,,,,,,,,,,,197.5662338369998,197.57594956399998,197.7592349460001,197.7592349460001,197.77619795200008,199.45911852900008,199.45911852900008,199.44418715099982,,,,,,,,,,,,,,,,,,,,,,,,,,,,,,,,,,,,,,,,,,,,,,,,,,,,,,,,,,,,305240,001,2024-11-28_15h54.46.848,Test,2024.2.1,60.0539673777155,2024-11-28 15h54.56.968589 +0100,
25,150,120,55,None,8,8,0,,,,,,,,0,8,8,24,,,,,,,,,,,,,199.45911852900008,,,,,,,,,,,,,,,,,,,,,,,,199.450482147,199.45911852900008,199.66044989700003,199.66044989700003,199.66044989700003,201.36301433400013,201.36301433400013,201.34505961800005,,,,,,,,,,,,,,,,,,,,,,,,,,,,,,,,,,,,,,,,,,,,,,,,,,,,,,,,,,,,305240,001,2024-11-28_15h54.46.848,Test,2024.2.1,60.0539673777155,2024-11-28 15h54.56.968589 +0100,
2,150,0,8,None,9,9,0,,,,,,,,0,9,9,1,,,,,,,,,,,,,201.36301433400013,,,,,,,,,,,,,,,,,,,,,,,,201.35470300899988,201.36301433400013,201.55963450399986,201.55963450399986,201.57656577199987,203.2599354539998,203.2599354539998,203.24410582099972,,,,,,,,,,,,,,,,,,,,,,,,,,,,,,,,,,,,,,,,,,,,,,,,,,,,,,,,,,,,305240,001,2024-11-28_15h54.46.848,Test,2024.2.1,60.0539673777155,2024-11-28 15h54.56.968589 +0100,
20,150,90,37,None,10,10,0,,,,,,,,0,10,10,19,,,,,,,,,,,,,203.2599354539998,,,,,,,,,,,,,,,,,,,,,,,,203.25106358999983,203.2599354539998,203.46029508999982,203.46029508999982,203.46029508999982,205.15968338099992,205.15968338099992,205.1439061799997,,,,,,,,,,,,,,,,,,,,,,,,,,,,,,,,,,,,,,,,,,,,,,,,,,,,,,,,,,,,305240,001,2024-11-28_15h54.46.848,Test,2024.2.1,60.0539673777155,2024-11-28 15h54.56.968589 +0100,
35,150,180,21,None,11,11,0,,,,,,,,0,11,11,34,,,,,,,,,,,,,205.15968338099992,,,,,,,,,,,,,,,,,,,,,,,,205.15084639099996,205.15968338099992,205.35982770500004,205.35982770500004,205.35982770500004,207.06261371999972,207.06261371999972,207.04534626199984,,,,,,,,,,,,,,,,,,,,,,,,,,,,,,,,,,,,,,,,,,,,,,,,,,,,,,,,,,,,305240,001,2024-11-28_15h54.46.848,Test,2024.2.1,60.0539673777155,2024-11-28 15h54.56.968589 +0100,
15,150,60,70,None,12,12,0,,,,,,,,0,12,12,14,,,,,,,,,,,,,207.06261371999972,,,,,,,,,,,,,,,,,,,,,,,,207.05449427099984,207.06261371999972,207.26002434800012,207.26002434800012,207.27692169700003,208.96375819800005,208.96375819800005,208.94564519899996,,,,,,,,,,,,,,,,,,,,,,,,,,,,,,,,,,,,,,,,,,,,,,,,,,,,,,,,,,,,305240,001,2024-11-28_15h54.46.848,Test,2024.2.1,60.0539673777155,2024-11-28 15h54.56.968589 +0100,
30,150,150,4,None,13,13,0,,,,,,,,0,13,13,29,,,,,,,,,,,,,208.96375819800005,,,,,,,,,,,,,,,,,,,,,,,,208.95531192299995,208.96375819800005,209.16107492499987,209.16107492499987,209.17805158400006,210.85990950299993,210.85990950299993,210.84424513299973,,,,,,,,,,,,,,,,,,,,,,,,,,,,,,,,,,,,,,,,,,,,,,,,,,,,,,,,,,,,305240,001,2024-11-28_15h54.46.848,Test,2024.2.1,60.0539673777155,2024-11-28 15h54.56.968589 +0100,
34,150,180,25,None,14,14,0,,,,,,,,0,14,14,33,,,,,,,,,,,,,210.85990950299993,,,,,,,,,,,,,,,,,,,,,,,,210.8499316530001,210.85990950299993,211.06044840799996,211.06044840799996,211.06044840799996,212.76031499400005,212.76031499400005,212.74435390899998,,,,,,,,,,,,,,,,,,,,,,,,,,,,,,,,,,,,,,,,,,,,,,,,,,,,,,,,,,,,305240,001,2024-11-28_15h54.46.848,Test,2024.2.1,60.0539673777155,2024-11-28 15h54.56.968589 +0100,
18,150,90,38,None,15,15,0,,,,,,,,0,15,15,17,,,,,,,,,,,,,212.76031499400005,,,,,,,,,,,,,,,,,,,,,,,,212.7501376739997,212.76031499400005,212.96107619999975,212.96107619999975,212.96107619999975,214.662298233,214.662298233,214.6453772279997,,,,,,,,,,,,,,,,,,,,,,,,,,,,,,,,,,,,,,,,,,,,,,,,,,,,,,,,,,,,305240,001,2024-11-28_15h54.46.848,Test,2024.2.1,60.0539673777155,2024-11-28 15h54.56.968589 +0100,
11,150,60,53,None,16,16,0,,,,,,,,0,16,16,10,,,,,,,,,,,,,214.662298233,,,,,,,,,,,,,,,,,,,,,,,,214.65427672199985,214.662298233,214.8610233029999,214.8610233029999,214.87760677300002,216.5605734689998,216.5605734689998,216.5447244940001,,,,,,,,,,,,,,,,,,,,,,,,,,,,,,,,,,,,,,,,,,,,,,,,,,,,,,,,,,,,305240,001,2024-11-28_15h54.46.848,Test,2024.2.1,60.0539673777155,2024-11-28 15h54.56.968589 +0100,
23,150,120,16,None,17,17,0,,,,,,,,0,17,17,22,,,,,,,,,,,,,216.5605734689998,,,,,,,,,,,,,,,,,,,,,,,,216.55244453399973,216.5605734689998,216.76090648699983,216.76090648699983,216.76090648699983,218.46034779899992,218.46034779899992,218.44504174199983,,,,,,,,,,,,,,,,,,,,,,,,,,,,,,,,,,,,,,,,,,,,,,,,,,,,,,,,,,,,305240,001,2024-11-28_15h54.46.848,Test,2024.2.1,60.0539673777155,2024-11-28 15h54.56.968589 +0100,
27,150,150,24,None,18,18,0,,,,,,,,0,18,18,26,,,,,,,,,,,,,218.46034779899992,,,,,,,,,,,,,,,,,,,,,,,,218.45075885400001,218.46034779899992,218.66110959699972,218.66110959699972,218.66110959699972,220.36070895800003,220.36070895800003,220.34553815699974,,,,,,,,,,,,,,,,,,,,,,,,,,,,,,,,,,,,,,,,,,,,,,,,,,,,,,,,,,,,305240,001,2024-11-28_15h54.46.848,Test,2024.2.1,60.0539673777155,2024-11-28 15h54.56.968589 +0100,
16,150,90,64,None,19,19,0,,,,,,,,0,19,19,15,,,,,,,,,,,,,220.36070895800003,,,,,,,,,,,,,,,,,,,,,,,,220.3523420209999,220.36070895800003,220.56230664899977,220.56230664899977,220.56230664899977,222.2652699209998,222.2652699209998,222.24663281999983,,,,,,,,,,,,,,,,,,,,,,,,,,,,,,,,,,,,,,,,,,,,,,,,,,,,,,,,,,,,305240,001,2024-11-28_15h54.46.848,Test,2024.2.1,60.0539673777155,2024-11-28 15h54.56.968589 +0100,
9,150,30,40,None,20,20,0,,,,,,,,0,20,20,8,,,,,,,,,,,,,222.2652699209998,,,,,,,,,,,,,,,,,,,,,,,,222.25610581499996,222.2652699209998,222.4616834149997,222.4616834149997,222.47827960699988,224.16082922999976,224.16082922999976,224.14569995700003,,,,,,,,,,,,,,,,,,,,,,,,,,,,,,,,,,,,,,,,,,,,,,,,,,,,,,,,,,,,305240,001,2024-11-28_15h54.46.848,Test,2024.2.1,60.0539673777155,2024-11-28 15h54.56.968589 +0100,
7,150,30,47,None,21,21,0,,,,,,,,0,21,21,6,,,,,,,,,,,,,224.16082922999976,,,,,,,,,,,,,,,,,,,,,,,,224.1517000240001,224.16082922999976,224.36183243699998,224.36183243699998,224.36183243699998,226.06148232299984,226.06148232299984,226.04539642999998,,,,,,,,,,,,,,,,,,,,,,,,,,,,,,,,,,,,,,,,,,,,,,,,,,,,,,,,,,,,305240,001,2024-11-28_15h54.46.848,Test,2024.2.1,60.0539673777155,2024-11-28 15h54.56.968589 +0100,
21,150,120,51,None,22,22,0,,,,,,,,0,22,22,20,,,,,,,,,,,,,226.06148232299984,,,,,,,,,,,,,,,,,,,,,,,,226.05169623099982,226.06148232299984,226.26241902899983,226.26241902899983,226.26241902899983,227.96266995199994,227.96266995199994,227.94556699799978,,,,,,,,,,,,,,,,,,,,,,,,,,,,,,,,,,,,,,,,,,,,,,,,,,,,,,,,,,,,305240,001,2024-11-28_15h54.46.848,Test,2024.2.1,60.0539673777155,2024-11-28 15h54.56.968589 +0100,
32,150,180,7,None,23,23,0,,,,,,,,0,23,23,31,,,,,,,,,,,,,227.96266995199994,,,,,,,,,,,,,,,,,,,,,,,,227.95405610299986,227.96266995199994,228.16099069599977,228.16099069599977,228.16099069599977,229.86168602499993,229.86168602499993,229.84617168900013,,,,,,,,,,,,,,,,,,,,,,,,,,,,,,,,,,,,,,,,,,,,,,,,,,,,,,,,,,,,305240,001,2024-11-28_15h54.46.848,Test,2024.2.1,60.0539673777155,2024-11-28 15h54.56.968589 +0100,
3,150,0,39,None,24,24,0,,,,,,,,0,24,24,2,,,,,,,,,,,,,229.86168602499993,,,,,,,,,,,,,,,,,,,,,,,,229.85255960199993,229.86168602499993,230.06161042299982,230.06161042299982,230.06161042299982,231.76253868499998,231.76253868499998,231.74681802999976,,,,,,,,,,,,,,,,,,,,,,,,,,,,,,,,,,,,,,,,,,,,,,,,,,,,,,,,,,,,305240,001,2024-11-28_15h54.46.848,Test,2024.2.1,60.0539673777155,2024-11-28 15h54.56.968589 +0100,
4,150,0,63,None,25,25,0,,,,,,,,0,25,25,3,,,,,,,,,,,,,231.76253868499998,,,,,,,,,,,,,,,,,,,,,,,,231.75381221299995,231.76253868499998,231.9617133480001,231.9617133480001,231.9617133480001,233.66189100099973,233.66189100099973,233.646660977,,,,,,,,,,,,,,,,,,,,,,,,,,,,,,,,,,,,,,,,,,,,,,,,,,,,,,,,,,,,305240,001,2024-11-28_15h54.46.848,Test,2024.2.1,60.0539673777155,2024-11-28 15h54.56.968589 +0100,
8,150,30,41,None,26,26,0,,,,,,,,0,26,26,7,,,,,,,,,,,,,233.66189100099973,,,,,,,,,,,,,,,,,,,,,,,,233.65233593999983,233.66189100099973,233.8619595360001,233.8619595360001,233.8619595360001,235.56177992199991,235.56177992199991,235.54644312899973,,,,,,,,,,,,,,,,,,,,,,,,,,,,,,,,,,,,,,,,,,,,,,,,,,,,,,,,,,,,305240,001,2024-11-28_15h54.46.848,Test,2024.2.1,60.0539673777155,2024-11-28 15h54.56.968589 +0100,
17,150,90,19,None,27,27,0,,,,,,,,0,27,27,16,,,,,,,,,,,,,235.56177992199991,,,,,,,,,,,,,,,,,,,,,,,,235.55136423099975,235.56177992199991,235.76198578599997,235.76198578599997,235.76198578599997,237.46251194199976,237.46251194199976,237.44637987499982,,,,,,,,,,,,,,,,,,,,,,,,,,,,,,,,,,,,,,,,,,,,,,,,,,,,,,,,,,,,305240,001,2024-11-28_15h54.46.848,Test,2024.2.1,60.0539673777155,2024-11-28 15h54.56.968589 +0100,
1,150,0,2,None,28,28,0,,,,,,,,0,28,28,0,,,,,,,,,,,,,237.46251194199976,,,,,,,,,,,,,,,,,,,,,,,,237.4539342969997,237.46251194199976,237.66209177500014,237.66209177500014,237.66209177500014,239.36238845499975,239.36238845499975,239.3463573429999,,,,,,,,,,,,,,,,,,,,,,,,,,,,,,,,,,,,,,,,,,,,,,,,,,,,,,,,,,,,305240,001,2024-11-28_15h54.46.848,Test,2024.2.1,60.0539673777155,2024-11-28 15h54.56.968589 +0100,
14,150,60,13,None,29,29,0,,,,,,,,0,29,29,13,,,,,,,,,,,,,239.36238845499975,,,,,,,,,,,,,,,,,,,,,,,,239.352004417,239.36238845499975,239.56275027899983,239.56275027899983,239.56275027899983,241.2618983970001,241.2618983970001,241.24604311799976,,,,,,,,,,,,,,,,,,,,,,,,,,,,,,,,,,,,,,,,,,,,,,,,,,,,,,,,,,,,305240,001,2024-11-28_15h54.46.848,Test,2024.2.1,60.0539673777155,2024-11-28 15h54.56.968589 +0100,
28,150,150,52,None,30,30,0,,,,,,,,0,30,30,27,,,,,,,,,,,,,241.2618983970001,,,,,,,,,,,,,,,,,,,,,,,,241.25162585199996,241.2618983970001,241.4625751409999,241.4625751409999,241.4625751409999,243.16266663499982,243.16266663499982,243.1471554269997,,,,,,,,,,,,,,,,,,,,,,,,,,,,,,,,,,,,,,,,,,,,,,,,,,,,,,,,,,,,305240,001,2024-11-28_15h54.46.848,Test,2024.2.1,60.0539673777155,2024-11-28 15h54.56.968589 +0100,
5,150,0,45,None,31,31,0,,,,,,,,0,31,31,4,,,,,,,,,,,,,243.16266663499982,,,,,,,,,,,,,,,,,,,,,,,,243.1533681159999,243.16266663499982,243.3627378279998,243.3627378279998,243.3627378279998,245.06263408099994,245.06263408099994,245.04755764499987,,,,,,,,,,,,,,,,,,,,,,,,,,,,,,,,,,,,,,,,,,,,,,,,,,,,,,,,,,,,305240,001,2024-11-28_15h54.46.848,Test,2024.2.1,60.0539673777155,2024-11-28 15h54.56.968589 +0100,
26,150,150,48,None,32,32,0,,,,,,,,0,32,32,25,,,,,,,,,,,,,245.06263408099994,,,,,,,,,,,,,,,,,,,,,,,,245.05307904599977,245.06263408099994,245.26292756099974,245.26292756099974,245.26292756099974,246.9630143280001,246.9630143280001,246.94704316499974,,,,,,,,,,,,,,,,,,,,,,,,,,,,,,,,,,,,,,,,,,,,,,,,,,,,,,,,,,,,305240,001,2024-11-28_15h54.46.848,Test,2024.2.1,60.0539673777155,2024-11-28 15h54.56.968589 +0100,
22,150,120,65,None,33,33,0,,,,,,,,0,33,33,21,,,,,,,,,,,,,246.9630143280001,,,,,,,,,,,,,,,,,,,,,,,,246.95317919799982,246.9630143280001,247.16274654500012,247.16274654500012,247.16274654500012,248.86271984899986,248.86271984899986,248.84751325599973,,,,,,,,,,,,,,,,,,,,,,,,,,,,,,,,,,,,,,,,,,,,,,,,,,,,,,,,,,,,305240,001,2024-11-28_15h54.46.848,Test,2024.2.1,60.0539673777155,2024-11-28 15h54.56.968589 +0100,
19,150,90,49,None,34,34,0,,,,,,,,0,34,34,18,,,,,,,,,,,,,248.86271984899986,,,,,,,,,,,,,,,,,,,,,,,,248.85369918099968,248.86271984899986,249.06328609000002,249.06328609000002,249.06328609000002,250.76411580100012,250.76411580100012,250.74862484799996,,,,,,,,,,,,,,,,,,,,,,,,,,,,,,,,,,,,,,,,,,,,,,,,,,,,,,,,,,,,305240,001,2024-11-28_15h54.46.848,Test,2024.2.1,60.0539673777155,2024-11-28 15h54.56.968589 +0100,
,,,,,,,,,,,,,,,,,,,,,,,,,,,,,,,,,,,,,,,,,,,,,,,,,,,,,,,,,,,,,,,250.7488386330001,250.76411580100012,250.76411580100012,262.3173093659998,space,11.550376382000195,None,,,,,,,,,,,,,,,,,,,,,,,,,,,,,,,,,,,,,,,,,,,,,,,,,,,,,305240,001,2024-11-28_15h54.46.848,Test,2024.2.1,60.0539673777155,2024-11-28 15h54.56.968589 +0100,
39,150,0,57,None,0,0,0,True,right,1.2717166919996998,None,,,,,,,,0,0,0,0,,,,,,,,,262.340887933,,,,,,,,,,,,,,,,,,,,,,,,,,,,,,,,,,,,,,,262.3326199039998,262.340887933,263.348495446,264.331631735,264.331631735,264.331631735,265.6162639439999,right,1.2717166919996998,None,,,,,,,,,,,,,,,,,,,,,,,,,,,,,,,,,,,,,,,,,,,305240,001,2024-11-28_15h54.46.848,Test,2024.2.1,60.0539673777155,2024-11-28 15h54.56.968589 +0100,
52,150,90,23,None,1,1,0,True,left,0.9597335960002056,None,,,,,,,,0,1,1,1,,,,,,,,,265.64084085700006,,,,,,,,,,,,,,,,,,,,,,,,,,,,,,,,,,,,,,,265.6218160359999,265.64084085700006,266.64750654599993,267.63116041500007,267.63116041500007,267.63116041500007,268.5993763329998,left,0.9597335960002056,None,,,,,,,,,,,,,,,,,,,,,,,,,,,,,,,,,,,,,,,,,,,305240,001,2024-11-28_15h54.46.848,Test,2024.2.1,60.0539673777155,2024-11-28 15h54.56.968589 +0100,
63,150,150,66,None,2,2,0,True,left,1.0067136759998903,None,,,,,,,,0,2,2,2,,,,,,,,,268.6144248679998,,,,,,,,,,,,,,,,,,,,,,,,,,,,,,,,,,,,,,,268.6049661510001,268.6144248679998,269.6142766869998,270.59875521000004,270.59875521000004,270.59875521000004,271.6156310759998,left,1.0067136759998903,None,,,,,,,,,,,,,,,,,,,,,,,,,,,,,,,,,,,,,,,,,,,305240,001,2024-11-28_15h54.46.848,Test,2024.2.1,60.0539673777155,2024-11-28 15h54.56.968589 +0100,
68,150,180,46,None,3,3,0,True,left,1.2117066790001445,None,,,,,,,,0,3,3,3,,,,,,,,,271.6306787159997,,,,,,,,,,,,,,,,,,,,,,,,,,,,,,,,,,,,,,,271.6212812189997,271.6306787159997,272.6318601170001,273.6147875649999,273.6147875649999,273.6147875649999,274.8330770120001,left,1.2117066790001445,None,,,,,,,,,,,,,,,,,,,,,,,,,,,,,,,,,,,,,,,,,,,305240,001,2024-11-28_15h54.46.848,Test,2024.2.1,60.0539673777155,2024-11-28 15h54.56.968589 +0100,
26,150,150,48,None,4,4,0,False,left,1.1290321820001736,None,,,,,,,,0,4,4,4,,,,,,,,,274.8479869990001,,,,,,,,,,,,,,,,,,,,,,,,,,,,,,,,,,,,,,,274.83658461100003,274.8479869990001,275.8485046239998,276.8482003649997,276.8482003649997,276.8482003649997,277.9850794869999,left,1.1290321820001736,None,,,,,,,,,,,,,,,,,,,,,,,,,,,,,,,,,,,,,,,,,,,305240,001,2024-11-28_15h54.46.848,Test,2024.2.1,60.0539673777155,2024-11-28 15h54.56.968589 +0100,
64,150,150,32,None,5,5,0,True,right,1.0351938320000045,None,,,,,,,,0,5,5,5,,,,,,,,,278.0004758350001,,,,,,,,,,,,,,,,,,,,,,,,,,,,,,,,,,,,,,,277.9913414339999,278.0004758350001,279.01488624500007,279.99882206799975,279.99882206799975,279.99882206799975,281.05104832300003,right,1.0351938320000045,None,,,,,,,,,,,,,,,,,,,,,,,,,,,,,,,,,,,,,,,,,,,305240,001,2024-11-28_15h54.46.848,Test,2024.2.1,60.0539673777155,2024-11-28 15h54.56.968589 +0100,
20,150,90,37,None,6,6,0,False,right,0.935424889999922,None,,,,,,,,0,6,6,6,,,,,,,,,281.0649226149999,,,,,,,,,,,,,,,,,,,,,,,,,,,,,,,,,,,,,,,281.05479677899984,281.0649226149999,282.0664275529998,283.06566422800006,283.06566422800006,283.06566422800006,284.0157812799998,right,0.935424889999922,None,,,,,,,,,,,,,,,,,,,,,,,,,,,,,,,,,,,,,,,,,,,305240,001,2024-11-28_15h54.46.848,Test,2024.2.1,60.0539673777155,2024-11-28 15h54.56.968589 +0100,
55,150,90,14,None,7,7,0,True,right,1.3315769889995863,None,,,,,,,,0,7,7,7,,,,,,,,,284.0321834759998,,,,,,,,,,,,,,,,,,,,,,,,,,,,,,,,,,,,,,,284.0219231860001,284.0321834759998,285.0329848030001,286.01609089099975,286.01609089099975,286.01609089099975,287.35139946399977,right,1.3315769889995863,None,,,,,,,,,,,,,,,,,,,,,,,,,,,,,,,,,,,,,,,,,,,305240,001,2024-11-28_15h54.46.848,Test,2024.2.1,60.0539673777155,2024-11-28 15h54.56.968589 +0100,
1,150,0,2,None,8,8,0,False,left,1.208740915999897,None,,,,,,,,0,8,8,8,,,,,,,,,287.36560282699975,,,,,,,,,,,,,,,,,,,,,,,,,,,,,,,,,,,,,,,287.3550431509998,287.36560282699975,288.3666202969998,289.3656920839999,289.3656920839999,289.3656920839999,290.5843271660001,left,1.208740915999897,None,,,,,,,,,,,,,,,,,,,,,,,,,,,,,,,,,,,,,,,,,,,305240,001,2024-11-28_15h54.46.848,Test,2024.2.1,60.0539673777155,2024-11-28 15h54.56.968589 +0100,
14,150,60,13,None,9,9,0,False,right,0.9580911650000417,None,,,,,,,,0,9,9,9,,,,,,,,,290.59866846299974,,,,,,,,,,,,,,,,,,,,,,,,,,,,,,,,,,,,,,,290.587829476,290.59866846299974,291.59965140999975,292.58386696499974,292.58386696499974,292.58386696499974,293.5509759739998,right,0.9580911650000417,None,,,,,,,,,,,,,,,,,,,,,,,,,,,,,,,,,,,,,,,,,,,305240,001,2024-11-28_15h54.46.848,Test,2024.2.1,60.0539673777155,2024-11-28 15h54.56.968589 +0100,
7,150,30,47,None,10,10,0,False,left,2.073644627000249,None,,,,,,,,0,10,10,10,,,,,,,,,293.56564208500004,,,,,,,,,,,,,,,,,,,,,,,,,,,,,,,,,,,,,,,293.5546482169998,293.56564208500004,294.5660188849997,295.5662159989997,295.5662159989997,295.5662159989997,297.651594077,left,2.073644627000249,None,,,,,,,,,,,,,,,,,,,,,,,,,,,,,,,,,,,,,,,,,,,305240,001,2024-11-28_15h54.46.848,Test,2024.2.1,60.0539673777155,2024-11-28 15h54.56.968589 +0100,
67,150,180,18,None,11,11,0,True,left,1.8551287089999278,None,,,,,,,,0,11,11,11,,,,,,,,,297.66640534399994,,,,,,,,,,,,,,,,,,,,,,,,,,,,,,,,,,,,,,,297.6572581569999,297.66640534399994,298.6669715349999,299.6677745239999,299.6677745239999,299.6677745239999,301.53521776599973,left,1.8551287089999278,None,,,,,,,,,,,,,,,,,,,,,,,,,,,,,,,,,,,,,,,,,,,305240,001,2024-11-28_15h54.46.848,Test,2024.2.1,60.0539673777155,2024-11-28 15h54.56.968589 +0100,
54,150,90,56,None,12,12,0,True,left,7.3642123780000475,None,,,,,,,,0,12,12,12,,,,,,,,,301.55039647700005,,,,,,,,,,,,,,,,,,,,,,,,,,,,,,,,,,,,,,,301.5406170829997,301.55039647700005,302.54996391899977,303.5500781159999,303.5500781159999,303.5500781159999,310.92005193199975,left,7.3642123780000475,None,306.5507240070001,306.5507240070001,306.5507240070001,,,,,,,,,,,,,,,,,,,,,,,,,,,,,,,,,,,,,,,,305240,001,2024-11-28_15h54.46.848,Test,2024.2.1,60.0539673777155,2024-11-28 15h54.56.968589 +0100,
9,150,30,40,None,13,13,0,False,right,1.7852338040001996,None,,,,,,,,0,13,13,13,,,,,,,,,310.9345951299997,,,,,,,,,,,,,,,,,,,,,,,,,,,,,,,,,,,,,,,310.9250748019999,310.9345951299997,311.93414632199983,312.93450892300007,312.93450892300007,312.93450892300007,314.7359900849997,right,1.7852338040001996,None,,,,,,,,,,,,,,,,,,,,,,,,,,,,,,,,,,,,,,,,,,,305240,001,2024-11-28_15h54.46.848,Test,2024.2.1,60.0539673777155,2024-11-28 15h54.56.968589 +0100,
38,150,0,61,None,14,14,0,True,left,0.884272835000047,None,,,,,,,,0,14,14,14,,,,,,,,,314.7514742479998,,,,,,,,,,,,,,,,,,,,,,,,,,,,,,,,,,,,,,,314.74190443999987,314.7514742479998,315.75096313999984,316.7512006329998,316.7512006329998,316.7512006329998,317.65347192499985,left,0.884272835000047,None,,,,,,,,,,,,,,,,,,,,,,,,,,,,,,,,,,,,,,,,,,,305240,001,2024-11-28_15h54.46.848,Test,2024.2.1,60.0539673777155,2024-11-28 15h54.56.968589 +0100,
51,150,90,22,None,15,15,0,True,right,1.6657777059999717,None,,,,,,,,0,15,15,15,,,,,,,,,317.6682946699998,,,,,,,,,,,,,,,,,,,,,,,,,,,,,,,,,,,,,,,317.659698295,317.6682946699998,318.667994205,319.66767869099976,319.66767869099976,319.66767869099976,321.33917788400004,right,1.6657777059999717,None,,,,,,,,,,,,,,,,,,,,,,,,,,,,,,,,,,,,,,,,,,,305240,001,2024-11-28_15h54.46.848,Test,2024.2.1,60.0539673777155,2024-11-28 15h54.56.968589 +0100,
40,150,0,30,None,16,16,0,True,left,1.090953982999963,None,,,,,,,,0,16,16,16,,,,,,,,,321.3546905999997,,,,,,,,,,,,,,,,,,,,,,,,,,,,,,,,,,,,,,,321.345499347,321.3546905999997,322.36772716899986,323.35173274,323.35173274,323.35173274,324.45269848,left,1.090953982999963,None,,,,,,,,,,,,,,,,,,,,,,,,,,,,,,,,,,,,,,,,,,,305240,001,2024-11-28_15h54.46.848,Test,2024.2.1,60.0539673777155,2024-11-28 15h54.56.968589 +0100,
30,150,150,4,None,17,17,0,False,right,1.1518005620000622,None,,,,,,,,0,17,17,17,,,,,,,,,324.4683806759999,,,,,,,,,,,,,,,,,,,,,,,,,,,,,,,,,,,,,,,324.45639126800006,324.4683806759999,325.46853826200004,326.4517090999998,326.4517090999998,326.4517090999998,327.607331014,right,1.1518005620000622,None,,,,,,,,,,,,,,,,,,,,,,,,,,,,,,,,,,,,,,,,,,,305240,001,2024-11-28_15h54.46.848,Test,2024.2.1,60.0539673777155,2024-11-28 15h54.56.968589 +0100,
24,150,120,26,None,18,18,0,False,left,0.9839033539997217,None,,,,,,,,0,18,18,18,,,,,,,,,327.620929315,,,,,,,,,,,,,,,,,,,,,,,,,,,,,,,,,,,,,,,327.61186640100004,327.620929315,328.6351636270001,329.6193773929999,329.6193773929999,329.6193773929999,330.6204505830001,left,0.9839033539997217,None,,,,,,,,,,,,,,,,,,,,,,,,,,,,,,,,,,,,,,,,,,,305240,001,2024-11-28_15h54.46.848,Test,2024.2.1,60.0539673777155,2024-11-28 15h54.56.968589 +0100,
4,150,0,63,None,19,19,0,False,left,1.3563429450000513,None,,,,,,,,0,19,19,19,,,,,,,,,330.6347175400001,,,,,,,,,,,,,,,,,,,,,,,,,,,,,,,,,,,,,,,330.624381697,330.6347175400001,331.6358538649997,332.6357359929998,332.6357359929998,332.6357359929998,334.003895673,left,1.3563429450000513,None,,,,,,,,,,,,,,,,,,,,,,,,,,,,,,,,,,,,,,,,,,,305240,001,2024-11-28_15h54.46.848,Test,2024.2.1,60.0539673777155,2024-11-28 15h54.56.968589 +0100,
11,150,60,53,None,20,20,0,False,right,1.2732477649997236,None,,,,,,,,0,20,20,20,,,,,,,,,334.0188969249998,,,,,,,,,,,,,,,,,,,,,,,,,,,,,,,,,,,,,,,334.00743367099994,334.0188969249998,335.0197710849998,336.0194035909999,336.0194035909999,336.0194035909999,337.3044242609999,right,1.2732477649997236,None,,,,,,,,,,,,,,,,,,,,,,,,,,,,,,,,,,,,,,,,,,,305240,001,2024-11-28_15h54.46.848,Test,2024.2.1,60.0539673777155,2024-11-28 15h54.56.968589 +0100,
61,150,150,17,None,21,21,0,True,right,1.5175783929998943,None,,,,,,,,0,21,21,21,,,,,,,,,337.32031384699985,,,,,,,,,,,,,,,,,,,,,,,,,,,,,,,,,,,,,,,337.3111464230001,337.32031384699985,338.32005174999995,339.31925147899983,339.31925147899983,339.31925147899983,340.85447884099995,right,1.5175783929998943,None,,,,,,,,,,,,,,,,,,,,,,,,,,,,,,,,,,,,,,,,,,,305240,001,2024-11-28_15h54.46.848,Test,2024.2.1,60.0539673777155,2024-11-28 15h54.56.968589 +0100,
12,150,60,15,None,22,22,0,False,left,2.366523002000122,None,,,,,,,,0,22,22,22,,,,,,,,,340.86909544599985,,,,,,,,,,,,,,,,,,,,,,,,,,,,,,,,,,,,,,,340.8582883670001,340.86909544599985,341.86953843499987,342.86934556899996,342.86934556899996,342.86934556899996,345.2389715219997,left,2.366523002000122,None,,,,,,,,,,,,,,,,,,,,,,,,,,,,,,,,,,,,,,,,,,,305240,001,2024-11-28_15h54.46.848,Test,2024.2.1,60.0539673777155,2024-11-28 15h54.56.968589 +0100,
31,150,180,20,None,23,23,0,False,right,1.454122137000013,None,,,,,,,,0,23,23,23,,,,,,,,,345.25285115199995,,,,,,,,,,,,,,,,,,,,,,,,,,,,,,,,,,,,,,,345.2424445070001,345.25285115199995,346.2529692369999,347.25420081799984,347.25420081799984,347.25420081799984,348.72117986700005,right,1.454122137000013,None,,,,,,,,,,,,,,,,,,,,,,,,,,,,,,,,,,,,,,,,,,,305240,001,2024-11-28_15h54.46.848,Test,2024.2.1,60.0539673777155,2024-11-28 15h54.56.968589 +0100,
37,150,0,3,None,24,24,0,True,left,3.5056921179998426,None,,,,,,,,0,24,24,24,,,,,,,,,348.7362170719998,,,,,,,,,,,,,,,,,,,,,,,,,,,,,,,,,,,,,,,348.7268073639998,348.7362170719998,349.7378617229997,350.7203181929999,350.7203181929999,350.7203181929999,354.23897112999975,left,3.5056921179998426,None,353.72072993799975,353.72072993799975,353.72072993799975,,,,,,,,,,,,,,,,,,,,,,,,,,,,,,,,,,,,,,,,305240,001,2024-11-28_15h54.46.848,Test,2024.2.1,60.0539673777155,2024-11-28 15h54.56.968589 +0100,
29,150,150,43,None,25,25,0,False,left,2.0565878560000783,None,,,,,,,,0,25,25,25,,,,,,,,,354.2531521179999,,,,,,,,,,,,,,,,,,,,,,,,,,,,,,,,,,,,,,,354.24286940499996,354.2531521179999,355.25442590800003,356.2539702660001,356.2539702660001,356.2539702660001,358.32239373899984,left,2.0565878560000783,None,,,,,,,,,,,,,,,,,,,,,,,,,,,,,,,,,,,,,,,,,,,305240,001,2024-11-28_15h54.46.848,Test,2024.2.1,60.0539673777155,2024-11-28 15h54.56.968589 +0100,
23,150,120,16,None,26,26,0,False,right,1.0848670939999465,None,,,,,,,,0,26,26,26,,,,,,,,,358.33734431799985,,,,,,,,,,,,,,,,,,,,,,,,,,,,,,,,,,,,,,,358.32578598400005,358.33734431799985,359.3375880169997,360.3369057519999,360.3369057519999,360.3369057519999,361.43863707399987,right,1.0848670939999465,None,,,,,,,,,,,,,,,,,,,,,,,,,,,,,,,,,,,,,,,,,,,305240,001,2024-11-28_15h54.46.848,Test,2024.2.1,60.0539673777155,2024-11-28 15h54.56.968589 +0100,
17,150,90,19,None,27,27,0,False,left,2.076243002999945,None,,,,,,,,0,27,27,27,,,,,,,,,361.45421753699975,,,,,,,,,,,,,,,,,,,,,,,,,,,,,,,,,,,,,,,361.4426080009998,361.45421753699975,362.45503616299993,363.4383678670001,363.4383678670001,363.4383678670001,365.5232685199999,left,2.076243002999945,None,,,,,,,,,,,,,,,,,,,,,,,,,,,,,,,,,,,,,,,,,,,305240,001,2024-11-28_15h54.46.848,Test,2024.2.1,60.0539673777155,2024-11-28 15h54.56.968589 +0100,
70,150,180,33,None,28,28,0,True,right,1.6332600079999793,None,,,,,,,,0,28,28,28,,,,,,,,,365.5381642389998,,,,,,,,,,,,,,,,,,,,,,,,,,,,,,,,,,,,,,,365.5293792469997,365.5381642389998,366.53773975800004,367.538886669,367.538886669,367.538886669,369.18926316499983,right,1.6332600079999793,None,,,,,,,,,,,,,,,,,,,,,,,,,,,,,,,,,,,,,,,,,,,305240,001,2024-11-28_15h54.46.848,Test,2024.2.1,60.0539673777155,2024-11-28 15h54.56.968589 +0100,
15,150,60,70,None,29,29,0,False,left,2.440767759999744,None,,,,,,,,0,29,29,29,,,,,,,,,369.20428025699994,,,,,,,,,,,,,,,,,,,,,,,,,,,,,,,,,,,,,,,369.19291446499983,369.20428025699994,370.2057611790001,371.2049675200001,371.2049675200001,371.2049675200001,373.656961529,left,2.440767759999744,None,,,,,,,,,,,,,,,,,,,,,,,,,,,,,,,,,,,,,,,,,,,305240,001,2024-11-28_15h54.46.848,Test,2024.2.1,60.0539673777155,2024-11-28 15h54.56.968589 +0100,
19,150,90,49,None,30,30,0,False,right,1.1065786179997303,None,,,,,,,,0,30,30,30,,,,,,,,,373.67167020099987,,,,,,,,,,,,,,,,,,,,,,,,,,,,,,,,,,,,,,,373.6607411519999,373.67167020099987,374.6719734160001,375.6717049640001,375.6717049640001,375.6717049640001,376.7894358489998,right,1.1065786179997303,None,,,,,,,,,,,,,,,,,,,,,,,,,,,,,,,,,,,,,,,,,,,305240,001,2024-11-28_15h54.46.848,Test,2024.2.1,60.0539673777155,2024-11-28 15h54.56.968589 +0100,
41,150,30,27,None,31,31,0,True,left,1.7751360440001918,None,,,,,,,,0,31,31,31,,,,,,,,,376.8048987269999,,,,,,,,,,,,,,,,,,,,,,,,,,,,,,,,,,,,,,,376.7950957769999,376.8048987269999,377.80565475899994,378.789093802,378.789093802,378.789093802,380.57384153199973,left,1.7751360440001918,None,,,,,,,,,,,,,,,,,,,,,,,,,,,,,,,,,,,,,,,,,,,305240,001,2024-11-28_15h54.46.848,Test,2024.2.1,60.0539673777155,2024-11-28 15h54.56.968589 +0100,
49,150,60,11,None,32,32,0,True,left,1.3267088390002755,None,,,,,,,,0,32,32,32,,,,,,,,,380.6036540939999,,,,,,,,,,,,,,,,,,,,,,,,,,,,,,,,,,,,,,,380.5799076149997,380.6036540939999,381.60595039200007,382.5889379289997,382.5889379289997,382.5889379289997,383.9243029270001,left,1.3267088390002755,None,,,,,,,,,,,,,,,,,,,,,,,,,,,,,,,,,,,,,,,,,,,305240,001,2024-11-28_15h54.46.848,Test,2024.2.1,60.0539673777155,2024-11-28 15h54.56.968589 +0100,
59,150,120,5,None,33,33,0,True,right,2.816690014999949,None,,,,,,,,0,33,33,33,,,,,,,,,383.9393203999998,,,,,,,,,,,,,,,,,,,,,,,,,,,,,,,,,,,,,,,383.930178822,383.9393203999998,384.9393191979998,385.94040176,385.94040176,385.94040176,388.76069678099975,right,2.816690014999949,None,,,,,,,,,,,,,,,,,,,,,,,,,,,,,,,,,,,,,,,,,,,305240,001,2024-11-28_15h54.46.848,Test,2024.2.1,60.0539673777155,2024-11-28 15h54.56.968589 +0100,
66,150,180,31,None,34,34,0,True,left,1.0607325669998318,None,,,,,,,,0,34,34,34,,,,,,,,,388.7762577459998,,,,,,,,,,,,,,,,,,,,,,,,,,,,,,,,,,,,,,,388.7671754150001,388.7762577459998,389.78978477500004,390.75601426000003,390.75601426000003,390.75601426000003,391.82406349099983,left,1.0607325669998318,None,,,,,,,,,,,,,,,,,,,,,,,,,,,,,,,,,,,,,,,,,,,305240,001,2024-11-28_15h54.46.848,Test,2024.2.1,60.0539673777155,2024-11-28 15h54.56.968589 +0100,
13,150,60,9,None,35,35,0,False,right,1.2219529929998316,None,,,,,,,,0,35,35,35,,,,,,,,,391.83961175600007,,,,,,,,,,,,,,,,,,,,,,,,,,,,,,,,,,,,,,,391.8275068560001,391.83961175600007,392.8394522230001,393.8237245549999,393.8237245549999,393.8237245549999,395.0577743509998,right,1.2219529929998316,None,,,,,,,,,,,,,,,,,,,,,,,,,,,,,,,,,,,,,,,,,,,305240,001,2024-11-28_15h54.46.848,Test,2024.2.1,60.0539673777155,2024-11-28 15h54.56.968589 +0100,
2,150,0,8,None,36,36,0,False,left,1.6245632119998845,None,,,,,,,,0,36,36,36,,,,,,,,,395.0724378059999,,,,,,,,,,,,,,,,,,,,,,,,,,,,,,,,,,,,,,,395.0613421449998,395.0724378059999,396.07259320799994,397.0573853769997,397.0573853769997,397.0573853769997,398.69113287699975,left,1.6245632119998845,None,,,,,,,,,,,,,,,,,,,,,,,,,,,,,,,,,,,,,,,,,,,305240,001,2024-11-28_15h54.46.848,Test,2024.2.1,60.0539673777155,2024-11-28 15h54.56.968589 +0100,
69,150,180,50,None,37,37,0,True,left,1.3528650230000494,None,,,,,,,,0,37,37,37,,,,,,,,,398.707427498,,,,,,,,,,,,,,,,,,,,,,,,,,,,,,,,,,,,,,,398.6976052519999,398.707427498,399.7065117299999,400.6905137650001,400.6905137650001,400.6905137650001,402.0585087209997,left,1.3528650230000494,None,,,,,,,,,,,,,,,,,,,,,,,,,,,,,,,,,,,,,,,,,,,305240,001,2024-11-28_15h54.46.848,Test,2024.2.1,60.0539673777155,2024-11-28 15h54.56.968589 +0100,
45,150,30,42,None,38,38,0,True,right,1.0306360239997048,None,,,,,,,,0,38,38,38,,,,,,,,,402.07464184499986,,,,,,,,,,,,,,,,,,,,,,,,,,,,,,,,,,,,,,,402.0654028199997,402.07464184499986,403.074388816,404.07374409299973,404.07374409299973,404.07374409299973,405.1111033940001,right,1.0306360239997048,None,,,,,,,,,,,,,,,,,,,,,,,,,,,,,,,,,,,,,,,,,,,305240,001,2024-11-28_15h54.46.848,Test,2024.2.1,60.0539673777155,2024-11-28 15h54.56.968589 +0100,
5,150,0,45,None,39,39,0,False,left,1.321899184999893,None,,,,,,,,0,39,39,39,,,,,,,,,405.12534301899996,,,,,,,,,,,,,,,,,,,,,,,,,,,,,,,,,,,,,,,405.1158066109997,405.12534301899996,406.14048242599983,407.12449690999983,407.12449690999983,407.12449690999983,408.45875434499976,left,1.321899184999893,None,,,,,,,,,,,,,,,,,,,,,,,,,,,,,,,,,,,,,,,,,,,305240,001,2024-11-28_15h54.46.848,Test,2024.2.1,60.0539673777155,2024-11-28 15h54.56.968589 +0100,
46,150,60,62,None,40,40,0,True,left,1.1045798869999999,None,,,,,,,,0,40,40,40,,,,,,,,,408.4742158009999,,,,,,,,,,,,,,,,,,,,,,,,,,,,,,,,,,,,,,,408.4644502259998,408.4742158009999,409.4742202919997,410.47449709400007,410.47449709400007,410.47449709400007,411.5922093099998,left,1.1045798869999999,None,,,,,,,,,,,,,,,,,,,,,,,,,,,,,,,,,,,,,,,,,,,305240,001,2024-11-28_15h54.46.848,Test,2024.2.1,60.0539673777155,2024-11-28 15h54.56.968589 +0100,
48,150,60,35,None,41,41,0,True,right,1.2563189940001394,None,,,,,,,,0,41,41,41,,,,,,,,,411.6075313739998,,,,,,,,,,,,,,,,,,,,,,,,,,,,,,,,,,,,,,,411.59824413399974,411.6075313739998,412.60764901899984,413.59184069699995,413.59184069699995,413.59184069699995,414.85880083799975,right,1.2563189940001394,None,,,,,,,,,,,,,,,,,,,,,,,,,,,,,,,,,,,,,,,,,,,305240,001,2024-11-28_15h54.46.848,Test,2024.2.1,60.0539673777155,2024-11-28 15h54.56.968589 +0100,
60,150,120,1,None,42,42,0,True,right,1.6033819990002485,None,,,,,,,,0,42,42,42,,,,,,,,,414.8750306459997,,,,,,,,,,,,,,,,,,,,,,,,,,,,,,,,,,,,,,,414.86615331899975,414.8750306459997,415.87523993800005,416.8581007529997,416.8581007529997,416.8581007529997,418.4764021789997,right,1.6033819990002485,None,,,,,,,,,,,,,,,,,,,,,,,,,,,,,,,,,,,,,,,,,,,305240,001,2024-11-28_15h54.46.848,Test,2024.2.1,60.0539673777155,2024-11-28 15h54.56.968589 +0100,
42,150,30,34,None,43,43,0,True,right,2.089897211999869,None,,,,,,,,0,43,43,43,,,,,,,,,418.4951346019998,,,,,,,,,,,,,,,,,,,,,,,,,,,,,,,,,,,,,,,418.4850732740001,418.4951346019998,419.5089747009997,420.49194597299993,420.49194597299993,420.49194597299993,422.5930139349998,right,2.089897211999869,None,,,,,,,,,,,,,,,,,,,,,,,,,,,,,,,,,,,,,,,,,,,305240,001,2024-11-28_15h54.46.848,Test,2024.2.1,60.0539673777155,2024-11-28 15h54.56.968589 +0100,
6,150,30,36,None,44,44,0,False,right,4.190958484000021,None,,,,,,,,0,44,44,44,,,,,,,,,422.6082272919998,,,,,,,,,,,,,,,,,,,,,,,,,,,,,,,,,,,,,,,422.59827387199994,422.6082272919998,423.60827481299975,424.6085568230001,424.6085568230001,424.6085568230001,428.810857079,right,4.190958484000021,None,427.60885705400005,427.592063909,427.60885705400005,,,,,,,,,,,,,,,,,,,,,,,,,,,,,,,,,,,,,,,,305240,001,2024-11-28_15h54.46.848,Test,2024.2.1,60.0539673777155,2024-11-28 15h54.56.968589 +0100,
8,150,30,41,None,45,45,0,False,right,1.48913229999971,None,,,,,,,,0,45,45,45,,,,,,,,,428.82516043099986,,,,,,,,,,,,,,,,,,,,,,,,,,,,,,,,,,,,,,,428.814413691,428.82516043099986,429.8264015750001,430.809793552,430.809793552,430.809793552,432.31035797899995,right,1.48913229999971,None,,,,,,,,,,,,,,,,,,,,,,,,,,,,,,,,,,,,,,,,,,,305240,001,2024-11-28_15h54.46.848,Test,2024.2.1,60.0539673777155,2024-11-28 15h54.56.968589 +0100,
3,150,0,39,None,46,46,0,False,left,1.2995461249997788,None,,,,,,,,0,46,46,46,,,,,,,,,432.3255378210001,,,,,,,,,,,,,,,,,,,,,,,,,,,,,,,,,,,,,,,432.3142309069999,432.3255378210001,433.3263334469998,434.32577402200013,434.32577402200013,434.32577402200013,435.62868083800004,left,1.2995461249997788,None,,,,,,,,,,,,,,,,,,,,,,,,,,,,,,,,,,,,,,,,,,,305240,001,2024-11-28_15h54.46.848,Test,2024.2.1,60.0539673777155,2024-11-28 15h54.56.968589 +0100,
43,150,30,6,None,47,47,0,True,right,1.8067938679996587,None,,,,,,,,0,47,47,47,,,,,,,,,435.64368165899987,,,,,,,,,,,,,,,,,,,,,,,,,,,,,,,,,,,,,,,435.6348110079998,435.64368165899987,436.6427317970001,437.64289229199994,437.64289229199994,437.64289229199994,439.46090348999996,right,1.8067938679996587,None,,,,,,,,,,,,,,,,,,,,,,,,,,,,,,,,,,,,,,,,,,,305240,001,2024-11-28_15h54.46.848,Test,2024.2.1,60.0539673777155,2024-11-28 15h54.56.968589 +0100,
47,150,60,68,None,48,48,0,True,left,0.8906193750003695,None,,,,,,,,0,48,48,48,,,,,,,,,439.4760783470001,,,,,,,,,,,,,,,,,,,,,,,,,,,,,,,,,,,,,,,439.4662462379997,439.4760783470001,440.47747859499987,441.4604729749999,441.4604729749999,441.4604729749999,442.3609362510001,left,0.8906193750003695,None,,,,,,,,,,,,,,,,,,,,,,,,,,,,,,,,,,,,,,,,,,,305240,001,2024-11-28_15h54.46.848,Test,2024.2.1,60.0539673777155,2024-11-28 15h54.56.968589 +0100,
36,150,0,44,None,49,49,0,True,left,0.9367138669999804,None,,,,,,,,0,49,49,49,,,,,,,,,442.37634625300007,,,,,,,,,,,,,,,,,,,,,,,,,,,,,,,,,,,,,,,442.3670599789998,442.37634625300007,443.37623184999984,444.3605905690001,444.3605905690001,444.3605905690001,445.31142995499977,left,0.9367138669999804,None,,,,,,,,,,,,,,,,,,,,,,,,,,,,,,,,,,,,,,,,,,,305240,001,2024-11-28_15h54.46.848,Test,2024.2.1,60.0539673777155,2024-11-28 15h54.56.968589 +0100,
53,150,90,60,None,50,50,0,True,right,1.314128471999993,None,,,,,,,,0,50,50,50,,,,,,,,,445.326514332,,,,,,,,,,,,,,,,,,,,,,,,,,,,,,,,,,,,,,,445.3168700420001,445.326514332,446.32700577900005,447.3109786509999,447.3109786509999,447.3109786509999,448.6291390639999,right,1.314128471999993,None,,,,,,,,,,,,,,,,,,,,,,,,,,,,,,,,,,,,,,,,,,,305240,001,2024-11-28_15h54.46.848,Test,2024.2.1,60.0539673777155,2024-11-28 15h54.56.968589 +0100,
33,150,180,67,None,51,51,0,False,right,1.501367848999962,None,,,,,,,,0,51,51,51,,,,,,,,,448.6434529969997,,,,,,,,,,,,,,,,,,,,,,,,,,,,,,,,,,,,,,,448.63249475199973,448.6434529969997,449.6440329960001,450.64479460099983,450.64479460099983,450.64479460099983,452.16062638099993,right,1.501367848999962,None,,,,,,,,,,,,,,,,,,,,,,,,,,,,,,,,,,,,,,,,,,,305240,001,2024-11-28_15h54.46.848,Test,2024.2.1,60.0539673777155,2024-11-28 15h54.56.968589 +0100,
32,150,180,7,None,52,52,0,False,right,1.699916970999766,None,,,,,,,,0,52,52,52,,,,,,,,,452.1766766769997,,,,,,,,,,,,,,,,,,,,,,,,,,,,,,,,,,,,,,,452.1640583999997,452.1766766769997,453.17813940099995,454.1606129239999,454.1606129239999,454.1606129239999,455.8634190869998,right,1.699916970999766,None,,,,,,,,,,,,,,,,,,,,,,,,,,,,,,,,,,,,,,,,,,,305240,001,2024-11-28_15h54.46.848,Test,2024.2.1,60.0539673777155,2024-11-28 15h54.56.968589 +0100,
16,150,90,64,None,53,53,0,False,left,1.3352868459996898,None,,,,,,,,0,53,53,53,,,,,,,,,455.8772594080001,,,,,,,,,,,,,,,,,,,,,,,,,,,,,,,,,,,,,,,455.8669085460001,455.8772594080001,456.87725266000007,457.8773002769999,457.8773002769999,457.8773002769999,459.22951989800004,left,1.3352868459996898,None,,,,,,,,,,,,,,,,,,,,,,,,,,,,,,,,,,,,,,,,,,,305240,001,2024-11-28_15h54.46.848,Test,2024.2.1,60.0539673777155,2024-11-28 15h54.56.968589 +0100,
50,150,60,69,None,54,54,0,True,left,1.1562614310000754,None,,,,,,,,0,54,54,54,,,,,,,,,459.244635859,,,,,,,,,,,,,,,,,,,,,,,,,,,,,,,,,,,,,,,459.23539410500007,459.244635859,460.2445680709998,461.24425685000006,461.24425685000006,461.24425685000006,462.4131633689999,left,1.1562614310000754,None,,,,,,,,,,,,,,,,,,,,,,,,,,,,,,,,,,,,,,,,,,,305240,001,2024-11-28_15h54.46.848,Test,2024.2.1,60.0539673777155,2024-11-28 15h54.56.968589 +0100,
57,150,120,54,None,55,55,0,True,left,1.0077496979997704,None,,,,,,,,0,55,55,55,,,,,,,,,462.42835362100004,,,,,,,,,,,,,,,,,,,,,,,,,,,,,,,,,,,,,,,462.419346874,462.42835362100004,463.42789099699985,464.4278015509999,464.4278015509999,464.4278015509999,465.44640010800003,left,1.0077496979997704,None,,,,,,,,,,,,,,,,,,,,,,,,,,,,,,,,,,,,,,,,,,,305240,001,2024-11-28_15h54.46.848,Test,2024.2.1,60.0539673777155,2024-11-28 15h54.56.968589 +0100,
34,150,180,25,None,56,56,0,False,left,1.353441802999896,None,,,,,,,,0,56,56,56,,,,,,,,,465.46116486599976,,,,,,,,,,,,,,,,,,,,,,,,,,,,,,,,,,,,,,,465.4498863089998,465.46116486599976,466.4614713259998,467.4459348629998,467.4459348629998,467.4459348629998,468.8137225390001,left,1.353441802999896,None,,,,,,,,,,,,,,,,,,,,,,,,,,,,,,,,,,,,,,,,,,,305240,001,2024-11-28_15h54.46.848,Test,2024.2.1,60.0539673777155,2024-11-28 15h54.56.968589 +0100,
28,150,150,52,None,57,57,0,False,left,1.2010745600000519,None,,,,,,,,0,57,57,57,,,,,,,,,468.82793822899976,,,,,,,,,,,,,,,,,,,,,,,,,,,,,,,,,,,,,,,468.817315667,468.82793822899976,469.828764589,470.8288351169999,470.8288351169999,470.8288351169999,472.0539922170001,left,1.2010745600000519,None,,,,,,,,,,,,,,,,,,,,,,,,,,,,,,,,,,,,,,,,,,,305240,001,2024-11-28_15h54.46.848,Test,2024.2.1,60.0539673777155,2024-11-28 15h54.56.968589 +0100,
25,150,120,55,None,58,58,0,False,left,0.9411406920003174,None,,,,,,,,0,58,58,58,,,,,,,,,472.067459374,,,,,,,,,,,,,,,,,,,,,,,,,,,,,,,,,,,,,,,472.05966231799994,472.067459374,473.0783668670001,474.06290180199994,474.06290180199994,474.06290180199994,475.01494141500007,left,0.9411406920003174,None,,,,,,,,,,,,,,,,,,,,,,,,,,,,,,,,,,,,,,,,,,,305240,001,2024-11-28_15h54.46.848,Test,2024.2.1,60.0539673777155,2024-11-28 15h54.56.968589 +0100,
58,150,120,29,None,59,59,0,True,left,1.5526168450001023,None,,,,,,,,0,59,59,59,,,,,,,,,475.04387885799997,,,,,,,,,,,,,,,,,,,,,,,,,,,,,,,,,,,,,,,475.02117883699975,475.04387885799997,476.0452278399998,477.0289424059997,477.0289424059997,477.0289424059997,478.5969934699997,left,1.5526168450001023,None,,,,,,,,,,,,,,,,,,,,,,,,,,,,,,,,,,,,,,,,,,,305240,001,2024-11-28_15h54.46.848,Test,2024.2.1,60.0539673777155,2024-11-28 15h54.56.968589 +0100,
44,150,30,10,None,60,60,0,True,right,2.584165625999958,None,,,,,,,,0,60,60,60,,,,,,,,,478.6124055800001,,,,,,,,,,,,,,,,,,,,,,,,,,,,,,,,,,,,,,,478.6026534759999,478.6124055800001,479.6127215030001,480.5968124830001,480.5968124830001,480.5968124830001,483.19696781699986,right,2.584165625999958,None,,,,,,,,,,,,,,,,,,,,,,,,,,,,,,,,,,,,,,,,,,,305240,001,2024-11-28_15h54.46.848,Test,2024.2.1,60.0539673777155,2024-11-28 15h54.56.968589 +0100,
65,150,150,12,None,61,61,0,True,right,2.2836930599996776,None,,,,,,,,0,61,61,61,,,,,,,,,483.21251598599974,,,,,,,,,,,,,,,,,,,,,,,,,,,,,,,,,,,,,,,483.20279746000006,483.21251598599974,484.2124356659997,485.1964960739997,485.1964960739997,485.1964960739997,487.4823294329999,right,2.2836930599996776,None,,,,,,,,,,,,,,,,,,,,,,,,,,,,,,,,,,,,,,,,,,,305240,001,2024-11-28_15h54.46.848,Test,2024.2.1,60.0539673777155,2024-11-28 15h54.56.968589 +0100,
21,150,120,51,None,62,62,0,False,left,4.519161212999734,None,,,,,,,,0,62,62,62,,,,,,,,,487.4956126369998,,,,,,,,,,,,,,,,,,,,,,,,,,,,,,,,,,,,,,,487.4859410539998,487.4956126369998,488.4967454970001,489.49701164,489.49701164,489.49701164,494.03176335399985,left,4.519161212999734,None,492.4969341629999,492.4969341629999,492.4969341629999,,,,,,,,,,,,,,,,,,,,,,,,,,,,,,,,,,,,,,,,305240,001,2024-11-28_15h54.46.848,Test,2024.2.1,60.0539673777155,2024-11-28 15h54.56.968589 +0100,
27,150,150,24,None,63,63,0,False,right,1.185439604000294,None,,,,,,,,0,63,63,63,,,,,,,,,494.04644808800003,,,,,,,,,,,,,,,,,,,,,,,,,,,,,,,,,,,,,,,494.035257944,494.04644808800003,495.04721426800006,496.0473124179998,496.0473124179998,496.0473124179998,497.2472895709998,right,1.185439604000294,None,,,,,,,,,,,,,,,,,,,,,,,,,,,,,,,,,,,,,,,,,,,305240,001,2024-11-28_15h54.46.848,Test,2024.2.1,60.0539673777155,2024-11-28 15h54.56.968589 +0100,
22,150,120,65,None,64,64,0,False,left,1.7924569169999813,None,,,,,,,,0,64,64,64,,,,,,,,,497.26376102099994,,,,,,,,,,,,,,,,,,,,,,,,,,,,,,,,,,,,,,,497.250913328,497.26376102099994,498.26444249299993,499.2480225869999,499.2480225869999,499.2480225869999,501.04879982600005,left,1.7924569169999813,None,,,,,,,,,,,,,,,,,,,,,,,,,,,,,,,,,,,,,,,,,,,305240,001,2024-11-28_15h54.46.848,Test,2024.2.1,60.0539673777155,2024-11-28 15h54.56.968589 +0100,
10,150,30,28,None,65,65,0,False,left,0.8270721399999275,None,,,,,,,,0,65,65,65,,,,,,,,,501.06378168799984,,,,,,,,,,,,,,,,,,,,,,,,,,,,,,,,,,,,,,,501.05233194599987,501.06378168799984,502.064948789,503.0641692670001,503.0641692670001,503.0641692670001,503.8988920060001,left,0.8270721399999275,None,,,,,,,,,,,,,,,,,,,,,,,,,,,,,,,,,,,,,,,,,,,305240,001,2024-11-28_15h54.46.848,Test,2024.2.1,60.0539673777155,2024-11-28 15h54.56.968589 +0100,
35,150,180,21,None,66,66,0,False,right,0.9833111729999473,None,,,,,,,,0,66,66,66,,,,,,,,,503.9137165349998,,,,,,,,,,,,,,,,,,,,,,,,,,,,,,,,,,,,,,,503.90257088,503.9137165349998,504.9144758729999,505.898102614,505.898102614,505.898102614,506.88601522299996,right,0.9833111729999473,None,,,,,,,,,,,,,,,,,,,,,,,,,,,,,,,,,,,,,,,,,,,305240,001,2024-11-28_15h54.46.848,Test,2024.2.1,60.0539673777155,2024-11-28 15h54.56.968589 +0100,
62,150,150,58,None,67,67,0,True,right,1.533961143000397,None,,,,,,,,0,67,67,67,,,,,,,,,506.9008070939999,,,,,,,,,,,,,,,,,,,,,,,,,,,,,,,,,,,,,,,506.8919495269997,506.9008070939999,507.9151736069998,508.8973822369999,508.8973822369999,508.8973822369999,510.43379298699983,right,1.533961143000397,None,,,,,,,,,,,,,,,,,,,,,,,,,,,,,,,,,,,,,,,,,,,305240,001,2024-11-28_15h54.46.848,Test,2024.2.1,60.0539673777155,2024-11-28 15h54.56.968589 +0100,
18,150,90,38,None,68,68,0,False,left,0.8416796669998803,None,,,,,,,,0,68,68,68,,,,,,,,,510.447606017,,,,,,,,,,,,,,,,,,,,,,,,,,,,,,,,,,,,,,,510.43737410699987,510.447606017,511.447844455,512.4483495619997,512.4483495619997,512.4483495619997,513.2996285579998,left,0.8416796669998803,None,,,,,,,,,,,,,,,,,,,,,,,,,,,,,,,,,,,,,,,,,,,305240,001,2024-11-28_15h54.46.848,Test,2024.2.1,60.0539673777155,2024-11-28 15h54.56.968589 +0100,
56,150,120,59,None,69,69,0,True,left,1.4057052400003158,None,,,,,,,,0,69,69,69,,,,,,,,,513.3155644359999,,,,,,,,,,,,,,,,,,,,,,,,,,,,,,,,,,,,,,,513.3064002450001,513.3155644359999,514.3146653459999,515.3155082119997,515.3155082119997,515.3155082119997,516.7324576450001,left,1.4057052400003158,None,,,,,,,,,,,,,,,,,,,,,,,,,,,,,,,,,,,,,,,,,,,305240,001,2024-11-28_15h54.46.848,Test,2024.2.1,60.0539673777155,2024-11-28 15h54.56.968589 +0100,
,,,,,,,,,,,,,,,,,,,,,,,,,,,,,,,,,,,,,,,,,,,,,,,,,,,,,,,,,,,,,,,,,,,,,,,,,,,,,,,,,,,516.732629395,516.7480395379998,516.7480395379998,535.3680977539998,space,18.61514497799999,None,,,,,,,,,,,,,,,,,,,,,,,,,,,,,,,,,305240,001,2024-11-28_15h54.46.848,Test,2024.2.1,60.0539673777155,2024-11-28 15h54.56.968589 +0100,
14,150,60,13,None,0,0,0,,,,,,,,,,,,,,,,0,0,0,13,,,,,535.3912771199998,,,,,,,,,,,,,,,,,,,,,,,,,,,,,,,,,,,,,,,,,,,,,,,,,,,,,,,,,,,535.382422745,535.3912771199998,535.5832369089999,535.5832369089999,535.599558036,537.2866671239999,537.2866671239999,537.2681953389997,,,,,,,,,,,,,,,,,,,,,,,,,305240,001,2024-11-28_15h54.46.848,Test,2024.2.1,60.0539673777155,2024-11-28 15h54.56.968589 +0100,
6,150,30,36,None,1,1,0,,,,,,,,,,,,,,,,0,1,1,5,,,,,537.2866671239999,,,,,,,,,,,,,,,,,,,,,,,,,,,,,,,,,,,,,,,,,,,,,,,,,,,,,,,,,,,537.2779226980001,537.2866671239999,537.4833296689999,537.4833296689999,537.499355944,539.182477546,539.182477546,539.1676305239998,,,,,,,,,,,,,,,,,,,,,,,,,305240,001,2024-11-28_15h54.46.848,Test,2024.2.1,60.0539673777155,2024-11-28 15h54.56.968589 +0100,
35,150,180,21,None,2,2,0,,,,,,,,,,,,,,,,0,2,2,34,,,,,539.182477546,,,,,,,,,,,,,,,,,,,,,,,,,,,,,,,,,,,,,,,,,,,,,,,,,,,,,,,,,,,539.1737612040001,539.182477546,539.3828204419997,539.3828204419997,539.3828204419997,541.0826742959998,541.0826742959998,541.067200636,,,,,,,,,,,,,,,,,,,,,,,,,305240,001,2024-11-28_15h54.46.848,Test,2024.2.1,60.0539673777155,2024-11-28 15h54.56.968589 +0100,
26,150,150,48,None,3,3,0,,,,,,,,,,,,,,,,0,3,3,25,,,,,541.0826742959998,,,,,,,,,,,,,,,,,,,,,,,,,,,,,,,,,,,,,,,,,,,,,,,,,,,,,,,,,,,541.0733856689999,541.0826742959998,541.283334704,541.283334704,541.283334704,542.9836760039998,542.9836760039998,542.9681042269999,,,,,,,,,,,,,,,,,,,,,,,,,305240,001,2024-11-28_15h54.46.848,Test,2024.2.1,60.0539673777155,2024-11-28 15h54.56.968589 +0100,
30,150,150,4,None,4,4,0,,,,,,,,,,,,,,,,0,4,4,29,,,,,542.9836760039998,,,,,,,,,,,,,,,,,,,,,,,,,,,,,,,,,,,,,,,,,,,,,,,,,,,,,,,,,,,542.9752613549999,542.9836760039998,543.1832107539999,543.1832107539999,543.1832107539999,544.8885401090001,544.8885401090001,544.8689300269998,,,,,,,,,,,,,,,,,,,,,,,,,305240,001,2024-11-28_15h54.46.848,Test,2024.2.1,60.0539673777155,2024-11-28 15h54.56.968589 +0100,
10,150,30,28,None,5,5,0,,,,,,,,,,,,,,,,0,5,5,9,,,,,544.8885401090001,,,,,,,,,,,,,,,,,,,,,,,,,,,,,,,,,,,,,,,,,,,,,,,,,,,,,,,,,,,544.8790566560001,544.8885401090001,545.0837586069997,545.0837586069997,545.100119098,546.7830706249997,546.7830706249997,546.7676014129997,,,,,,,,,,,,,,,,,,,,,,,,,305240,001,2024-11-28_15h54.46.848,Test,2024.2.1,60.0539673777155,2024-11-28 15h54.56.968589 +0100,
4,150,0,63,None,6,6,0,,,,,,,,,,,,,,,,0,6,6,3,,,,,546.7830706249997,,,,,,,,,,,,,,,,,,,,,,,,,,,,,,,,,,,,,,,,,,,,,,,,,,,,,,,,,,,546.7745643600001,546.7830706249997,546.9680293430001,546.9680293430001,546.9848763719997,548.6709256509998,548.6709256509998,548.6522553119999,,,,,,,,,,,,,,,,,,,,,,,,,305240,001,2024-11-28_15h54.46.848,Test,2024.2.1,60.0539673777155,2024-11-28 15h54.56.968589 +0100,
5,150,0,45,None,7,7,0,,,,,,,,,,,,,,,,0,7,7,4,,,,,548.6709256509998,,,,,,,,,,,,,,,,,,,,,,,,,,,,,,,,,,,,,,,,,,,,,,,,,,,,,,,,,,,548.6618682519997,548.6709256509998,548.8672944209998,548.8672944209998,548.8835878609998,550.567532819,550.567532819,550.551229398,,,,,,,,,,,,,,,,,,,,,,,,,305240,001,2024-11-28_15h54.46.848,Test,2024.2.1,60.0539673777155,2024-11-28 15h54.56.968589 +0100,
28,150,150,52,None,8,8,0,,,,,,,,,,,,,,,,0,8,8,27,,,,,550.567532819,,,,,,,,,,,,,,,,,,,,,,,,,,,,,,,,,,,,,,,,,,,,,,,,,,,,,,,,,,,550.5586445260001,550.5840577489998,550.7679871189998,550.7679871189998,550.784618611,552.467126132,552.467126132,552.4512796260001,,,,,,,,,,,,,,,,,,,,,,,,,305240,001,2024-11-28_15h54.46.848,Test,2024.2.1,60.0539673777155,2024-11-28 15h54.56.968589 +0100,
32,150,180,7,None,9,9,0,,,,,,,,,,,,,,,,0,9,9,31,,,,,552.467126132,,,,,,,,,,,,,,,,,,,,,,,,,,,,,,,,,,,,,,,,,,,,,,,,,,,,,,,,,,,552.4588279889999,552.467126132,552.667393103,552.667393103,552.667393103,554.3671317590001,554.3671317590001,554.351599136,,,,,,,,,,,,,,,,,,,,,,,,,305240,001,2024-11-28_15h54.46.848,Test,2024.2.1,60.0539673777155,2024-11-28 15h54.56.968589 +0100,
21,150,120,51,None,10,10,0,,,,,,,,,,,,,,,,0,10,10,20,,,,,554.3671317590001,,,,,,,,,,,,,,,,,,,,,,,,,,,,,,,,,,,,,,,,,,,,,,,,,,,,,,,,,,,554.3572366809999,554.3671317590001,554.5673962629999,554.5673962629999,554.5673962629999,556.2672907890001,556.2672907890001,556.2516111269997,,,,,,,,,,,,,,,,,,,,,,,,,305240,001,2024-11-28_15h54.46.848,Test,2024.2.1,60.0539673777155,2024-11-28 15h54.56.968589 +0100,
8,150,30,41,None,11,11,0,,,,,,,,,,,,,,,,0,11,11,7,,,,,556.2672907890001,,,,,,,,,,,,,,,,,,,,,,,,,,,,,,,,,,,,,,,,,,,,,,,,,,,,,,,,,,,556.2575128479998,556.2672907890001,556.4675708579998,556.4675708579998,556.4675708579998,558.171411279,558.171411279,558.1528906809999,,,,,,,,,,,,,,,,,,,,,,,,,305240,001,2024-11-28_15h54.46.848,Test,2024.2.1,60.0539673777155,2024-11-28 15h54.56.968589 +0100,
13,150,60,9,None,12,12,0,,,,,,,,,,,,,,,,0,12,12,12,,,,,558.171411279,,,,,,,,,,,,,,,,,,,,,,,,,,,,,,,,,,,,,,,,,,,,,,,,,,,,,,,,,,,558.1626303469998,558.171411279,558.3675439660001,558.3675439660001,558.3848086319999,560.0678665689998,560.0678665689998,560.051833941,,,,,,,,,,,,,,,,,,,,,,,,,305240,001,2024-11-28_15h54.46.848,Test,2024.2.1,60.0539673777155,2024-11-28 15h54.56.968589 +0100,
23,150,120,16,None,13,13,0,,,,,,,,,,,,,,,,0,13,13,22,,,,,560.0678665689998,,,,,,,,,,,,,,,,,,,,,,,,,,,,,,,,,,,,,,,,,,,,,,,,,,,,,,,,,,,560.0572262830001,560.0678665689998,560.2681393399998,560.2681393399998,560.2681393399998,561.9679679420001,561.9679679420001,561.9518736659998,,,,,,,,,,,,,,,,,,,,,,,,,305240,001,2024-11-28_15h54.46.848,Test,2024.2.1,60.0539673777155,2024-11-28 15h54.56.968589 +0100,
16,150,90,64,None,14,14,0,,,,,,,,,,,,,,,,0,14,14,15,,,,,561.9679679420001,,,,,,,,,,,,,,,,,,,,,,,,,,,,,,,,,,,,,,,,,,,,,,,,,,,,,,,,,,,561.9572323100001,561.9679679420001,562.167848047,562.167848047,562.167848047,563.8685517019999,563.8685517019999,563.852445425,,,,,,,,,,,,,,,,,,,,,,,,,305240,001,2024-11-28_15h54.46.848,Test,2024.2.1,60.0539673777155,2024-11-28 15h54.56.968589 +0100,
33,150,180,67,None,15,15,0,,,,,,,,,,,,,,,,0,15,15,32,,,,,563.8685517019999,,,,,,,,,,,,,,,,,,,,,,,,,,,,,,,,,,,,,,,,,,,,,,,,,,,,,,,,,,,563.8600002170001,563.8685517019999,564.0684466019998,564.0684466019998,564.0684466019998,565.7717632230001,565.7717632230001,565.7536023970001,,,,,,,,,,,,,,,,,,,,,,,,,305240,001,2024-11-28_15h54.46.848,Test,2024.2.1,60.0539673777155,2024-11-28 15h54.56.968589 +0100,
31,150,180,20,None,16,16,0,,,,,,,,,,,,,,,,0,16,16,30,,,,,565.7717632230001,,,,,,,,,,,,,,,,,,,,,,,,,,,,,,,,,,,,,,,,,,,,,,,,,,,,,,,,,,,565.763503179,565.7717632230001,565.9684375249999,565.9684375249999,565.9849171850001,567.6684547129998,567.6684547129998,567.6523070899998,,,,,,,,,,,,,,,,,,,,,,,,,305240,001,2024-11-28_15h54.46.848,Test,2024.2.1,60.0539673777155,2024-11-28 15h54.56.968589 +0100,
15,150,60,70,None,17,17,0,,,,,,,,,,,,,,,,0,17,17,14,,,,,567.6684547129998,,,,,,,,,,,,,,,,,,,,,,,,,,,,,,,,,,,,,,,,,,,,,,,,,,,,,,,,,,,567.6578397459998,567.6684547129998,567.8688766249998,567.8688766249998,567.8688766249998,569.5724977099999,569.5724977099999,569.5539355169999,,,,,,,,,,,,,,,,,,,,,,,,,305240,001,2024-11-28_15h54.46.848,Test,2024.2.1,60.0539673777155,2024-11-28 15h54.56.968589 +0100,
29,150,150,43,None,18,18,0,,,,,,,,,,,,,,,,0,18,18,28,,,,,569.5724977099999,,,,,,,,,,,,,,,,,,,,,,,,,,,,,,,,,,,,,,,,,,,,,,,,,,,,,,,,,,,569.5637526169999,569.5724977099999,569.769383287,569.769383287,569.7863447710001,571.4720694479997,571.4720694479997,571.4538268719998,,,,,,,,,,,,,,,,,,,,,,,,,305240,001,2024-11-28_15h54.46.848,Test,2024.2.1,60.0539673777155,2024-11-28 15h54.56.968589 +0100,
1,150,0,2,None,19,19,0,,,,,,,,,,,,,,,,0,19,19,0,,,,,571.4720694479997,,,,,,,,,,,,,,,,,,,,,,,,,,,,,,,,,,,,,,,,,,,,,,,,,,,,,,,,,,,571.4634051779999,571.4720694479997,571.668969971,571.668969971,571.6858288630001,573.3695836920001,573.3695836920001,573.3530278170001,,,,,,,,,,,,,,,,,,,,,,,,,305240,001,2024-11-28_15h54.46.848,Test,2024.2.1,60.0539673777155,2024-11-28 15h54.56.968589 +0100,
18,150,90,38,None,20,20,0,,,,,,,,,,,,,,,,0,20,20,17,,,,,573.3695836920001,,,,,,,,,,,,,,,,,,,,,,,,,,,,,,,,,,,,,,,,,,,,,,,,,,,,,,,,,,,573.3611201190001,573.3695836920001,573.5689975709997,573.5689975709997,573.5689975709997,575.2687155620001,575.2687155620001,575.2531728469999,,,,,,,,,,,,,,,,,,,,,,,,,305240,001,2024-11-28_15h54.46.848,Test,2024.2.1,60.0539673777155,2024-11-28 15h54.56.968589 +0100,
24,150,120,26,None,21,21,0,,,,,,,,,,,,,,,,0,21,21,23,,,,,575.2687155620001,,,,,,,,,,,,,,,,,,,,,,,,,,,,,,,,,,,,,,,,,,,,,,,,,,,,,,,,,,,575.2594993849998,575.2687155620001,575.4696317309999,575.4696317309999,575.4696317309999,577.1729251659999,577.1729251659999,577.154142413,,,,,,,,,,,,,,,,,,,,,,,,,305240,001,2024-11-28_15h54.46.848,Test,2024.2.1,60.0539673777155,2024-11-28 15h54.56.968589 +0100,
27,150,150,24,None,22,22,0,,,,,,,,,,,,,,,,0,22,22,26,,,,,577.1729251659999,,,,,,,,,,,,,,,,,,,,,,,,,,,,,,,,,,,,,,,,,,,,,,,,,,,,,,,,,,,577.1637870579998,577.1729251659999,577.3690777299998,577.3690777299998,577.385963322,579.0685525700001,579.0685525700001,579.053213574,,,,,,,,,,,,,,,,,,,,,,,,,305240,001,2024-11-28_15h54.46.848,Test,2024.2.1,60.0539673777155,2024-11-28 15h54.56.968589 +0100,
3,150,0,39,None,23,23,0,,,,,,,,,,,,,,,,0,23,23,2,,,,,579.0685525700001,,,,,,,,,,,,,,,,,,,,,,,,,,,,,,,,,,,,,,,,,,,,,,,,,,,,,,,,,,,579.058595171,579.0685525700001,579.270020209,579.270020209,579.270020209,580.972927156,580.972927156,580.9548515759998,,,,,,,,,,,,,,,,,,,,,,,,,305240,001,2024-11-28_15h54.46.848,Test,2024.2.1,60.0539673777155,2024-11-28 15h54.56.968589 +0100,
9,150,30,40,None,24,24,0,,,,,,,,,,,,,,,,0,24,24,8,,,,,580.972927156,,,,,,,,,,,,,,,,,,,,,,,,,,,,,,,,,,,,,,,,,,,,,,,,,,,,,,,,,,,580.964965272,580.972927156,581.1697858100001,581.1697858100001,581.186360362,582.8694616130001,582.8694616130001,582.8539231350001,,,,,,,,,,,,,,,,,,,,,,,,,305240,001,2024-11-28_15h54.46.848,Test,2024.2.1,60.0539673777155,2024-11-28 15h54.56.968589 +0100,
19,150,90,49,None,25,25,0,,,,,,,,,,,,,,,,0,25,25,18,,,,,582.8694616130001,,,,,,,,,,,,,,,,,,,,,,,,,,,,,,,,,,,,,,,,,,,,,,,,,,,,,,,,,,,582.8596863499997,582.8694616130001,583.0701793569997,583.0701793569997,583.0701793569997,584.7726260149998,584.7726260149998,584.7548137999997,,,,,,,,,,,,,,,,,,,,,,,,,305240,001,2024-11-28_15h54.46.848,Test,2024.2.1,60.0539673777155,2024-11-28 15h54.56.968589 +0100,
34,150,180,25,None,26,26,0,,,,,,,,,,,,,,,,0,26,26,33,,,,,584.7726260149998,,,,,,,,,,,,,,,,,,,,,,,,,,,,,,,,,,,,,,,,,,,,,,,,,,,,,,,,,,,584.76463109,584.7726260149998,584.9694282259998,584.9694282259998,584.986694146,586.672793658,586.672793658,586.655027407,,,,,,,,,,,,,,,,,,,,,,,,,305240,001,2024-11-28_15h54.46.848,Test,2024.2.1,60.0539673777155,2024-11-28 15h54.56.968589 +0100,
11,150,60,53,None,27,27,0,,,,,,,,,,,,,,,,0,27,27,10,,,,,586.672793658,,,,,,,,,,,,,,,,,,,,,,,,,,,,,,,,,,,,,,,,,,,,,,,,,,,,,,,,,,,586.6645999449997,586.672793658,586.869615005,586.869615005,586.886792148,588.573682968,588.573682968,588.5553911500001,,,,,,,,,,,,,,,,,,,,,,,,,305240,001,2024-11-28_15h54.46.848,Test,2024.2.1,60.0539673777155,2024-11-28 15h54.56.968589 +0100,
2,150,0,8,None,28,28,0,,,,,,,,,,,,,,,,0,28,28,1,,,,,588.573682968,,,,,,,,,,,,,,,,,,,,,,,,,,,,,,,,,,,,,,,,,,,,,,,,,,,,,,,,,,,588.565270525,588.573682968,588.769821803,588.769821803,588.7864155789998,590.4695692659998,590.4695692659998,590.4538530479999,,,,,,,,,,,,,,,,,,,,,,,,,305240,001,2024-11-28_15h54.46.848,Test,2024.2.1,60.0539673777155,2024-11-28 15h54.56.968589 +0100,
20,150,90,37,None,29,29,0,,,,,,,,,,,,,,,,0,29,29,19,,,,,590.4695692659998,,,,,,,,,,,,,,,,,,,,,,,,,,,,,,,,,,,,,,,,,,,,,,,,,,,,,,,,,,,590.4598976839998,590.4695692659998,590.6698964490001,590.6698964490001,590.6698964490001,592.3706951419999,592.3706951419999,592.354495129,,,,,,,,,,,,,,,,,,,,,,,,,305240,001,2024-11-28_15h54.46.848,Test,2024.2.1,60.0539673777155,2024-11-28 15h54.56.968589 +0100,
17,150,90,19,None,30,30,0,,,,,,,,,,,,,,,,0,30,30,16,,,,,592.3706951419999,,,,,,,,,,,,,,,,,,,,,,,,,,,,,,,,,,,,,,,,,,,,,,,,,,,,,,,,,,,592.3621454019999,592.3706951419999,592.5712023669998,592.5712023669998,592.5712023669998,594.2701830259998,594.2701830259998,594.2543429990001,,,,,,,,,,,,,,,,,,,,,,,,,305240,001,2024-11-28_15h54.46.848,Test,2024.2.1,60.0539673777155,2024-11-28 15h54.56.968589 +0100,
25,150,120,55,None,31,31,0,,,,,,,,,,,,,,,,0,31,31,24,,,,,594.2701830259998,,,,,,,,,,,,,,,,,,,,,,,,,,,,,,,,,,,,,,,,,,,,,,,,,,,,,,,,,,,594.260171932,594.2701830259998,594.4714959009998,594.4714959009998,594.4714959009998,,,596.1703791689997,,,,,,,,,,,,,,,,,,,,,,,,,305240,001,2024-11-28_15h54.46.848,Test,2024.2.1,60.0539673777155,2024-11-28 15h54.56.968589 +0100,
12,150,60,15,None,32,32,0,,,,,,,,,,,,,,,,0,32,32,11,,,,,596.187431114,,,,,,,,,,,,,,,,,,,,,,,,,,,,,,,,,,,,,,,,,,,,,,,,,,,,,,,,,,,596.176373799,596.187431114,596.3707488919999,596.3707488919999,596.387221645,598.0707007769997,598.0707007769997,598.054525429,,,,,,,,,,,,,,,,,,,,,,,,,305240,001,2024-11-28_15h54.46.848,Test,2024.2.1,60.0539673777155,2024-11-28 15h54.56.968589 +0100,
7,150,30,47,None,33,33,0,,,,,,,,,,,,,,,,0,33,33,6,,,,,598.0707007769997,,,,,,,,,,,,,,,,,,,,,,,,,,,,,,,,,,,,,,,,,,,,,,,,,,,,,,,,,,,598.0619078219997,598.0707007769997,598.2711822860001,598.2711822860001,598.2711822860001,599.9730841400001,599.9730841400001,599.955565275,,,,,,,,,,,,,,,,,,,,,,,,,305240,001,2024-11-28_15h54.46.848,Test,2024.2.1,60.0539673777155,2024-11-28 15h54.56.968589 +0100,
22,150,120,65,None,34,34,0,,,,,,,,,,,,,,,,0,34,34,21,,,,,599.9730841400001,,,,,,,,,,,,,,,,,,,,,,,,,,,,,,,,,,,,,,,,,,,,,,,,,,,,,,,,,,,599.9646226539999,599.9730841400001,600.1709067769998,600.1709067769998,600.187383595,601.8711267379999,601.8711267379999,601.8546954620001,,,,,,,,,,,,,,,,,,,,,,,,,305240,001,2024-11-28_15h54.46.848,Test,2024.2.1,60.0539673777155,2024-11-28 15h54.56.968589 +0100,
,,,,,,,,,,,,,,,,,,,,,,,,,,,,,,,,,,,,,,,,,,,,,,,,,,,,,,,,,,,,,,,,,,,,,,,,,,,,,,,,,,,,,,,,,,,,,,,,,,601.8548430729998,601.8711267379999,601.8711267379999,606.3724742290001,space,4.488465724999969,None,,,,,,,,,,,,,,,,,,305240,001,2024-11-28_15h54.46.848,Test,2024.2.1,60.0539673777155,2024-11-28 15h54.56.968589 +0100,
39,150,0,57,None,0,0,0,True,,,,left,1.0920739459998003,None,,,,,,,,,,,,,0,0,0,0,606.396991131,,,,,,,,,,,,,,,,,,,,,,,,,,,,,,,,,,,,,,,,,,,,,,,,,,,,,,,,,,,,,,,,,,,,,,,,,,606.386401238,606.396991131,607.4054300110001,608.3721757099997,608.3721757099997,608.3721757099997,609.4727077799998,left,1.0920739459998003,None,,,,,,,,305240,001,2024-11-28_15h54.46.848,Test,2024.2.1,60.0539673777155,2024-11-28 15h54.56.968589 +0100,
52,150,90,23,None,1,1,0,True,,,,left,0.8270115880000048,None,,,,,,,,,,,,,0,1,1,1,609.4880463,,,,,,,,,,,,,,,,,,,,,,,,,,,,,,,,,,,,,,,,,,,,,,,,,,,,,,,,,,,,,,,,,,,,,,,,,,609.478222746,609.4880463,610.4886818330001,611.4877521469998,611.4877521469998,611.4877521469998,612.3231637240001,left,0.8270115880000048,None,,,,,,,,305240,001,2024-11-28_15h54.46.848,Test,2024.2.1,60.0539673777155,2024-11-28 15h54.56.968589 +0100,
63,150,150,66,None,2,2,0,True,,,,left,0.7145554220001031,None,,,,,,,,,,,,,0,2,2,2,612.3383231059997,,,,,,,,,,,,,,,,,,,,,,,,,,,,,,,,,,,,,,,,,,,,,,,,,,,,,,,,,,,,,,,,,,,,,,,,,,612.3283953179998,612.3383231059997,613.3386418299997,614.3376262749998,614.3376262749998,614.3376262749998,615.0571400509998,left,0.7145554220001031,None,,,,,,,,305240,001,2024-11-28_15h54.46.848,Test,2024.2.1,60.0539673777155,2024-11-28 15h54.56.968589 +0100,
68,150,180,46,None,3,3,0,True,,,,left,1.1978889490001166,None,,,,,,,,,,,,,0,3,3,3,615.072630867,,,,,,,,,,,,,,,,,,,,,,,,,,,,,,,,,,,,,,,,,,,,,,,,,,,,,,,,,,,,,,,,,,,,,,,,,,615.0629042109999,615.072630867,616.0727866889997,617.0715067420001,617.0715067420001,617.0715067420001,618.2759678469997,left,1.1978889490001166,None,,,,,,,,305240,001,2024-11-28_15h54.46.848,Test,2024.2.1,60.0539673777155,2024-11-28 15h54.56.968589 +0100,
26,150,150,48,None,4,4,0,False,,,,right,0.8843533079998451,None,,,,,,,,,,,,,0,4,4,4,618.2901002499998,,,,,,,,,,,,,,,,,,,,,,,,,,,,,,,,,,,,,,,,,,,,,,,,,,,,,,,,,,,,,,,,,,,,,,,,,,618.2803754299998,618.2901002499998,619.3052417230001,620.2890224959997,620.2890224959997,620.2890224959997,621.190904093,right,0.8843533079998451,None,,,,,,,,305240,001,2024-11-28_15h54.46.848,Test,2024.2.1,60.0539673777155,2024-11-28 15h54.56.968589 +0100,
64,150,150,32,None,5,5,0,True,,,,left,1.067857396999898,None,,,,,,,,,,,,,0,5,5,5,621.2056753409997,,,,,,,,,,,,,,,,,,,,,,,,,,,,,,,,,,,,,,,,,,,,,,,,,,,,,,,,,,,,,,,,,,,,,,,,,,621.1964335110001,621.2056753409997,622.2055529680001,623.2058115760001,623.2058115760001,623.2058115760001,624.289619137,left,1.067857396999898,None,,,,,,,,305240,001,2024-11-28_15h54.46.848,Test,2024.2.1,60.0539673777155,2024-11-28 15h54.56.968589 +0100,
20,150,90,37,None,6,6,0,False,,,,right,0.851484795000033,None,,,,,,,,,,,,,0,6,6,6,624.3051424189998,,,,,,,,,,,,,,,,,,,,,,,,,,,,,,,,,,,,,,,,,,,,,,,,,,,,,,,,,,,,,,,,,,,,,,,,,,624.293154638,624.3051424189998,625.3059503609998,626.289747326,626.289747326,626.289747326,627.157174466,right,0.851484795000033,None,,,,,,,,305240,001,2024-11-28_15h54.46.848,Test,2024.2.1,60.0539673777155,2024-11-28 15h54.56.968589 +0100,
55,150,90,14,None,7,7,0,True,,,,left,2.2026504120003665,None,,,,,,,,,,,,,0,7,7,7,627.1727926439999,,,,,,,,,,,,,,,,,,,,,,,,,,,,,,,,,,,,,,,,,,,,,,,,,,,,,,,,,,,,,,,,,,,,,,,,,,627.1635674519998,627.1727926439999,628.1728863089998,629.1729636689997,629.1729636689997,629.1729636689997,631.3910399289998,left,2.2026504120003665,None,,,,,,,,305240,001,2024-11-28_15h54.46.848,Test,2024.2.1,60.0539673777155,2024-11-28 15h54.56.968589 +0100,
1,150,0,2,None,8,8,0,False,,,,right,0.9726043599998775,None,,,,,,,,,,,,,0,8,8,8,631.4058462889998,,,,,,,,,,,,,,,,,,,,,,,,,,,,,,,,,,,,,,,,,,,,,,,,,,,,,,,,,,,,,,,,,,,,,,,,,,631.3949023199998,631.4058462889998,632.406103192,633.4064708239998,633.4064708239998,633.4064708239998,634.3908494709999,right,0.9726043599998775,None,,,,,,,,305240,001,2024-11-28_15h54.46.848,Test,2024.2.1,60.0539673777155,2024-11-28 15h54.56.968589 +0100,
14,150,60,13,None,9,9,0,False,,,,left,0.9503922760000023,None,,,,,,,,,,,,,0,9,9,9,634.406275628,,,,,,,,,,,,,,,,,,,,,,,,,,,,,,,,,,,,,,,,,,,,,,,,,,,,,,,,,,,,,,,,,,,,,,,,,,634.394598291,634.406275628,635.4063654480001,636.3899851000001,636.3899851000001,636.3899851000001,637.357537456,left,0.9503922760000023,None,,,,,,,,305240,001,2024-11-28_15h54.46.848,Test,2024.2.1,60.0539673777155,2024-11-28 15h54.56.968589 +0100,
7,150,30,47,None,10,10,0,False,,,,left,0.9723461670000688,None,,,,,,,,,,,,,0,10,10,10,637.3731026649998,,,,,,,,,,,,,,,,,,,,,,,,,,,,,,,,,,,,,,,,,,,,,,,,,,,,,,,,,,,,,,,,,,,,,,,,,,637.3613904499998,637.3731026649998,638.3735481230001,639.3736416500001,639.3736416500001,639.3736416500001,640.35845285,left,0.9723461670000688,None,,,,,,,,305240,001,2024-11-28_15h54.46.848,Test,2024.2.1,60.0539673777155,2024-11-28 15h54.56.968589 +0100,
67,150,180,18,None,11,11,0,True,,,,left,0.9681673860000046,None,,,,,,,,,,,,,0,11,11,11,640.3746027369998,,,,,,,,,,,,,,,,,,,,,,,,,,,,,,,,,,,,,,,,,,,,,,,,,,,,,,,,,,,,,,,,,,,,,,,,,,640.3642862229999,640.3746027369998,641.3743409159997,642.3733180240001,642.3733180240001,642.3733180240001,643.3589260829999,left,0.9681673860000046,None,,,,,,,,305240,001,2024-11-28_15h54.46.848,Test,2024.2.1,60.0539673777155,2024-11-28 15h54.56.968589 +0100,
54,150,90,56,None,12,12,0,True,,,,left,0.9918110539997542,None,,,,,,,,,,,,,0,12,12,12,643.373957921,,,,,,,,,,,,,,,,,,,,,,,,,,,,,,,,,,,,,,,,,,,,,,,,,,,,,,,,,,,,,,,,,,,,,,,,,,643.3644273639998,643.373957921,644.373139933,645.3733339719997,645.3733339719997,645.3733339719997,646.3762597629998,left,0.9918110539997542,None,,,,,,,,305240,001,2024-11-28_15h54.46.848,Test,2024.2.1,60.0539673777155,2024-11-28 15h54.56.968589 +0100,
9,150,30,40,None,13,13,0,False,,,,right,1.251433679999991,None,,,,,,,,,,,,,0,13,13,13,646.3915763179998,,,,,,,,,,,,,,,,,,,,,,,,,,,,,,,,,,,,,,,,,,,,,,,,,,,,,,,,,,,,,,,,,,,,,,,,,,646.3807636010001,646.3915763179998,647.3906617289999,648.3914061,648.3914061,648.3914061,649.6576962119998,right,1.251433679999991,None,,,,,,,,305240,001,2024-11-28_15h54.46.848,Test,2024.2.1,60.0539673777155,2024-11-28 15h54.56.968589 +0100,
38,150,0,61,None,14,14,0,True,,,,left,1.4279995530000633,None,,,,,,,,,,,,,0,14,14,14,649.6740420400001,,,,,,,,,,,,,,,,,,,,,,,,,,,,,,,,,,,,,,,,,,,,,,,,,,,,,,,,,,,,,,,,,,,,,,,,,,649.6634398189999,649.6740420400001,650.675184701,651.6575675670001,651.6575675670001,651.6575675670001,653.0925362449998,left,1.4279995530000633,None,,,,,,,,305240,001,2024-11-28_15h54.46.848,Test,2024.2.1,60.0539673777155,2024-11-28 15h54.56.968589 +0100,
51,150,90,22,None,15,15,0,True,,,,left,2.7592001029997846,None,,,,,,,,,,,,,0,15,15,15,653.1083437869997,,,,,,,,,,,,,,,,,,,,,,,,,,,,,,,,,,,,,,,,,,,,,,,,,,,,,,,,,,,,,,,,,,,,,,,,,,653.0987134809998,653.1083437869997,654.1076561269997,655.1082465499999,655.1082465499999,655.1082465499999,657.877655366,left,2.7592001029997846,None,,,,,,,,305240,001,2024-11-28_15h54.46.848,Test,2024.2.1,60.0539673777155,2024-11-28 15h54.56.968589 +0100,
40,150,0,30,None,16,16,0,True,,,,left,1.0357239469999513,None,,,,,,,,,,,,,0,16,16,16,657.8938205869999,,,,,,,,,,,,,,,,,,,,,,,,,,,,,,,,,,,,,,,,,,,,,,,,,,,,,,,,,,,,,,,,,,,,,,,,,,657.88544736,657.8938205869999,658.9087670210001,659.8913490330001,659.8913490330001,659.8913490330001,660.9428322200001,left,1.0357239469999513,None,,,,,,,,305240,001,2024-11-28_15h54.46.848,Test,2024.2.1,60.0539673777155,2024-11-28 15h54.56.968589 +0100,
30,150,150,4,None,17,17,0,False,,,,right,1.0757414059999064,None,,,,,,,,,,,,,0,17,17,17,660.95760604,,,,,,,,,,,,,,,,,,,,,,,,,,,,,,,,,,,,,,,,,,,,,,,,,,,,,,,,,,,,,,,,,,,,,,,,,,660.9464116230001,660.95760604,661.9582368010001,662.9426121060001,662.9426121060001,662.9426121060001,664.0263232479997,right,1.0757414059999064,None,,,,,,,,305240,001,2024-11-28_15h54.46.848,Test,2024.2.1,60.0539673777155,2024-11-28 15h54.56.968589 +0100,
24,150,120,26,None,18,18,0,False,,,,right,1.0926493860001756,None,,,,,,,,,,,,,0,18,18,18,664.0415497969998,,,,,,,,,,,,,,,,,,,,,,,,,,,,,,,,,,,,,,,,,,,,,,,,,,,,,,,,,,,,,,,,,,,,,,,,,,664.0300856879999,664.0415497969998,665.0412915070001,666.0415828139999,666.0415828139999,666.0415828139999,667.1450459089997,right,1.0926493860001756,None,,,,,,,,305240,001,2024-11-28_15h54.46.848,Test,2024.2.1,60.0539673777155,2024-11-28 15h54.56.968589 +0100,
4,150,0,63,None,19,19,0,False,,,,left,0.9911777090001124,None,,,,,,,,,,,,,0,19,19,19,667.158823962,,,,,,,,,,,,,,,,,,,,,,,,,,,,,,,,,,,,,,,,,,,,,,,,,,,,,,,,,,,,,,,,,,,,,,,,,,667.1490319,667.158823962,668.1584942019999,669.159594281,669.159594281,669.159594281,670.1597028219999,left,0.9911777090001124,None,,,,,,,,305240,001,2024-11-28_15h54.46.848,Test,2024.2.1,60.0539673777155,2024-11-28 15h54.56.968589 +0100,
11,150,60,53,None,20,20,0,False,,,,right,1.3379012410000541,None,,,,,,,,,,,,,0,20,20,20,670.1748227319999,,,,,,,,,,,,,,,,,,,,,,,,,,,,,,,,,,,,,,,,,,,,,,,,,,,,,,,,,,,,,,,,,,,,,,,,,,670.1630916260001,670.1748227319999,671.1763575689997,672.1595895109999,672.1595895109999,672.1595895109999,673.510054713,right,1.3379012410000541,None,,,,,,,,305240,001,2024-11-28_15h54.46.848,Test,2024.2.1,60.0539673777155,2024-11-28 15h54.56.968589 +0100,
61,150,150,17,None,21,21,0,True,,,,left,2.8722204410000813,None,,,,,,,,,,,,,0,21,21,21,673.5251479869999,,,,,,,,,,,,,,,,,,,,,,,,,,,,,,,,,,,,,,,,,,,,,,,,,,,,,,,,,,,,,,,,,,,,,,,,,,673.5157533440001,673.5251479869999,674.5261683569997,675.525844021,675.525844021,675.525844021,678.411018966,left,2.8722204410000813,None,,,,,,,,305240,001,2024-11-28_15h54.46.848,Test,2024.2.1,60.0539673777155,2024-11-28 15h54.56.968589 +0100,
12,150,60,15,None,22,22,0,False,,,,left,0.7819423410001036,None,,,,,,,,,,,,,0,22,22,22,678.4254011939997,,,,,,,,,,,,,,,,,,,,,,,,,,,,,,,,,,,,,,,,,,,,,,,,,,,,,,,,,,,,,,,,,,,,,,,,,,678.4146174829998,678.4254011939997,679.4268820829998,680.4264728109997,680.4264728109997,680.4264728109997,681.2120566799999,left,0.7819423410001036,None,,,,,,,,305240,001,2024-11-28_15h54.46.848,Test,2024.2.1,60.0539673777155,2024-11-28 15h54.56.968589 +0100,
31,150,180,20,None,23,23,0,False,,,,right,0.7503891299998031,None,,,,,,,,,,,,,0,23,23,23,681.2257006559998,,,,,,,,,,,,,,,,,,,,,,,,,,,,,,,,,,,,,,,,,,,,,,,,,,,,,,,,,,,,,,,,,,,,,,,,,,681.2154249139999,681.2257006559998,682.2261461839998,683.2265364780001,683.2265364780001,683.2265364780001,683.979276388,right,0.7503891299998031,None,,,,,,,,305240,001,2024-11-28_15h54.46.848,Test,2024.2.1,60.0539673777155,2024-11-28 15h54.56.968589 +0100,
37,150,0,3,None,24,24,0,True,,,,left,0.7890394310002193,None,,,,,,,,,,,,,0,24,24,24,683.9937183439997,,,,,,,,,,,,,,,,,,,,,,,,,,,,,,,,,,,,,,,,,,,,,,,,,,,,,,,,,,,,,,,,,,,,,,,,,,683.9852517659997,683.9937183439997,684.9935877519997,685.9939646779999,685.9939646779999,685.9939646779999,686.794401994,left,0.7890394310002193,None,,,,,,,,305240,001,2024-11-28_15h54.46.848,Test,2024.2.1,60.0539673777155,2024-11-28 15h54.56.968589 +0100,
29,150,150,43,None,25,25,0,False,,,,left,0.9706884750003155,None,,,,,,,,,,,,,0,25,25,25,686.8095820999997,,,,,,,,,,,,,,,,,,,,,,,,,,,,,,,,,,,,,,,,,,,,,,,,,,,,,,,,,,,,,,,,,,,,,,,,,,686.7978023850001,686.8095820999997,687.809912787,688.7935984169999,688.7935984169999,688.7935984169999,689.7792379279999,left,0.9706884750003155,None,,,,,,,,305240,001,2024-11-28_15h54.46.848,Test,2024.2.1,60.0539673777155,2024-11-28 15h54.56.968589 +0100,
23,150,120,16,None,26,26,0,False,,,,left,0.6901284040000064,None,,,,,,,,,,,,,0,26,26,26,689.793304113,,,,,,,,,,,,,,,,,,,,,,,,,,,,,,,,,,,,,,,,,,,,,,,,,,,,,,,,,,,,,,,,,,,,,,,,,,689.7829331389999,689.793304113,690.8375193019997,691.7949136699999,691.7949136699999,691.7949136699999,692.4955065099998,left,0.6901284040000064,None,,,,,,,,305240,001,2024-11-28_15h54.46.848,Test,2024.2.1,60.0539673777155,2024-11-28 15h54.56.968589 +0100,
17,150,90,19,None,27,27,0,False,,,,right,1.0104444720000174,None,,,,,,,,,,,,,0,27,27,27,692.5104037329997,,,,,,,,,,,,,,,,,,,,,,,,,,,,,,,,,,,,,,,,,,,,,,,,,,,,,,,,,,,,,,,,,,,,,,,,,,692.4990679980001,692.5104037329997,693.511111889,694.5104047929999,694.5104047929999,694.5104047929999,695.539338344,right,1.0104444720000174,None,,,,,,,,305240,001,2024-11-28_15h54.46.848,Test,2024.2.1,60.0539673777155,2024-11-28 15h54.56.968589 +0100,
70,150,180,33,None,28,28,0,True,,,,left,1.168080266999823,None,,,,,,,,,,,,,0,28,28,28,695.553033571,,,,,,,,,,,,,,,,,,,,,,,,,,,,,,,,,,,,,,,,,,,,,,,,,,,,,,,,,,,,,,,,,,,,,,,,,,695.5453358959999,695.553033571,696.5604294280001,697.544096227,697.544096227,697.544096227,698.7162759550001,left,1.168080266999823,None,,,,,,,,305240,001,2024-11-28_15h54.46.848,Test,2024.2.1,60.0539673777155,2024-11-28 15h54.56.968589 +0100,
15,150,60,70,None,29,29,0,False,,,,left,1.062572445999649,None,,,,,,,,,,,,,0,29,29,29,698.729545139,,,,,,,,,,,,,,,,,,,,,,,,,,,,,,,,,,,,,,,,,,,,,,,,,,,,,,,,,,,,,,,,,,,,,,,,,,698.7206430709998,698.729545139,699.7440637720001,700.7276032720001,700.7276032720001,700.7276032720001,701.7960709640001,left,1.062572445999649,None,,,,,,,,305240,001,2024-11-28_15h54.46.848,Test,2024.2.1,60.0539673777155,2024-11-28 15h54.56.968589 +0100,
19,150,90,49,None,30,30,0,False,,,,right,1.5807241409997914,None,,,,,,,,,,,,,0,30,30,30,701.810549589,,,,,,,,,,,,,,,,,,,,,,,,,,,,,,,,,,,,,,,,,,,,,,,,,,,,,,,,,,,,,,,,,,,,,,,,,,701.7997213680001,701.810549589,702.8109680819998,703.7955742149998,703.7955742149998,703.7955742149998,705.3801317339999,right,1.5807241409997914,None,,,,,,,,305240,001,2024-11-28_15h54.46.848,Test,2024.2.1,60.0539673777155,2024-11-28 15h54.56.968589 +0100,
41,150,30,27,None,31,31,0,True,,,,right,0.9899225720000686,None,,,,,,,,,,,,,0,31,31,31,705.3964847799998,,,,,,,,,,,,,,,,,,,,,,,,,,,,,,,,,,,,,,,,,,,,,,,,,,,,,,,,,,,,,,,,,,,,,,,,,,705.3876365369997,705.3964847799998,706.4114978919997,707.3946291080001,707.3946291080001,707.3946291080001,708.3957450180001,right,0.9899225720000686,None,,,,,,,,305240,001,2024-11-28_15h54.46.848,Test,2024.2.1,60.0539673777155,2024-11-28 15h54.56.968589 +0100,
49,150,60,11,None,32,32,0,True,,,,right,1.5682162200000676,None,,,,,,,,,,,,,0,32,32,32,708.413891533,,,,,,,,,,,,,,,,,,,,,,,,,,,,,,,,,,,,,,,,,,,,,,,,,,,,,,,,,,,,,,,,,,,,,,,,,,708.403856335,708.413891533,709.4280822850001,710.4115112209997,710.4115112209997,710.4115112209997,711.9964197569998,right,1.5682162200000676,None,,,,,,,,305240,001,2024-11-28_15h54.46.848,Test,2024.2.1,60.0539673777155,2024-11-28 15h54.56.968589 +0100,
59,150,120,5,None,33,33,0,True,,,,right,1.832565532999979,None,,,,,,,,,,,,,0,33,33,33,712.0129722679999,,,,,,,,,,,,,,,,,,,,,,,,,,,,,,,,,,,,,,,,,,,,,,,,,,,,,,,,,,,,,,,,,,,,,,,,,,712.003122218,712.0129722679999,713.0117227729997,714.0116157929997,714.0116157929997,714.0116157929997,715.8476404819999,right,1.832565532999979,None,,,,,,,,305240,001,2024-11-28_15h54.46.848,Test,2024.2.1,60.0539673777155,2024-11-28 15h54.56.968589 +0100,
66,150,180,31,None,34,34,0,True,,,,left,2.487801621000017,None,,,,,,,,,,,,,0,34,34,34,715.868560078,,,,,,,,,,,,,,,,,,,,,,,,,,,,,,,,,,,,,,,,,,,,,,,,,,,,,,,,,,,,,,,,,,,,,,,,,,715.853936255,715.868560078,716.8794770169998,717.8630236230001,717.8630236230001,717.8630236230001,720.3647665419999,left,2.487801621000017,None,,,,,,,,305240,001,2024-11-28_15h54.46.848,Test,2024.2.1,60.0539673777155,2024-11-28 15h54.56.968589 +0100,
13,150,60,9,None,35,35,0,False,,,,right,1.2646342530001675,None,,,,,,,,,,,,,0,35,35,35,720.3785419199999,,,,,,,,,,,,,,,,,,,,,,,,,,,,,,,,,,,,,,,,,,,,,,,,,,,,,,,,,,,,,,,,,,,,,,,,,,720.36922091,720.3785419199999,721.37899436,722.3789112039999,722.3789112039999,722.3789112039999,723.6477295169998,right,1.2646342530001675,None,,,,,,,,305240,001,2024-11-28_15h54.46.848,Test,2024.2.1,60.0539673777155,2024-11-28 15h54.56.968589 +0100,
2,150,0,8,None,36,36,0,False,,,,left,1.1578155479996894,None,,,,,,,,,,,,,0,36,36,36,723.6623665490001,,,,,,,,,,,,,,,,,,,,,,,,,,,,,,,,,,,,,,,,,,,,,,,,,,,,,,,,,,,,,,,,,,,,,,,,,,723.6514783039997,723.6623665490001,724.6628729019999,725.6625483970001,725.6625483970001,725.6625483970001,726.8305699590001,left,1.1578155479996894,None,,,,,,,,305240,001,2024-11-28_15h54.46.848,Test,2024.2.1,60.0539673777155,2024-11-28 15h54.56.968589 +0100,
69,150,180,50,None,37,37,0,True,,,,left,1.0880820100001074,None,,,,,,,,,,,,,0,37,37,37,726.8458730570001,,,,,,,,,,,,,,,,,,,,,,,,,,,,,,,,,,,,,,,,,,,,,,,,,,,,,,,,,,,,,,,,,,,,,,,,,,726.8362854879997,726.8458730570001,727.846441011,728.829469625,728.829469625,728.829469625,729.93084976,left,1.0880820100001074,None,,,,,,,,305240,001,2024-11-28_15h54.46.848,Test,2024.2.1,60.0539673777155,2024-11-28 15h54.56.968589 +0100,
45,150,30,42,None,38,38,0,True,,,,left,1.2060500989996399,None,,,,,,,,,,,,,0,38,38,38,729.9467560570001,,,,,,,,,,,,,,,,,,,,,,,,,,,,,,,,,,,,,,,,,,,,,,,,,,,,,,,,,,,,,,,,,,,,,,,,,,729.9374760629998,729.9467560570001,730.9465427259997,731.9467628709999,731.9467628709999,731.9467628709999,733.1639991349998,left,1.2060500989996399,None,,,,,,,,305240,001,2024-11-28_15h54.46.848,Test,2024.2.1,60.0539673777155,2024-11-28 15h54.56.968589 +0100,
5,150,0,45,None,39,39,0,False,,,,right,1.0725027680000494,None,,,,,,,,,,,,,0,39,39,39,733.1799192419999,,,,,,,,,,,,,,,,,,,,,,,,,,,,,,,,,,,,,,,,,,,,,,,,,,,,,,,,,,,,,,,,,,,,,,,,,,733.1674282419999,733.1799192419999,734.1801837379999,735.1634289169997,735.1634289169997,735.1634289169997,736.249577261,right,1.0725027680000494,None,,,,,,,,305240,001,2024-11-28_15h54.46.848,Test,2024.2.1,60.0539673777155,2024-11-28 15h54.56.968589 +0100,
46,150,60,62,None,40,40,0,True,,,,right,1.770812916000068,None,,,,,,,,,,,,,0,40,40,40,736.267045654,,,,,,,,,,,,,,,,,,,,,,,,,,,,,,,,,,,,,,,,,,,,,,,,,,,,,,,,,,,,,,,,,,,,,,,,,,736.2576224559998,736.267045654,737.2798381409998,738.2643058680001,738.2643058680001,738.2643058680001,740.048686349,right,1.770812916000068,None,,,,,,,,305240,001,2024-11-28_15h54.46.848,Test,2024.2.1,60.0539673777155,2024-11-28 15h54.56.968589 +0100,
48,150,60,35,None,41,41,0,True,,,,left,2.466209348999655,None,,,,,,,,,,,,,0,41,41,41,740.0647157509998,,,,,,,,,,,,,,,,,,,,,,,,,,,,,,,,,,,,,,,,,,,,,,,,,,,,,,,,,,,,,,,,,,,,,,,,,,740.0553993849999,740.0647157509998,741.0806856999998,742.0641722249998,742.0641722249998,742.0641722249998,744.5334798839999,left,2.466209348999655,None,,,,,,,,305240,001,2024-11-28_15h54.46.848,Test,2024.2.1,60.0539673777155,2024-11-28 15h54.56.968589 +0100,
60,150,120,1,None,42,42,0,True,,,,right,1.0518670589999601,None,,,,,,,,,,,,,0,42,42,42,744.5488749639999,,,,,,,,,,,,,,,,,,,,,,,,,,,,,,,,,,,,,,,,,,,,,,,,,,,,,,,,,,,,,,,,,,,,,,,,,,744.5396457849997,744.5488749639999,745.5640263579999,746.5472078479997,746.5472078479997,746.5472078479997,747.6157269089999,right,1.0518670589999601,None,,,,,,,,305240,001,2024-11-28_15h54.46.848,Test,2024.2.1,60.0539673777155,2024-11-28 15h54.56.968589 +0100,
42,150,30,34,None,43,43,0,True,,,,left,1.1278417600001376,None,,,,,,,,,,,,,0,43,43,43,747.6309115199997,,,,,,,,,,,,,,,,,,,,,,,,,,,,,,,,,,,,,,,,,,,,,,,,,,,,,,,,,,,,,,,,,,,,,,,,,,747.6213925019997,747.6309115199997,748.6317679439999,749.6307972939999,749.6307972939999,749.6307972939999,750.7679805829998,left,1.1278417600001376,None,,,,,,,,305240,001,2024-11-28_15h54.46.848,Test,2024.2.1,60.0539673777155,2024-11-28 15h54.56.968589 +0100,
6,150,30,36,None,44,44,0,False,,,,right,0.9984775579996494,None,,,,,,,,,,,,,0,44,44,44,750.78123375,,,,,,,,,,,,,,,,,,,,,,,,,,,,,,,,,,,,,,,,,,,,,,,,,,,,,,,,,,,,,,,,,,,,,,,,,,750.7717474369997,750.78123375,751.7809780339999,752.7819263309998,752.7819263309998,752.7819263309998,753.783834504,right,0.9984775579996494,None,,,,,,,,305240,001,2024-11-28_15h54.46.848,Test,2024.2.1,60.0539673777155,2024-11-28 15h54.56.968589 +0100,
8,150,30,41,None,45,45,0,False,,,,right,1.0384582560000126,None,,,,,,,,,,,,,0,45,45,45,753.7976563920001,,,,,,,,,,,,,,,,,,,,,,,,,,,,,,,,,,,,,,,,,,,,,,,,,,,,,,,,,,,,,,,,,,,,,,,,,,753.7875089079998,753.7976563920001,754.797907611,755.798799356,755.798799356,755.798799356,756.8496897780001,right,1.0384582560000126,None,,,,,,,,305240,001,2024-11-28_15h54.46.848,Test,2024.2.1,60.0539673777155,2024-11-28 15h54.56.968589 +0100,
3,150,0,39,None,46,46,0,False,,,,right,1.153434938999908,None,,,,,,,,,,,,,0,46,46,46,756.864311329,,,,,,,,,,,,,,,,,,,,,,,,,,,,,,,,,,,,,,,,,,,,,,,,,,,,,,,,,,,,,,,,,,,,,,,,,,756.8530531779998,756.864311329,757.8655200089997,758.8650500099998,758.8650500099998,758.8650500099998,760.0334786019998,right,1.153434938999908,None,,,,,,,,305240,001,2024-11-28_15h54.46.848,Test,2024.2.1,60.0539673777155,2024-11-28 15h54.56.968589 +0100,
43,150,30,6,None,47,47,0,True,,,,left,0.883459373000278,None,,,,,,,,,,,,,0,47,47,47,760.0481355719999,,,,,,,,,,,,,,,,,,,,,,,,,,,,,,,,,,,,,,,,,,,,,,,,,,,,,,,,,,,,,,,,,,,,,,,,,,760.0389307269998,760.0481355719999,761.048336797,762.0484448980001,762.0484448980001,762.0484448980001,762.9351010709997,left,0.883459373000278,None,,,,,,,,305240,001,2024-11-28_15h54.46.848,Test,2024.2.1,60.0539673777155,2024-11-28 15h54.56.968589 +0100,
47,150,60,68,None,48,48,0,True,,,,left,2.303977050999947,None,,,,,,,,,,,,,0,48,48,48,762.9501004829999,,,,,,,,,,,,,,,,,,,,,,,,,,,,,,,,,,,,,,,,,,,,,,,,,,,,,,,,,,,,,,,,,,,,,,,,,,762.9411200529998,762.9501004829999,763.9654302509998,764.9485465909997,764.9485465909997,764.9485465909997,767.2670569429997,left,2.303977050999947,None,,,,,,,,305240,001,2024-11-28_15h54.46.848,Test,2024.2.1,60.0539673777155,2024-11-28 15h54.56.968589 +0100,
36,150,0,44,None,49,49,0,True,,,,right,0.9878587960001823,None,,,,,,,,,,,,,0,49,49,49,767.2828451259998,,,,,,,,,,,,,,,,,,,,,,,,,,,,,,,,,,,,,,,,,,,,,,,,,,,,,,,,,,,,,,,,,,,,,,,,,,767.2730309539998,767.2828451259998,768.282132974,769.2666716949998,769.2666716949998,769.2666716949998,770.2673541609997,right,0.9878587960001823,None,,,,,,,,305240,001,2024-11-28_15h54.46.848,Test,2024.2.1,60.0539673777155,2024-11-28 15h54.56.968589 +0100,
53,150,90,60,None,50,50,0,True,,,,right,0.8683813290003854,None,,,,,,,,,,,,,0,50,50,50,770.2825990819997,,,,,,,,,,,,,,,,,,,,,,,,,,,,,,,,,,,,,,,,,,,,,,,,,,,,,,,,,,,,,,,,,,,,,,,,,,770.273027277,770.2825990819997,771.2834948609998,772.2665569759997,772.2665569759997,772.2665569759997,773.1514780419998,right,0.8683813290003854,None,,,,,,,,305240,001,2024-11-28_15h54.46.848,Test,2024.2.1,60.0539673777155,2024-11-28 15h54.56.968589 +0100,
33,150,180,67,None,51,51,0,False,,,,left,0.967659332999574,None,,,,,,,,,,,,,0,51,51,51,773.1659441319998,,,,,,,,,,,,,,,,,,,,,,,,,,,,,,,,,,,,,,,,,,,,,,,,,,,,,,,,,,,,,,,,,,,,,,,,,,773.154849092,773.1659441319998,774.1664626349998,775.1671311780001,775.1671311780001,775.1671311780001,776.151169535,left,0.967659332999574,None,,,,,,,,305240,001,2024-11-28_15h54.46.848,Test,2024.2.1,60.0539673777155,2024-11-28 15h54.56.968589 +0100,
32,150,180,7,None,52,52,0,False,,,,right,1.005526078999992,None,,,,,,,,,,,,,0,52,52,52,776.1660885000001,,,,,,,,,,,,,,,,,,,,,,,,,,,,,,,,,,,,,,,,,,,,,,,,,,,,,,,,,,,,,,,,,,,,,,,,,,776.1556176419999,776.1660885000001,777.1661541419999,778.166687855,778.166687855,778.166687855,779.184984985,right,1.005526078999992,None,,,,,,,,305240,001,2024-11-28_15h54.46.848,Test,2024.2.1,60.0539673777155,2024-11-28 15h54.56.968589 +0100,
16,150,90,64,None,53,53,0,False,,,,right,0.9002171869997255,None,,,,,,,,,,,,,0,53,53,53,779.1992604379998,,,,,,,,,,,,,,,,,,,,,,,,,,,,,,,,,,,,,,,,,,,,,,,,,,,,,,,,,,,,,,,,,,,,,,,,,,779.1885455689999,779.1992604379998,780.2004433120001,781.2009935319998,781.2009935319998,781.2009935319998,782.1193217089999,right,0.9002171869997255,None,,,,,,,,305240,001,2024-11-28_15h54.46.848,Test,2024.2.1,60.0539673777155,2024-11-28 15h54.56.968589 +0100,
50,150,60,69,None,54,54,0,True,,,,left,0.8842412900003183,None,,,,,,,,,,,,,0,54,54,54,782.1340038479998,,,,,,,,,,,,,,,,,,,,,,,,,,,,,,,,,,,,,,,,,,,,,,,,,,,,,,,,,,,,,,,,,,,,,,,,,,782.1250433649998,782.1340038479998,783.1338159530001,784.1338465589997,784.1338465589997,784.1338465589997,785.034689657,left,0.8842412900003183,None,,,,,,,,305240,001,2024-11-28_15h54.46.848,Test,2024.2.1,60.0539673777155,2024-11-28 15h54.56.968589 +0100,
57,150,120,54,None,55,55,0,True,,,,left,0.9070572470000116,None,,,,,,,,,,,,,0,55,55,55,785.0498502390001,,,,,,,,,,,,,,,,,,,,,,,,,,,,,,,,,,,,,,,,,,,,,,,,,,,,,,,,,,,,,,,,,,,,,,,,,,785.040222779,785.0498502390001,786.0502562659999,787.0495830740001,787.0495830740001,787.0495830740001,787.9686140429999,left,0.9070572470000116,None,,,,,,,,305240,001,2024-11-28_15h54.46.848,Test,2024.2.1,60.0539673777155,2024-11-28 15h54.56.968589 +0100,
34,150,180,25,None,56,56,0,False,,,,right,1.3613936639999338,None,,,,,,,,,,,,,0,56,56,56,787.982986728,,,,,,,,,,,,,,,,,,,,,,,,,,,,,,,,,,,,,,,,,,,,,,,,,,,,,,,,,,,,,,,,,,,,,,,,,,787.9721312629999,787.982986728,788.9836227339997,789.9842451059999,789.9842451059999,789.9842451059999,791.3537716769997,right,1.3613936639999338,None,,,,,,,,305240,001,2024-11-28_15h54.46.848,Test,2024.2.1,60.0539673777155,2024-11-28 15h54.56.968589 +0100,
28,150,150,52,None,57,57,0,False,,,,right,1.1286935339999218,None,,,,,,,,,,,,,0,57,57,57,791.3677109239998,,,,,,,,,,,,,,,,,,,,,,,,,,,,,,,,,,,,,,,,,,,,,,,,,,,,,,,,,,,,,,,,,,,,,,,,,,791.3578912140001,791.3677109239998,792.367732315,793.3681425949999,793.3681425949999,793.3681425949999,794.5023268539999,right,1.1286935339999218,None,,,,,,,,305240,001,2024-11-28_15h54.46.848,Test,2024.2.1,60.0539673777155,2024-11-28 15h54.56.968589 +0100,
25,150,120,55,None,58,58,0,False,,,,right,1.683491014000083,None,,,,,,,,,,,,,0,58,58,58,794.517416914,,,,,,,,,,,,,,,,,,,,,,,,,,,,,,,,,,,,,,,,,,,,,,,,,,,,,,,,,,,,,,,,,,,,,,,,,,794.5059417389998,794.517416914,795.5174363299998,796.51792965,796.51792965,796.51792965,798.2037328870001,right,1.683491014000083,None,,,,,,,,305240,001,2024-11-28_15h54.46.848,Test,2024.2.1,60.0539673777155,2024-11-28 15h54.56.968589 +0100,
58,150,120,29,None,59,59,0,True,,,,right,1.4059790679998514,None,,,,,,,,,,,,,0,59,59,59,798.2182611039998,,,,,,,,,,,,,,,,,,,,,,,,,,,,,,,,,,,,,,,,,,,,,,,,,,,,,,,,,,,,,,,,,,,,,,,,,,798.209036022,798.2182611039998,799.2179420459997,800.217599183,800.217599183,800.217599183,801.6361333659997,right,1.4059790679998514,None,,,,,,,,305240,001,2024-11-28_15h54.46.848,Test,2024.2.1,60.0539673777155,2024-11-28 15h54.56.968589 +0100,
44,150,30,10,None,60,60,0,True,,,,right,0.9194032250002238,None,,,,,,,,,,,,,0,60,60,60,801.6512836530001,,,,,,,,,,,,,,,,,,,,,,,,,,,,,,,,,,,,,,,,,,,,,,,,,,,,,,,,,,,,,,,,,,,,,,,,,,801.6417669739999,801.6512836530001,802.6510819089999,803.6514046329999,803.6514046329999,803.6514046329999,804.586432394,right,0.9194032250002238,None,,,,,,,,305240,001,2024-11-28_15h54.46.848,Test,2024.2.1,60.0539673777155,2024-11-28 15h54.56.968589 +0100,
65,150,150,12,None,61,61,0,True,,,,left,1.00041559400006,None,,,,,,,,,,,,,0,61,61,61,804.6021349069997,,,,,,,,,,,,,,,,,,,,,,,,,,,,,,,,,,,,,,,,,,,,,,,,,,,,,,,,,,,,,,,,,,,,,,,,,,804.5936216760001,804.6021349069997,805.6019832779998,806.6020068389998,806.6020068389998,806.6020068389998,807.6204270170001,left,1.00041559400006,None,,,,,,,,305240,001,2024-11-28_15h54.46.848,Test,2024.2.1,60.0539673777155,2024-11-28 15h54.56.968589 +0100,
21,150,120,51,None,62,62,0,False,,,,left,0.8013840589997017,None,,,,,,,,,,,,,0,62,62,62,807.634557332,,,,,,,,,,,,,,,,,,,,,,,,,,,,,,,,,,,,,,,,,,,,,,,,,,,,,,,,,,,,,,,,,,,,,,,,,,807.624503471,807.634557332,808.6357508389997,809.634910792,809.634910792,809.634910792,810.4533370250001,left,0.8013840589997017,None,,,,,,,,305240,001,2024-11-28_15h54.46.848,Test,2024.2.1,60.0539673777155,2024-11-28 15h54.56.968589 +0100,
27,150,150,24,None,63,63,0,False,,,,right,1.1980384440003036,None,,,,,,,,,,,,,0,63,63,63,810.4680357839998,,,,,,,,,,,,,,,,,,,,,,,,,,,,,,,,,,,,,,,,,,,,,,,,,,,,,,,,,,,,,,,,,,,,,,,,,,810.4570675909999,810.4680357839998,811.468329109,812.4684550459997,812.4684550459997,812.4684550459997,813.6706358349998,right,1.1980384440003036,None,,,,,,,,305240,001,2024-11-28_15h54.46.848,Test,2024.2.1,60.0539673777155,2024-11-28 15h54.56.968589 +0100,
22,150,120,65,None,64,64,0,False,,,,left,0.6723016410001037,None,,,,,,,,,,,,,0,64,64,64,813.6851896069998,,,,,,,,,,,,,,,,,,,,,,,,,,,,,,,,,,,,,,,,,,,,,,,,,,,,,,,,,,,,,,,,,,,,,,,,,,813.6740326509998,813.6851896069998,814.6861527699998,815.6860916139999,815.6860916139999,815.6860916139999,816.370545326,left,0.6723016410001037,None,,,,,,,,305240,001,2024-11-28_15h54.46.848,Test,2024.2.1,60.0539673777155,2024-11-28 15h54.56.968589 +0100,
10,150,30,28,None,65,65,0,False,,,,right,0.7345720429998437,None,,,,,,,,,,,,,0,65,65,65,816.385561258,,,,,,,,,,,,,,,,,,,,,,,,,,,,,,,,,,,,,,,,,,,,,,,,,,,,,,,,,,,,,,,,,,,,,,,,,,816.3750295149998,816.385561258,817.386283288,818.385837885,818.385837885,818.385837885,819.1376111730001,right,0.7345720429998437,None,,,,,,,,305240,001,2024-11-28_15h54.46.848,Test,2024.2.1,60.0539673777155,2024-11-28 15h54.56.968589 +0100,
35,150,180,21,None,66,66,0,False,,,,left,0.8094922639998003,None,,,,,,,,,,,,,0,66,66,66,819.1519947659999,,,,,,,,,,,,,,,,,,,,,,,,,,,,,,,,,,,,,,,,,,,,,,,,,,,,,,,,,,,,,,,,,,,,,,,,,,819.1412384320001,819.1519947659999,820.1522383309998,821.153157231,821.153157231,821.153157231,821.9710268680001,left,0.8094922639998003,None,,,,,,,,305240,001,2024-11-28_15h54.46.848,Test,2024.2.1,60.0539673777155,2024-11-28 15h54.56.968589 +0100,
62,150,150,58,None,67,67,0,True,,,,left,1.3807051889998547,None,,,,,,,,,,,,,0,67,67,67,821.9863170879999,,,,,,,,,,,,,,,,,,,,,,,,,,,,,,,,,,,,,,,,,,,,,,,,,,,,,,,,,,,,,,,,,,,,,,,,,,821.9767926629997,821.9863170879999,822.9869285649997,823.986072103,823.986072103,823.986072103,825.3725297649999,left,1.3807051889998547,None,,,,,,,,305240,001,2024-11-28_15h54.46.848,Test,2024.2.1,60.0539673777155,2024-11-28 15h54.56.968589 +0100,
18,150,90,38,None,68,68,0,False,,,,right,1.2978152729997419,None,,,,,,,,,,,,,0,68,68,68,825.385527935,,,,,,,,,,,,,,,,,,,,,,,,,,,,,,,,,,,,,,,,,,,,,,,,,,,,,,,,,,,,,,,,,,,,,,,,,,825.3759676669997,825.385527935,826.3868007319998,827.386210316,827.386210316,827.386210316,828.6884942379997,right,1.2978152729997419,None,,,,,,,,305240,001,2024-11-28_15h54.46.848,Test,2024.2.1,60.0539673777155,2024-11-28 15h54.56.968589 +0100,
56,150,120,59,None,69,69,0,True,,,,left,0.8864740409999285,None,,,,,,,,,,,,,0,69,69,69,828.7036961099998,,,,,,,,,,,,,,,,,,,,,,,,,,,,,,,,,,,,,,,,,,,,,,,,,,,,,,,,,,,,,,,,,,,,,,,,,,828.6946466260001,828.7036961099998,829.702746684,830.703200935,830.703200935,830.703200935,831.6051015429998,left,0.8864740409999285,None,,,,,,,,305240,001,2024-11-28_15h54.46.848,Test,2024.2.1,60.0539673777155,2024-11-28 15h54.56.968589 +0100,
,,,,,,,,,,,,,,,,,,,,,,,,,,,,,,,,,,,,,,,,,,,,,,,,,,,,,,,,,,,,,,,,,,,,,,,,,,,,,,,,,,,,,,,,,,,,,,,,,,,,,,,,,,,,,,,,,,,831.6054085410001,831.6198819829997,831.6198819829997,835.2725036910001,space,3.634662296999977,None,305240,001,2024-11-28_15h54.46.848,Test,2024.2.1,60.0539673777155,2024-11-28 15h54.56.968589 +0100,
