Trial_Number,Exposure_Duration,Displacement_Angle,Stimulus,Response,thisN,thisTrialN,thisRepN,Is_Distractor,key_resp_3.keys,key_resp_3.rt,key_resp_3.duration,key_resp_7.keys,key_resp_7.rt,key_resp_7.duration,trials.thisRepN,trials.thisTrialN,trials.thisN,trials.thisIndex,trials_2.thisRepN,trials_2.thisTrialN,trials_2.thisN,trials_2.thisIndex,trials_3.thisRepN,trials_3.thisTrialN,trials_3.thisN,trials_3.thisIndex,trials_4.thisRepN,trials_4.thisTrialN,trials_4.thisN,trials_4.thisIndex,thisRow.t,notes,Intro_to_experiment.started,important1_2.started,key_resp_8.started,Intro_to_experiment.stopped,key_resp_8.keys,key_resp_8.rt,key_resp_8.duration,important.started,important1.started,key_resp_4.started,important.stopped,key_resp_4.keys,key_resp_4.rt,key_resp_4.duration,instruction.started,text_7.started,key_resp_9.started,instruction.stopped,key_resp_9.keys,key_resp_9.rt,key_resp_9.duration,training_trial.started,cross.started,image.started,aperture.started,cross.stopped,image.stopped,aperture.stopped,training_trial.stopped,New_instruction.started,text.started,key_resp_2.started,New_instruction.stopped,key_resp_2.keys,key_resp_2.rt,key_resp_2.duration,test_trial.started,cross2.started,cross2.stopped,image_2.started,key_resp_3.started,aperture_2.started,test_trial.stopped,trials_2.key_resp_3.keys,trials_2.key_resp_3.rt,trials_2.key_resp_3.duration,text_3.started,image_2.stopped,aperture_2.stopped,start_blok_2.started,key_resp_5.started,text_4.started,start_blok_2.stopped,key_resp_5.keys,key_resp_5.rt,key_resp_5.duration,training_2.started,cross_2.started,image_3.started,aperture_3.started,cross_2.stopped,image_3.stopped,aperture_3.stopped,training_2.stopped,nyeste_instruks.started,text_5.started,key_resp_6.started,nyeste_instruks.stopped,key_resp_6.keys,key_resp_6.rt,key_resp_6.duration,test_2.started,cross2_2.started,cross2_2.stopped,image_4.started,key_resp_7.started,aperture_4.started,test_2.stopped,trials_4.key_resp_7.keys,trials_4.key_resp_7.rt,trials_4.key_resp_7.duration,image_4.stopped,text_6.started,aperture_4.stopped,Instruction1.started,Instruktion.started,key_resp.started,Instruction1.stopped,key_resp.keys,key_resp.rt,key_resp.duration,participant,session,date,expName,psychopyVersion,frameRate,expStart,
,,,,,,,,,,,,,,,,,,,,,,,,,,,,,,,,,0.02564492500096094,0.04100050899432972,0.04100050899432972,23.772932983003557,space,23.70043492699915,None,,,,,,,,,,,,,,,,,,,,,,,,,,,,,,,,,,,,,,,,,,,,,,,,,,,,,,,,,,,,,,,,,,,,,,,,,,,,,,,,,,,,,314033,001,2024-12-05_12h39.20.640,Test,2024.2.1,59.51477603258997,2024-12-05 12h39.41.105274 +0100,
,,,,,,,,,,,,,,,,,,,,,,,,,,,,,,,,,,,,,,,,23.773010539996903,23.79643088199373,23.79643088199373,44.26962936499331,space,20.463104826005292,None,,,,,,,,,,,,,,,,,,,,,,,,,,,,,,,,,,,,,,,,,,,,,,,,,,,,,,,,,,,,,,,,,,,,,,,,,,,,,,314033,001,2024-12-05_12h39.20.640,Test,2024.2.1,59.51477603258997,2024-12-05 12h39.41.105274 +0100,
,,,,,,,,,,,,,,,,,,,,,,,,,,,,,,,,,,,,,,,,,,,,,,,44.2697083420062,44.28443145699566,44.28443145699566,64.67074677300116,space,20.371360037010163,None,,,,,,,,,,,,,,,,,,,,,,,,,,,,,,,,,,,,,,,,,,,,,,,,,,,,,,,,,,,,,,,,,,,,,,,314033,001,2024-12-05_12h39.20.640,Test,2024.2.1,59.51477603258997,2024-12-05 12h39.41.105274 +0100,
6,150,30,51,None,0,0,0,,,,,,,,0,0,0,5,,,,,,,,,,,,,64.70123456500005,,,,,,,,,,,,,,,,,,,,,,,64.69124749899493,64.70123456500005,64.88620924699353,64.88620924699353,64.90299388300627,66.5865791929973,66.5865791929973,66.56988780299434,,,,,,,,,,,,,,,,,,,,,,,,,,,,,,,,,,,,,,,,,,,,,,,,,,,,,,,,,,,,,,,314033,001,2024-12-05_12h39.20.640,Test,2024.2.1,59.51477603258997,2024-12-05 12h39.41.105274 +0100,
24,150,120,2,None,1,1,0,,,,,,,,0,1,1,23,,,,,,,,,,,,,66.5865791929973,,,,,,,,,,,,,,,,,,,,,,,66.57818563299952,66.5865791929973,66.78613097600464,66.78613097600464,66.78613097600464,68.48708921400248,68.48708921400248,68.4704626629973,,,,,,,,,,,,,,,,,,,,,,,,,,,,,,,,,,,,,,,,,,,,,,,,,,,,,,,,,,,,,,,314033,001,2024-12-05_12h39.20.640,Test,2024.2.1,59.51477603258997,2024-12-05 12h39.41.105274 +0100,
1,150,0,66,None,2,2,0,,,,,,,,0,2,2,0,,,,,,,,,,,,,68.48708921400248,,,,,,,,,,,,,,,,,,,,,,,68.47802472600597,68.48708921400248,68.67026759500732,68.67026759500732,68.6867172439961,70.3694634190033,70.3694634190033,70.35379477399692,,,,,,,,,,,,,,,,,,,,,,,,,,,,,,,,,,,,,,,,,,,,,,,,,,,,,,,,,,,,,,,314033,001,2024-12-05_12h39.20.640,Test,2024.2.1,59.51477603258997,2024-12-05 12h39.41.105274 +0100,
17,150,90,21,None,3,3,0,,,,,,,,0,3,3,16,,,,,,,,,,,,,70.3694634190033,,,,,,,,,,,,,,,,,,,,,,,70.36024655400252,70.38617420299852,70.56975403800607,70.56975403800607,70.58630600299512,72.26900802999444,72.26900802999444,72.25381865100644,,,,,,,,,,,,,,,,,,,,,,,,,,,,,,,,,,,,,,,,,,,,,,,,,,,,,,,,,,,,,,,314033,001,2024-12-05_12h39.20.640,Test,2024.2.1,59.51477603258997,2024-12-05 12h39.41.105274 +0100,
11,150,60,63,None,4,4,0,,,,,,,,0,4,4,10,,,,,,,,,,,,,72.26900802999444,,,,,,,,,,,,,,,,,,,,,,,72.25969152100151,72.26900802999444,72.48665350599913,72.48665350599913,72.46958835900296,74.1858296499995,74.1858296499995,74.1708540690015,,,,,,,,,,,,,,,,,,,,,,,,,,,,,,,,,,,,,,,,,,,,,,,,,,,,,,,,,,,,,,,314033,001,2024-12-05_12h39.20.640,Test,2024.2.1,59.51477603258997,2024-12-05 12h39.41.105274 +0100,
22,150,120,64,None,5,5,0,,,,,,,,0,5,5,21,,,,,,,,,,,,,74.1858296499995,,,,,,,,,,,,,,,,,,,,,,,74.17664828299894,74.1858296499995,74.36976372900244,74.36976372900244,74.38627701900259,76.07296881500224,76.07296881500224,76.055065973007,,,,,,,,,,,,,,,,,,,,,,,,,,,,,,,,,,,,,,,,,,,,,,,,,,,,,,,,,,,,,,,314033,001,2024-12-05_12h39.20.640,Test,2024.2.1,59.51477603258997,2024-12-05 12h39.41.105274 +0100,
31,150,180,31,None,6,6,0,,,,,,,,0,6,6,30,,,,,,,,,,,,,76.07296881500224,,,,,,,,,,,,,,,,,,,,,,,76.06481460499344,76.07296881500224,76.26986834099807,76.26986834099807,76.28645470700576,77.98730843400699,77.98730843400699,77.95385659000021,,,,,,,,,,,,,,,,,,,,,,,,,,,,,,,,,,,,,,,,,,,,,,,,,,,,,,,,,,,,,,,314033,001,2024-12-05_12h39.20.640,Test,2024.2.1,59.51477603258997,2024-12-05 12h39.41.105274 +0100,
8,150,30,23,None,7,7,0,,,,,,,,0,7,7,7,,,,,,,,,,,,,77.98730843400699,,,,,,,,,,,,,,,,,,,,,,,77.97977619900485,77.98730843400699,78.16983485700621,78.16983485700621,78.18714558400097,79.87085141400166,79.87085141400166,79.85515124100493,,,,,,,,,,,,,,,,,,,,,,,,,,,,,,,,,,,,,,,,,,,,,,,,,,,,,,,,,,,,,,,314033,001,2024-12-05_12h39.20.640,Test,2024.2.1,59.51477603258997,2024-12-05 12h39.41.105274 +0100,
15,150,60,1,None,8,8,0,,,,,,,,0,8,8,14,,,,,,,,,,,,,79.87085141400166,,,,,,,,,,,,,,,,,,,,,,,79.86238028999651,79.87085141400166,80.07046103700122,80.07046103700122,80.07046103700122,81.77080725299311,81.77080725299311,81.75497952300066,,,,,,,,,,,,,,,,,,,,,,,,,,,,,,,,,,,,,,,,,,,,,,,,,,,,,,,,,,,,,,,314033,001,2024-12-05_12h39.20.640,Test,2024.2.1,59.51477603258997,2024-12-05 12h39.41.105274 +0100,
13,150,60,4,None,9,9,0,,,,,,,,0,9,9,12,,,,,,,,,,,,,81.77080725299311,,,,,,,,,,,,,,,,,,,,,,,81.76308282199898,81.77080725299311,81.97032548800053,81.97032548800053,81.97032548800053,83.67453291300626,83.67453291300626,83.65611650999926,,,,,,,,,,,,,,,,,,,,,,,,,,,,,,,,,,,,,,,,,,,,,,,,,,,,,,,,,,,,,,,314033,001,2024-12-05_12h39.20.640,Test,2024.2.1,59.51477603258997,2024-12-05 12h39.41.105274 +0100,
35,150,180,40,None,10,10,0,,,,,,,,0,10,10,34,,,,,,,,,,,,,83.67453291300626,,,,,,,,,,,,,,,,,,,,,,,83.66616228299972,83.67453291300626,83.87079815499601,83.87079815499601,83.88783484899614,85.57031055599509,85.57031055599509,85.55505064100726,,,,,,,,,,,,,,,,,,,,,,,,,,,,,,,,,,,,,,,,,,,,,,,,,,,,,,,,,,,,,,,314033,001,2024-12-05_12h39.20.640,Test,2024.2.1,59.51477603258997,2024-12-05 12h39.41.105274 +0100,
3,150,0,50,None,11,11,0,,,,,,,,0,11,11,2,,,,,,,,,,,,,85.57031055599509,,,,,,,,,,,,,,,,,,,,,,,85.56225983100012,85.57031055599509,85.77042041000095,85.77042041000095,85.77042041000095,87.47482736699749,87.47482736699749,87.45505101099843,,,,,,,,,,,,,,,,,,,,,,,,,,,,,,,,,,,,,,,,,,,,,,,,,,,,,,,,,,,,,,,314033,001,2024-12-05_12h39.20.640,Test,2024.2.1,59.51477603258997,2024-12-05 12h39.41.105274 +0100,
33,150,180,34,None,12,12,0,,,,,,,,0,12,12,32,,,,,,,,,,,,,87.47482736699749,,,,,,,,,,,,,,,,,,,,,,,87.46566071400594,87.47482736699749,87.67080384099972,87.67080384099972,87.68713261300582,89.37115086399717,89.37115086399717,89.35458474200277,,,,,,,,,,,,,,,,,,,,,,,,,,,,,,,,,,,,,,,,,,,,,,,,,,,,,,,,,,,,,,,314033,001,2024-12-05_12h39.20.640,Test,2024.2.1,59.51477603258997,2024-12-05 12h39.41.105274 +0100,
5,150,0,10,None,13,13,0,,,,,,,,0,13,13,4,,,,,,,,,,,,,89.37115086399717,,,,,,,,,,,,,,,,,,,,,,,89.3632950510073,89.37115086399717,89.57063680799911,89.57063680799911,89.57063680799911,91.27445568400435,91.27445568400435,91.2561385930021,,,,,,,,,,,,,,,,,,,,,,,,,,,,,,,,,,,,,,,,,,,,,,,,,,,,,,,,,,,,,,,314033,001,2024-12-05_12h39.20.640,Test,2024.2.1,59.51477603258997,2024-12-05 12h39.41.105274 +0100,
25,150,120,47,None,14,14,0,,,,,,,,0,14,14,24,,,,,,,,,,,,,91.27445568400435,,,,,,,,,,,,,,,,,,,,,,,91.26613150299818,91.27445568400435,91.470879711007,91.470879711007,91.48722669000563,93.17026312199596,93.17026312199596,93.15465885700542,,,,,,,,,,,,,,,,,,,,,,,,,,,,,,,,,,,,,,,,,,,,,,,,,,,,,,,,,,,,,,,314033,001,2024-12-05_12h39.20.640,Test,2024.2.1,59.51477603258997,2024-12-05 12h39.41.105274 +0100,
9,150,30,62,None,15,15,0,,,,,,,,0,15,15,8,,,,,,,,,,,,,93.17026312199596,,,,,,,,,,,,,,,,,,,,,,,93.15982670499943,93.17026312199596,93.37099023899646,93.37099023899646,93.37099023899646,95.07068689800508,95.07068689800508,95.05576827599725,,,,,,,,,,,,,,,,,,,,,,,,,,,,,,,,,,,,,,,,,,,,,,,,,,,,,,,,,,,,,,,314033,001,2024-12-05_12h39.20.640,Test,2024.2.1,59.51477603258997,2024-12-05 12h39.41.105274 +0100,
14,150,60,15,None,16,16,0,,,,,,,,0,16,16,13,,,,,,,,,,,,,95.07068689800508,,,,,,,,,,,,,,,,,,,,,,,95.06154027799494,95.07068689800508,95.27174268200179,95.27174268200179,95.27174268200179,96.97131030200399,96.97131030200399,96.95596401799412,,,,,,,,,,,,,,,,,,,,,,,,,,,,,,,,,,,,,,,,,,,,,,,,,,,,,,,,,,,,,,,314033,001,2024-12-05_12h39.20.640,Test,2024.2.1,59.51477603258997,2024-12-05 12h39.41.105274 +0100,
32,150,180,42,None,17,17,0,,,,,,,,0,17,17,31,,,,,,,,,,,,,96.97131030200399,,,,,,,,,,,,,,,,,,,,,,,96.96338240000478,96.97131030200399,97.1714925349952,97.1714925349952,97.1714925349952,98.871124761994,98.871124761994,98.85592579400691,,,,,,,,,,,,,,,,,,,,,,,,,,,,,,,,,,,,,,,,,,,,,,,,,,,,,,,,,,,,,,,314033,001,2024-12-05_12h39.20.640,Test,2024.2.1,59.51477603258997,2024-12-05 12h39.41.105274 +0100,
12,150,60,24,None,18,18,0,,,,,,,,0,18,18,11,,,,,,,,,,,,,98.871124761994,,,,,,,,,,,,,,,,,,,,,,,98.86186910100514,98.871124761994,99.07125031700707,99.07125031700707,99.07125031700707,100.77112950499577,100.77112950499577,100.75553999000113,,,,,,,,,,,,,,,,,,,,,,,,,,,,,,,,,,,,,,,,,,,,,,,,,,,,,,,,,,,,,,,314033,001,2024-12-05_12h39.20.640,Test,2024.2.1,59.51477603258997,2024-12-05 12h39.41.105274 +0100,
18,150,90,53,None,19,19,0,,,,,,,,0,19,19,17,,,,,,,,,,,,,100.77112950499577,,,,,,,,,,,,,,,,,,,,,,,100.76146849400538,100.77112950499577,100.97159565500624,100.97159565500624,100.97159565500624,102.67154936499719,102.67154936499719,102.65622069500387,,,,,,,,,,,,,,,,,,,,,,,,,,,,,,,,,,,,,,,,,,,,,,,,,,,,,,,,,,,,,,,314033,001,2024-12-05_12h39.20.640,Test,2024.2.1,59.51477603258997,2024-12-05 12h39.41.105274 +0100,
21,150,120,45,None,20,20,0,,,,,,,,0,20,20,20,,,,,,,,,,,,,102.67154936499719,,,,,,,,,,,,,,,,,,,,,,,102.66321976100153,102.67154936499719,102.87249329600309,102.87249329600309,102.87249329600309,,,104.5713563879981,,,,,,,,,,,,,,,,,,,,,,,,,,,,,,,,,,,,,,,,,,,,,,,,,,,,,,,,,,,,,,,314033,001,2024-12-05_12h39.20.640,Test,2024.2.1,59.51477603258997,2024-12-05 12h39.41.105274 +0100,
10,150,30,65,None,21,21,0,,,,,,,,0,21,21,9,,,,,,,,,,,,,104.58805483099422,,,,,,,,,,,,,,,,,,,,,,,104.57664969199686,104.58805483099422,104.77193115299451,104.77193115299451,104.78887862799456,106.47189929400338,106.47189929400338,106.45609454100486,,,,,,,,,,,,,,,,,,,,,,,,,,,,,,,,,,,,,,,,,,,,,,,,,,,,,,,,,,,,,,,314033,001,2024-12-05_12h39.20.640,Test,2024.2.1,59.51477603258997,2024-12-05 12h39.41.105274 +0100,
27,150,150,37,None,22,22,0,,,,,,,,0,22,22,26,,,,,,,,,,,,,106.47189929400338,,,,,,,,,,,,,,,,,,,,,,,106.46205274200474,106.47189929400338,106.67185112599691,106.67185112599691,106.67185112599691,108.37232351400598,108.37232351400598,108.35645295599534,,,,,,,,,,,,,,,,,,,,,,,,,,,,,,,,,,,,,,,,,,,,,,,,,,,,,,,,,,,,,,,314033,001,2024-12-05_12h39.20.640,Test,2024.2.1,59.51477603258997,2024-12-05 12h39.41.105274 +0100,
16,150,90,33,None,23,23,0,,,,,,,,0,23,23,15,,,,,,,,,,,,,108.37232351400598,,,,,,,,,,,,,,,,,,,,,,,108.36416139799985,108.37232351400598,108.57270899100695,108.57270899100695,108.57270899100695,110.27177670100355,110.27177670100355,110.25645971100312,,,,,,,,,,,,,,,,,,,,,,,,,,,,,,,,,,,,,,,,,,,,,,,,,,,,,,,,,,,,,,,314033,001,2024-12-05_12h39.20.640,Test,2024.2.1,59.51477603258997,2024-12-05 12h39.41.105274 +0100,
19,150,90,39,None,24,24,0,,,,,,,,0,24,24,18,,,,,,,,,,,,,110.27177670100355,,,,,,,,,,,,,,,,,,,,,,,110.26265615300508,110.27177670100355,110.47233406400483,110.47233406400483,110.47233406400483,112.17168124200543,112.17168124200543,112.15610386499611,,,,,,,,,,,,,,,,,,,,,,,,,,,,,,,,,,,,,,,,,,,,,,,,,,,,,,,,,,,,,,,314033,001,2024-12-05_12h39.20.640,Test,2024.2.1,59.51477603258997,2024-12-05 12h39.41.105274 +0100,
4,150,0,18,None,25,25,0,,,,,,,,0,25,25,3,,,,,,,,,,,,,112.17168124200543,,,,,,,,,,,,,,,,,,,,,,,112.16289303799567,112.17168124200543,112.37260166399938,112.37260166399938,112.37260166399938,114.07230187499954,114.07230187499954,114.05678298500425,,,,,,,,,,,,,,,,,,,,,,,,,,,,,,,,,,,,,,,,,,,,,,,,,,,,,,,,,,,,,,,314033,001,2024-12-05_12h39.20.640,Test,2024.2.1,59.51477603258997,2024-12-05 12h39.41.105274 +0100,
26,150,150,57,None,26,26,0,,,,,,,,0,26,26,25,,,,,,,,,,,,,114.07230187499954,,,,,,,,,,,,,,,,,,,,,,,114.06276109299506,114.07230187499954,114.2729386449937,114.2729386449937,114.2729386449937,115.97286524399533,115.97286524399533,115.95751649700105,,,,,,,,,,,,,,,,,,,,,,,,,,,,,,,,,,,,,,,,,,,,,,,,,,,,,,,,,,,,,,,314033,001,2024-12-05_12h39.20.640,Test,2024.2.1,59.51477603258997,2024-12-05 12h39.41.105274 +0100,
20,150,90,68,None,27,27,0,,,,,,,,0,27,27,19,,,,,,,,,,,,,115.97286524399533,,,,,,,,,,,,,,,,,,,,,,,115.96494880699902,115.97286524399533,116.17192318799789,116.17192318799789,116.17192318799789,117.87223408199497,117.87223408199497,117.85657255699334,,,,,,,,,,,,,,,,,,,,,,,,,,,,,,,,,,,,,,,,,,,,,,,,,,,,,,,,,,,,,,,314033,001,2024-12-05_12h39.20.640,Test,2024.2.1,59.51477603258997,2024-12-05 12h39.41.105274 +0100,
7,150,30,44,None,28,28,0,,,,,,,,0,28,28,6,,,,,,,,,,,,,117.87223408199497,,,,,,,,,,,,,,,,,,,,,,,117.86199659699923,117.87223408199497,118.07273269799771,118.07273269799771,118.07273269799771,119.77240673000051,119.77240673000051,119.75731440799427,,,,,,,,,,,,,,,,,,,,,,,,,,,,,,,,,,,,,,,,,,,,,,,,,,,,,,,,,,,,,,,314033,001,2024-12-05_12h39.20.640,Test,2024.2.1,59.51477603258997,2024-12-05 12h39.41.105274 +0100,
23,150,120,38,None,29,29,0,,,,,,,,0,29,29,22,,,,,,,,,,,,,119.77240673000051,,,,,,,,,,,,,,,,,,,,,,,119.76391469099326,119.77240673000051,119.97281429699797,119.97281429699797,119.97281429699797,121.67264229799912,121.67264229799912,121.65716923499713,,,,,,,,,,,,,,,,,,,,,,,,,,,,,,,,,,,,,,,,,,,,,,,,,,,,,,,,,,,,,,,314033,001,2024-12-05_12h39.20.640,Test,2024.2.1,59.51477603258997,2024-12-05 12h39.41.105274 +0100,
34,150,180,52,None,30,30,0,,,,,,,,0,30,30,33,,,,,,,,,,,,,121.67264229799912,,,,,,,,,,,,,,,,,,,,,,,121.66306035399612,121.67264229799912,121.87277852999978,121.87277852999978,121.87277852999978,123.572844823997,123.572844823997,123.55712561600376,,,,,,,,,,,,,,,,,,,,,,,,,,,,,,,,,,,,,,,,,,,,,,,,,,,,,,,,,,,,,,,314033,001,2024-12-05_12h39.20.640,Test,2024.2.1,59.51477603258997,2024-12-05 12h39.41.105274 +0100,
28,150,150,19,None,31,31,0,,,,,,,,0,31,31,27,,,,,,,,,,,,,123.572844823997,,,,,,,,,,,,,,,,,,,,,,,123.56397714599734,123.572844823997,123.77302835599403,123.77302835599403,123.77302835599403,125.4726530189946,125.4726530189946,125.45791095899767,,,,,,,,,,,,,,,,,,,,,,,,,,,,,,,,,,,,,,,,,,,,,,,,,,,,,,,,,,,,,,,314033,001,2024-12-05_12h39.20.640,Test,2024.2.1,59.51477603258997,2024-12-05 12h39.41.105274 +0100,
29,150,150,16,None,32,32,0,,,,,,,,0,32,32,28,,,,,,,,,,,,,125.4726530189946,,,,,,,,,,,,,,,,,,,,,,,125.46395353200205,125.4726530189946,125.67398643300112,125.67398643300112,125.67398643300112,127.37303250600235,127.37303250600235,127.35722384300607,,,,,,,,,,,,,,,,,,,,,,,,,,,,,,,,,,,,,,,,,,,,,,,,,,,,,,,,,,,,,,,314033,001,2024-12-05_12h39.20.640,Test,2024.2.1,59.51477603258997,2024-12-05 12h39.41.105274 +0100,
30,150,150,70,None,33,33,0,,,,,,,,0,33,33,29,,,,,,,,,,,,,127.37303250600235,,,,,,,,,,,,,,,,,,,,,,,127.36264478700468,127.37303250600235,127.57347697300429,127.57347697300429,127.57347697300429,129.27296238900453,129.27296238900453,129.25745671399636,,,,,,,,,,,,,,,,,,,,,,,,,,,,,,,,,,,,,,,,,,,,,,,,,,,,,,,,,,,,,,,314033,001,2024-12-05_12h39.20.640,Test,2024.2.1,59.51477603258997,2024-12-05 12h39.41.105274 +0100,
2,150,0,6,None,34,34,0,,,,,,,,0,34,34,1,,,,,,,,,,,,,129.27296238900453,,,,,,,,,,,,,,,,,,,,,,,129.2633793720015,129.27296238900453,129.47333177599648,129.47333177599648,129.47333177599648,131.17365003700252,131.17365003700252,131.1578165270039,,,,,,,,,,,,,,,,,,,,,,,,,,,,,,,,,,,,,,,,,,,,,,,,,,,,,,,,,,,,,,,314033,001,2024-12-05_12h39.20.640,Test,2024.2.1,59.51477603258997,2024-12-05 12h39.41.105274 +0100,
,,,,,,,,,,,,,,,,,,,,,,,,,,,,,,,,,,,,,,,,,,,,,,,,,,,,,,,,,,,,,,131.15804871199362,131.17365003700252,131.17365003700252,149.54273437500524,space,18.357282814002247,None,,,,,,,,,,,,,,,,,,,,,,,,,,,,,,,,,,,,,,,,,,,,,,,,,,,,,,,,314033,001,2024-12-05_12h39.20.640,Test,2024.2.1,59.51477603258997,2024-12-05 12h39.41.105274 +0100,
3,150,0,50,None,0,0,0,False,left,1.2723718589986674,None,,,,,,,,0,0,0,0,,,,,,,,,149.5657722360047,,,,,,,,,,,,,,,,,,,,,,,,,,,,,,,,,,,,,,149.557076202007,149.5657722360047,150.5752121770056,151.55884916399373,151.55884916399373,151.55884916399373,152.843049728006,left,1.2723718589986674,None,,,,,,,,,,,,,,,,,,,,,,,,,,,,,,,,,,,,,,,,,,,,,,314033,001,2024-12-05_12h39.20.640,Test,2024.2.1,59.51477603258997,2024-12-05 12h39.41.105274 +0100,
26,150,150,57,None,1,1,0,False,right,0.7510587150027277,None,,,,,,,,0,1,1,1,,,,,,,,,152.8729675420036,,,,,,,,,,,,,,,,,,,,,,,,,,,,,,,,,,,,,,152.8465951380058,152.8729675420036,153.87555969299865,154.84234556299634,154.84234556299634,154.84234556299634,155.61026863500592,right,0.7510587150027277,None,,,,,,,,,,,,,,,,,,,,,,,,,,,,,,,,,,,,,,,,,,,,,,314033,001,2024-12-05_12h39.20.640,Test,2024.2.1,59.51477603258997,2024-12-05 12h39.41.105274 +0100,
7,150,30,44,None,2,2,0,False,right,0.7083001800056081,None,,,,,,,,0,2,2,2,,,,,,,,,155.62479626999993,,,,,,,,,,,,,,,,,,,,,,,,,,,,,,,,,,,,,,155.61389708399656,155.62479626999993,156.6254026999959,157.62580150300346,157.62580150300346,157.62580150300346,158.34332529999665,right,0.7083001800056081,None,,,,,,,,,,,,,,,,,,,,,,,,,,,,,,,,,,,,,,,,,,,,,,314033,001,2024-12-05_12h39.20.640,Test,2024.2.1,59.51477603258997,2024-12-05 12h39.41.105274 +0100,
47,150,60,35,None,3,3,0,True,left,0.9448678449989529,None,,,,,,,,0,3,3,3,,,,,,,,,158.35920936499315,,,,,,,,,,,,,,,,,,,,,,,,,,,,,,,,,,,,,,158.35015952300455,158.35920936499315,159.3587759660004,160.3428311089956,160.3428311089956,160.3428311089956,161.29428656600066,left,0.9448678449989529,None,,,,,,,,,,,,,,,,,,,,,,,,,,,,,,,,,,,,,,,,,,,,,,314033,001,2024-12-05_12h39.20.640,Test,2024.2.1,59.51477603258997,2024-12-05 12h39.41.105274 +0100,
6,150,30,51,None,4,4,0,False,left,0.9269105179992039,None,,,,,,,,0,4,4,4,,,,,,,,,161.31086615899403,,,,,,,,,,,,,,,,,,,,,,,,,,,,,,,,,,,,,,161.30204630599474,161.31086615899403,162.32579278100457,163.30957435100572,163.30957435100572,163.30957435100572,164.244227246003,left,0.9269105179992039,None,,,,,,,,,,,,,,,,,,,,,,,,,,,,,,,,,,,,,,,,,,,,,,314033,001,2024-12-05_12h39.20.640,Test,2024.2.1,59.51477603258997,2024-12-05 12h39.41.105274 +0100,
35,150,180,40,None,5,5,0,False,right,1.2006278640037635,None,,,,,,,,0,5,5,5,,,,,,,,,164.25936546399316,,,,,,,,,,,,,,,,,,,,,,,,,,,,,,,,,,,,,,164.2476414279954,164.25936546399316,165.259235902995,166.24267463599972,166.24267463599972,166.24267463599972,167.445603649001,right,1.2006278640037635,None,,,,,,,,,,,,,,,,,,,,,,,,,,,,,,,,,,,,,,,,,,,,,,314033,001,2024-12-05_12h39.20.640,Test,2024.2.1,59.51477603258997,2024-12-05 12h39.41.105274 +0100,
18,150,90,53,None,6,6,0,False,right,0.9329822940053418,None,,,,,,,,0,6,6,6,,,,,,,,,167.45943545400223,,,,,,,,,,,,,,,,,,,,,,,,,,,,,,,,,,,,,,167.4493751139962,167.45943545400223,168.4596222639957,169.45983964200423,169.45983964200423,169.45983964200423,170.3955453039962,right,0.9329822940053418,None,,,,,,,,,,,,,,,,,,,,,,,,,,,,,,,,,,,,,,,,,,,,,,314033,001,2024-12-05_12h39.20.640,Test,2024.2.1,59.51477603258997,2024-12-05 12h39.41.105274 +0100,
58,150,120,30,None,7,7,0,True,right,1.7689922479912639,None,,,,,,,,0,7,7,7,,,,,,,,,170.41171097499318,,,,,,,,,,,,,,,,,,,,,,,,,,,,,,,,,,,,,,170.40294222500233,170.41171097499318,171.42640156499692,172.41098164199502,172.41098164199502,172.41098164199502,174.1955123009975,right,1.7689922479912639,None,,,,,,,,,,,,,,,,,,,,,,,,,,,,,,,,,,,,,,,,,,,,,,314033,001,2024-12-05_12h39.20.640,Test,2024.2.1,59.51477603258997,2024-12-05 12h39.41.105274 +0100,
53,150,90,3,None,8,8,0,True,right,0.8733072050090414,None,,,,,,,,0,8,8,8,,,,,,,,,174.21104091100278,,,,,,,,,,,,,,,,,,,,,,,,,,,,,,,,,,,,,,174.20188572800544,174.21104091100278,175.21105931200145,176.2099436599965,176.2099436599965,176.2099436599965,177.09524846100248,right,0.8733072050090414,None,,,,,,,,,,,,,,,,,,,,,,,,,,,,,,,,,,,,,,,,,,,,,,314033,001,2024-12-05_12h39.20.640,Test,2024.2.1,59.51477603258997,2024-12-05 12h39.41.105274 +0100,
13,150,60,4,None,9,9,0,False,left,1.0510901480010943,None,,,,,,,,0,9,9,9,,,,,,,,,177.11126701699686,,,,,,,,,,,,,,,,,,,,,,,,,,,,,,,,,,,,,,177.1010780659999,177.11126701699686,178.1113011520065,179.09373320100713,179.09373320100713,179.09373320100713,180.1620993760007,left,1.0510901480010943,None,,,,,,,,,,,,,,,,,,,,,,,,,,,,,,,,,,,,,,,,,,,,,,314033,001,2024-12-05_12h39.20.640,Test,2024.2.1,59.51477603258997,2024-12-05 12h39.41.105274 +0100,
66,150,180,27,None,10,10,0,True,right,0.9904738769982941,None,,,,,,,,0,10,10,10,,,,,,,,,180.17744464099815,,,,,,,,,,,,,,,,,,,,,,,,,,,,,,,,,,,,,,180.16864928499854,180.17744464099815,181.17708534300618,182.17757371200423,182.17757371200423,182.17757371200423,183.17929673100298,right,0.9904738769982941,None,,,,,,,,,,,,,,,,,,,,,,,,,,,,,,,,,,,,,,,,,,,,,,314033,001,2024-12-05_12h39.20.640,Test,2024.2.1,59.51477603258997,2024-12-05 12h39.41.105274 +0100,
57,150,120,14,None,11,11,0,True,right,0.9063503120123642,None,,,,,,,,0,11,11,11,,,,,,,,,183.19434217399976,,,,,,,,,,,,,,,,,,,,,,,,,,,,,,,,,,,,,,183.18459904800693,183.19434217399976,184.19472943700384,185.19401589699555,185.19401589699555,185.19401589699555,186.11246526200557,right,0.9063503120123642,None,,,,,,,,,,,,,,,,,,,,,,,,,,,,,,,,,,,,,,,,,,,,,,314033,001,2024-12-05_12h39.20.640,Test,2024.2.1,59.51477603258997,2024-12-05 12h39.41.105274 +0100,
32,150,180,42,None,12,12,0,False,left,1.1695060950005427,None,,,,,,,,0,12,12,12,,,,,,,,,186.1271528119978,,,,,,,,,,,,,,,,,,,,,,,,,,,,,,,,,,,,,,186.1158896929992,186.1271528119978,187.12736085199867,188.12792285399337,188.12792285399337,188.12792285399337,189.31234710900753,left,1.1695060950005427,None,,,,,,,,,,,,,,,,,,,,,,,,,,,,,,,,,,,,,,,,,,,,,,314033,001,2024-12-05_12h39.20.640,Test,2024.2.1,59.51477603258997,2024-12-05 12h39.41.105274 +0100,
20,150,90,68,None,13,13,0,False,left,1.25784775899956,None,,,,,,,,0,13,13,13,,,,,,,,,189.32726092000667,,,,,,,,,,,,,,,,,,,,,,,,,,,,,,,,,,,,,,189.31602947499778,189.32726092000667,190.32870421299594,191.3279903530056,191.3279903530056,191.3279903530056,192.5959895200067,left,1.25784775899956,None,,,,,,,,,,,,,,,,,,,,,,,,,,,,,,,,,,,,,,,,,,,,,,314033,001,2024-12-05_12h39.20.640,Test,2024.2.1,59.51477603258997,2024-12-05 12h39.41.105274 +0100,
10,150,30,65,None,14,14,0,False,left,3.3385614910075674,None,,,,,,,,0,14,14,14,,,,,,,,,192.6109814060037,,,,,,,,,,,,,,,,,,,,,,,,,,,,,,,,,,,,,,192.59951852000086,192.6109814060037,193.61134665099962,194.61164002600708,194.61164002600708,194.61164002600708,197.98332739400212,left,3.3385614910075674,None,197.59483299599378,197.61174214599305,197.61174214599305,,,,,,,,,,,,,,,,,,,,,,,,,,,,,,,,,,,,,,,,,,,314033,001,2024-12-05_12h39.20.640,Test,2024.2.1,59.51477603258997,2024-12-05 12h39.41.105274 +0100,
38,150,0,12,None,15,15,0,True,right,8.171520108997356,None,,,,,,,,0,15,15,15,,,,,,,,,197.99987415899523,,,,,,,,,,,,,,,,,,,,,,,,,,,,,,,,,,,,,,197.99207121500513,197.99987415899523,199.01194937400578,199.99505722199683,199.99505722199683,199.99505722199683,208.18057207899983,right,8.171520108997356,None,202.99522602499928,202.99522602499928,202.99522602499928,,,,,,,,,,,,,,,,,,,,,,,,,,,,,,,,,,,,,,,,,,,314033,001,2024-12-05_12h39.20.640,Test,2024.2.1,59.51477603258997,2024-12-05 12h39.41.105274 +0100,
50,150,60,22,None,16,16,0,True,right,0.8142462710093241,None,,,,,,,,0,16,16,16,,,,,,,,,208.19639900499897,,,,,,,,,,,,,,,,,,,,,,,,,,,,,,,,,,,,,,208.1863994919986,208.19639900499897,209.21163579900167,210.19551748099911,210.19551748099911,210.19551748099911,211.01481632099603,right,0.8142462710093241,None,,,,,,,,,,,,,,,,,,,,,,,,,,,,,,,,,,,,,,,,,,,,,,314033,001,2024-12-05_12h39.20.640,Test,2024.2.1,59.51477603258997,2024-12-05 12h39.41.105274 +0100,
36,150,0,7,None,17,17,0,True,right,1.0737494850036455,None,,,,,,,,0,17,17,17,,,,,,,,,211.0298192610062,,,,,,,,,,,,,,,,,,,,,,,,,,,,,,,,,,,,,,211.02050918899477,211.0298192610062,212.06464931099617,213.02918794100697,213.02918794100697,213.02918794100697,214.11409604700748,right,1.0737494850036455,None,,,,,,,,,,,,,,,,,,,,,,,,,,,,,,,,,,,,,,,,,,,,,,314033,001,2024-12-05_12h39.20.640,Test,2024.2.1,59.51477603258997,2024-12-05 12h39.41.105274 +0100,
49,150,60,11,None,18,18,0,True,right,0.8684948599984637,None,,,,,,,,0,18,18,18,,,,,,,,,214.13021046400536,,,,,,,,,,,,,,,,,,,,,,,,,,,,,,,,,,,,,,214.1216851939971,214.13021046400536,215.12970105100248,216.13046360500448,216.13046360500448,216.13046360500448,217.01454533799551,right,0.8684948599984637,None,,,,,,,,,,,,,,,,,,,,,,,,,,,,,,,,,,,,,,,,,,,,,,314033,001,2024-12-05_12h39.20.640,Test,2024.2.1,59.51477603258997,2024-12-05 12h39.41.105274 +0100,
44,150,30,61,None,19,19,0,True,left,0.7591179970040685,None,,,,,,,,0,19,19,19,,,,,,,,,217.02987741099787,,,,,,,,,,,,,,,,,,,,,,,,,,,,,,,,,,,,,,217.02086097600113,217.02987741099787,218.02988243699656,219.0298756639968,219.0298756639968,219.0298756639968,219.79791760799708,left,0.7591179970040685,None,,,,,,,,,,,,,,,,,,,,,,,,,,,,,,,,,,,,,,,,,,,,,,314033,001,2024-12-05_12h39.20.640,Test,2024.2.1,59.51477603258997,2024-12-05 12h39.41.105274 +0100,
25,150,120,47,None,20,20,0,False,left,1.2054694229882443,None,,,,,,,,0,20,20,20,,,,,,,,,219.81252978699922,,,,,,,,,,,,,,,,,,,,,,,,,,,,,,,,,,,,,,219.80139178299578,219.81252978699922,220.8133605900075,221.81339613899763,221.81339613899763,221.81339613899763,223.03178455399757,left,1.2054694229882443,None,,,,,,,,,,,,,,,,,,,,,,,,,,,,,,,,,,,,,,,,,,,,,,314033,001,2024-12-05_12h39.20.640,Test,2024.2.1,59.51477603258997,2024-12-05 12h39.41.105274 +0100,
43,150,30,69,None,21,21,0,True,left,1.8951720990007743,None,,,,,,,,0,21,21,21,,,,,,,,,223.04811821400654,,,,,,,,,,,,,,,,,,,,,,,,,,,,,,,,,,,,,,223.03859638000722,223.04811821400654,224.06343199900584,225.04709714199998,225.04709714199998,225.04709714199998,226.94911798500107,left,1.8951720990007743,None,,,,,,,,,,,,,,,,,,,,,,,,,,,,,,,,,,,,,,,,,,,,,,314033,001,2024-12-05_12h39.20.640,Test,2024.2.1,59.51477603258997,2024-12-05 12h39.41.105274 +0100,
61,150,150,48,None,22,22,0,True,left,1.2660369999939576,None,,,,,,,,0,22,22,22,,,,,,,,,226.9654758079996,,,,,,,,,,,,,,,,,,,,,,,,,,,,,,,,,,,,,,226.9558036130038,226.9654758079996,227.98059911500604,228.96400375300436,228.96400375300436,228.96400375300436,230.23284314699413,left,1.2660369999939576,None,,,,,,,,,,,,,,,,,,,,,,,,,,,,,,,,,,,,,,,,,,,,,,314033,001,2024-12-05_12h39.20.640,Test,2024.2.1,59.51477603258997,2024-12-05 12h39.41.105274 +0100,
70,150,180,55,None,23,23,0,True,right,0.9110090319882147,None,,,,,,,,0,23,23,23,,,,,,,,,230.24964230800106,,,,,,,,,,,,,,,,,,,,,,,,,,,,,,,,,,,,,,230.24057978499332,230.24964230800106,231.26414962099807,232.24790645499888,232.24790645499888,232.24790645499888,233.16584576400055,right,0.9110090319882147,None,,,,,,,,,,,,,,,,,,,,,,,,,,,,,,,,,,,,,,,,,,,,,,314033,001,2024-12-05_12h39.20.640,Test,2024.2.1,59.51477603258997,2024-12-05 12h39.41.105274 +0100,
21,150,120,45,None,24,24,0,False,right,2.7396603660017718,None,,,,,,,,0,24,24,24,,,,,,,,,233.1807976459968,,,,,,,,,,,,,,,,,,,,,,,,,,,,,,,,,,,,,,233.16938321599446,233.1807976459968,234.1808288510074,235.1807747319981,235.1807747319981,235.1807747319981,237.93259675899753,right,2.7396603660017718,None,,,,,,,,,,,,,,,,,,,,,,,,,,,,,,,,,,,,,,,,,,,,,,314033,001,2024-12-05_12h39.20.640,Test,2024.2.1,59.51477603258997,2024-12-05 12h39.41.105274 +0100,
34,150,180,52,None,25,25,0,False,right,0.9597972000046866,None,,,,,,,,0,25,25,25,,,,,,,,,237.94788322200475,,,,,,,,,,,,,,,,,,,,,,,,,,,,,,,,,,,,,,237.9361475659971,237.94788322200475,238.94871831800265,239.9480523950042,239.9480523950042,239.9480523950042,240.91818612899806,right,0.9597972000046866,None,,,,,,,,,,,,,,,,,,,,,,,,,,,,,,,,,,,,,,,,,,,,,,314033,001,2024-12-05_12h39.20.640,Test,2024.2.1,59.51477603258997,2024-12-05 12h39.41.105274 +0100,
19,150,90,39,None,26,26,0,False,left,0.7421667400049046,None,,,,,,,,0,26,26,26,,,,,,,,,240.9315435640019,,,,,,,,,,,,,,,,,,,,,,,,,,,,,,,,,,,,,,240.92280516900064,240.9315435640019,241.93118071700155,242.93164229299873,242.93164229299873,242.93164229299873,243.6830227879982,left,0.7421667400049046,None,,,,,,,,,,,,,,,,,,,,,,,,,,,,,,,,,,,,,,,,,,,,,,314033,001,2024-12-05_12h39.20.640,Test,2024.2.1,59.51477603258997,2024-12-05 12h39.41.105274 +0100,
28,150,150,19,None,27,27,0,False,right,1.8541757659986615,None,,,,,,,,0,27,27,27,,,,,,,,,243.69757719700283,,,,,,,,,,,,,,,,,,,,,,,,,,,,,,,,,,,,,,243.68652656799532,243.69757719700283,244.69807422200392,245.68247544999758,245.68247544999758,245.68247544999758,247.54980618199625,right,1.8541757659986615,None,,,,,,,,,,,,,,,,,,,,,,,,,,,,,,,,,,,,,,,,,,,,,,314033,001,2024-12-05_12h39.20.640,Test,2024.2.1,59.51477603258997,2024-12-05 12h39.41.105274 +0100,
5,150,0,10,None,28,28,0,False,left,1.2346383919939399,None,,,,,,,,0,28,28,28,,,,,,,,,247.56549775399617,,,,,,,,,,,,,,,,,,,,,,,,,,,,,,,,,,,,,,247.55651597799442,247.56549775399617,248.5649479249987,249.5653578229976,249.5653578229976,249.5653578229976,250.81697392500064,left,1.2346383919939399,None,,,,,,,,,,,,,,,,,,,,,,,,,,,,,,,,,,,,,,,,,,,,,,314033,001,2024-12-05_12h39.20.640,Test,2024.2.1,59.51477603258997,2024-12-05 12h39.41.105274 +0100,
62,150,150,8,None,29,29,0,True,left,1.1906976550089894,None,,,,,,,,0,29,29,29,,,,,,,,,250.83320823899703,,,,,,,,,,,,,,,,,,,,,,,,,,,,,,,,,,,,,,250.82408131800184,250.83320823899703,251.8490401010058,252.83180224400712,252.83180224400712,252.83180224400712,254.03418987400073,left,1.1906976550089894,None,,,,,,,,,,,,,,,,,,,,,,,,,,,,,,,,,,,,,,,,,,,,,,314033,001,2024-12-05_12h39.20.640,Test,2024.2.1,59.51477603258997,2024-12-05 12h39.41.105274 +0100,
9,150,30,62,None,30,30,0,False,left,1.0555830680095823,None,,,,,,,,0,30,30,30,,,,,,,,,254.04841818699788,,,,,,,,,,,,,,,,,,,,,,,,,,,,,,,,,,,,,,254.03768688900163,254.04841818699788,255.04890168599377,256.048984922003,256.048984922003,256.048984922003,257.1175984769943,left,1.0555830680095823,None,,,,,,,,,,,,,,,,,,,,,,,,,,,,,,,,,,,,,,,,,,,,,,314033,001,2024-12-05_12h39.20.640,Test,2024.2.1,59.51477603258997,2024-12-05 12h39.41.105274 +0100,
33,150,180,34,None,31,31,0,False,right,0.9915081770013785,None,,,,,,,,0,31,31,31,,,,,,,,,257.13560378199327,,,,,,,,,,,,,,,,,,,,,,,,,,,,,,,,,,,,,,257.1258218540024,257.13560378199327,258.1490237639955,259.1334916640044,259.1334916640044,259.1334916640044,260.13348908000626,right,0.9915081770013785,None,,,,,,,,,,,,,,,,,,,,,,,,,,,,,,,,,,,,,,,,,,,,,,314033,001,2024-12-05_12h39.20.640,Test,2024.2.1,59.51477603258997,2024-12-05 12h39.41.105274 +0100,
64,150,150,60,None,32,32,0,True,left,1.0670634739944944,None,,,,,,,,0,32,32,32,,,,,,,,,260.14893065999786,,,,,,,,,,,,,,,,,,,,,,,,,,,,,,,,,,,,,,260.13964742100507,260.14893065999786,261.1497809020075,262.13363113200467,262.13363113200467,262.13363113200467,263.21775819499453,left,1.0670634739944944,None,,,,,,,,,,,,,,,,,,,,,,,,,,,,,,,,,,,,,,,,,,,,,,314033,001,2024-12-05_12h39.20.640,Test,2024.2.1,59.51477603258997,2024-12-05 12h39.41.105274 +0100,
1,150,0,66,None,33,33,0,False,right,1.0187285720021464,None,,,,,,,,0,33,33,33,,,,,,,,,263.2333595030068,,,,,,,,,,,,,,,,,,,,,,,,,,,,,,,,,,,,,,263.2244830389973,263.2333595030068,264.23335885599954,265.23273980099475,265.23273980099475,265.23273980099475,266.2679197779944,right,1.0187285720021464,None,,,,,,,,,,,,,,,,,,,,,,,,,,,,,,,,,,,,,,,,,,,,,,314033,001,2024-12-05_12h39.20.640,Test,2024.2.1,59.51477603258997,2024-12-05 12h39.41.105274 +0100,
60,150,120,13,None,34,34,0,True,left,1.017581638006959,None,,,,,,,,0,34,34,34,,,,,,,,,266.28332019000663,,,,,,,,,,,,,,,,,,,,,,,,,,,,,,,,,,,,,,266.2744868739974,266.28332019000663,267.28333035399555,268.2835108690051,268.2835108690051,268.2835108690051,269.31865681899944,left,1.017581638006959,None,,,,,,,,,,,,,,,,,,,,,,,,,,,,,,,,,,,,,,,,,,,,,,314033,001,2024-12-05_12h39.20.640,Test,2024.2.1,59.51477603258997,2024-12-05 12h39.41.105274 +0100,
63,150,150,32,None,35,35,0,True,left,0.7567675729951588,None,,,,,,,,0,35,35,35,,,,,,,,,269.3335436049965,,,,,,,,,,,,,,,,,,,,,,,,,,,,,,,,,,,,,,269.32482325199817,269.3335436049965,270.3331694990047,271.3332433159958,271.3332433159958,271.3332433159958,272.1011410810024,left,0.7567675729951588,None,,,,,,,,,,,,,,,,,,,,,,,,,,,,,,,,,,,,,,,,,,,,,,314033,001,2024-12-05_12h39.20.640,Test,2024.2.1,59.51477603258997,2024-12-05 12h39.41.105274 +0100,
2,150,0,6,None,36,36,0,False,right,0.8834844399971189,None,,,,,,,,0,36,36,36,,,,,,,,,272.1170240089996,,,,,,,,,,,,,,,,,,,,,,,,,,,,,,,,,,,,,,272.1045919809985,272.1170240089996,273.1175776260061,274.11673635100306,274.11673635100306,274.11673635100306,275.0029643870075,right,0.8834844399971189,None,,,,,,,,,,,,,,,,,,,,,,,,,,,,,,,,,,,,,,,,,,,,,,314033,001,2024-12-05_12h39.20.640,Test,2024.2.1,59.51477603258997,2024-12-05 12h39.41.105274 +0100,
42,150,30,5,None,37,37,0,True,left,0.8905574339878513,None,,,,,,,,0,37,37,37,,,,,,,,,275.0192688219977,,,,,,,,,,,,,,,,,,,,,,,,,,,,,,,,,,,,,,275.01033497200115,275.0192688219977,276.0336011790059,277.01716839999426,277.01716839999426,277.01716839999426,277.918678283997,left,0.8905574339878513,None,,,,,,,,,,,,,,,,,,,,,,,,,,,,,,,,,,,,,,,,,,,,,,314033,001,2024-12-05_12h39.20.640,Test,2024.2.1,59.51477603258997,2024-12-05 12h39.41.105274 +0100,
59,150,120,49,None,38,38,0,True,left,1.1596215790050337,None,,,,,,,,0,38,38,38,,,,,,,,,277.9344232400035,,,,,,,,,,,,,,,,,,,,,,,,,,,,,,,,,,,,,,277.92550436299643,277.9344232400035,278.9341149230022,279.93382195799495,279.93382195799495,279.93382195799495,281.1046426249959,left,1.1596215790050337,None,,,,,,,,,,,,,,,,,,,,,,,,,,,,,,,,,,,,,,,,,,,,,,314033,001,2024-12-05_12h39.20.640,Test,2024.2.1,59.51477603258997,2024-12-05 12h39.41.105274 +0100,
27,150,150,37,None,39,39,0,False,left,1.1214058100013062,None,,,,,,,,0,39,39,39,,,,,,,,,281.1322033299948,,,,,,,,,,,,,,,,,,,,,,,,,,,,,,,,,,,,,,281.10964501199487,281.1322033299948,282.13496358599514,283.1173358219967,283.1173358219967,283.1173358219967,284.2524407470046,left,1.1214058100013062,None,,,,,,,,,,,,,,,,,,,,,,,,,,,,,,,,,,,,,,,,,,,,,,314033,001,2024-12-05_12h39.20.640,Test,2024.2.1,59.51477603258997,2024-12-05 12h39.41.105274 +0100,
30,150,150,70,None,40,40,0,False,left,0.7728229589993134,None,,,,,,,,0,40,40,40,,,,,,,,,284.26748468799633,,,,,,,,,,,,,,,,,,,,,,,,,,,,,,,,,,,,,,284.2560369660059,284.26748468799633,285.2681055730063,286.2676250390068,286.2676250390068,286.2676250390068,287.052724277004,left,0.7728229589993134,None,,,,,,,,,,,,,,,,,,,,,,,,,,,,,,,,,,,,,,,,,,,,,,314033,001,2024-12-05_12h39.20.640,Test,2024.2.1,59.51477603258997,2024-12-05 12h39.41.105274 +0100,
48,150,60,41,None,41,41,0,True,right,0.786971352994442,None,,,,,,,,0,41,41,41,,,,,,,,,287.06811152299633,,,,,,,,,,,,,,,,,,,,,,,,,,,,,,,,,,,,,,287.058335602007,287.06811152299633,288.0679996730032,289.0680271619931,289.0680271619931,289.0680271619931,289.8695665950072,right,0.786971352994442,None,,,,,,,,,,,,,,,,,,,,,,,,,,,,,,,,,,,,,,,,,,,,,,314033,001,2024-12-05_12h39.20.640,Test,2024.2.1,59.51477603258997,2024-12-05 12h39.41.105274 +0100,
39,150,0,17,None,42,42,0,True,left,1.2816812679957366,None,,,,,,,,0,42,42,42,,,,,,,,,289.88436048799485,,,,,,,,,,,,,,,,,,,,,,,,,,,,,,,,,,,,,,289.875430176995,289.88436048799485,290.8851384640002,291.88513391399465,291.88513391399465,291.88513391399465,293.1703669169947,left,1.2816812679957366,None,,,,,,,,,,,,,,,,,,,,,,,,,,,,,,,,,,,,,,,,,,,,,,314033,001,2024-12-05_12h39.20.640,Test,2024.2.1,59.51477603258997,2024-12-05 12h39.41.105274 +0100,
67,150,180,67,None,43,43,0,True,right,1.1436704060033662,None,,,,,,,,0,43,43,43,,,,,,,,,293.186382660002,,,,,,,,,,,,,,,,,,,,,,,,,,,,,,,,,,,,,,293.17760592400737,293.186382660002,294.2014531320019,295.18590243000654,295.18590243000654,295.18590243000654,296.3362499509967,right,1.1436704060033662,None,,,,,,,,,,,,,,,,,,,,,,,,,,,,,,,,,,,,,,,,,,,,,,314033,001,2024-12-05_12h39.20.640,Test,2024.2.1,59.51477603258997,2024-12-05 12h39.41.105274 +0100,
11,150,60,63,None,44,44,0,False,left,0.9267476560053183,None,,,,,,,,0,44,44,44,,,,,,,,,296.3522328429972,,,,,,,,,,,,,,,,,,,,,,,,,,,,,,,,,,,,,,296.3431403430004,296.3522328429972,297.3519372890005,298.335547374998,298.335547374998,298.335547374998,299.2698969579942,left,0.9267476560053183,None,,,,,,,,,,,,,,,,,,,,,,,,,,,,,,,,,,,,,,,,,,,,,,314033,001,2024-12-05_12h39.20.640,Test,2024.2.1,59.51477603258997,2024-12-05 12h39.41.105274 +0100,
14,150,60,15,None,45,45,0,False,left,1.2213592780026374,None,,,,,,,,0,45,45,45,,,,,,,,,299.2855385419971,,,,,,,,,,,,,,,,,,,,,,,,,,,,,,,,,,,,,,299.27333277999423,299.2855385419971,300.28475977800554,301.26912257600634,301.26912257600634,301.26912257600634,302.5036791839957,left,1.2213592780026374,None,,,,,,,,,,,,,,,,,,,,,,,,,,,,,,,,,,,,,,,,,,,,,,314033,001,2024-12-05_12h39.20.640,Test,2024.2.1,59.51477603258997,2024-12-05 12h39.41.105274 +0100,
8,150,30,23,None,46,46,0,False,right,0.6677686289913254,None,,,,,,,,0,46,46,46,,,,,,,,,302.51903820299776,,,,,,,,,,,,,,,,,,,,,,,,,,,,,,,,,,,,,,302.510368600997,302.51903820299776,303.5198111219943,304.50303460900614,304.50303460900614,304.50303460900614,305.18727828700503,right,0.6677686289913254,None,,,,,,,,,,,,,,,,,,,,,,,,,,,,,,,,,,,,,,,,,,,,,,314033,001,2024-12-05_12h39.20.640,Test,2024.2.1,59.51477603258997,2024-12-05 12h39.41.105274 +0100,
55,150,90,26,None,47,47,0,True,left,1.0081713200052036,None,,,,,,,,0,47,47,47,,,,,,,,,305.2022883180034,,,,,,,,,,,,,,,,,,,,,,,,,,,,,,,,,,,,,,305.1929926150042,305.2022883180034,306.2025844190066,307.2026427319943,307.2026427319943,307.2026427319943,308.2202348169958,left,1.0081713200052036,None,,,,,,,,,,,,,,,,,,,,,,,,,,,,,,,,,,,,,,,,,,,,,,314033,001,2024-12-05_12h39.20.640,Test,2024.2.1,59.51477603258997,2024-12-05 12h39.41.105274 +0100,
23,150,120,38,None,48,48,0,False,right,2.3898167259903857,None,,,,,,,,0,48,48,48,,,,,,,,,308.2362043979956,,,,,,,,,,,,,,,,,,,,,,,,,,,,,,,,,,,,,,308.2237633850018,308.2362043979956,309.23607806200744,310.23582198300574,310.23582198300574,310.23582198300574,312.6372795960051,right,2.3898167259903857,None,,,,,,,,,,,,,,,,,,,,,,,,,,,,,,,,,,,,,,,,,,,,,,314033,001,2024-12-05_12h39.20.640,Test,2024.2.1,59.51477603258997,2024-12-05 12h39.41.105274 +0100,
51,150,90,9,None,49,49,0,True,left,1.4180224699957762,None,,,,,,,,0,49,49,49,,,,,,,,,312.6526372899971,,,,,,,,,,,,,,,,,,,,,,,,,,,,,,,,,,,,,,312.6435439719935,312.6526372899971,313.6527048919961,314.636333485003,314.636333485003,314.636333485003,316.0706173090002,left,1.4180224699957762,None,,,,,,,,,,,,,,,,,,,,,,,,,,,,,,,,,,,,,,,,,,,,,,314033,001,2024-12-05_12h39.20.640,Test,2024.2.1,59.51477603258997,2024-12-05 12h39.41.105274 +0100,
68,150,180,28,None,50,50,0,True,left,2.4348852830007672,None,,,,,,,,0,50,50,50,,,,,,,,,316.0870481549937,,,,,,,,,,,,,,,,,,,,,,,,,,,,,,,,,,,,,,316.0779880170012,316.0870481549937,317.08674950200657,318.0696910109982,318.0696910109982,318.0696910109982,320.5217722780071,left,2.4348852830007672,None,,,,,,,,,,,,,,,,,,,,,,,,,,,,,,,,,,,,,,,,,,,,,,314033,001,2024-12-05_12h39.20.640,Test,2024.2.1,59.51477603258997,2024-12-05 12h39.41.105274 +0100,
52,150,90,43,None,51,51,0,True,right,1.3361742370034335,None,,,,,,,,0,51,51,51,,,,,,,,,320.53637004600023,,,,,,,,,,,,,,,,,,,,,,,,,,,,,,,,,,,,,,320.5272844590072,320.53637004600023,321.5369598190009,322.52091419800126,322.52091419800126,322.52091419800126,323.8723296459939,right,1.3361742370034335,None,,,,,,,,,,,,,,,,,,,,,,,,,,,,,,,,,,,,,,,,,,,,,,314033,001,2024-12-05_12h39.20.640,Test,2024.2.1,59.51477603258997,2024-12-05 12h39.41.105274 +0100,
56,150,120,36,None,52,52,0,True,left,1.211664638001821,None,,,,,,,,0,52,52,52,,,,,,,,,323.8880804149958,,,,,,,,,,,,,,,,,,,,,,,,,,,,,,,,,,,,,,323.8792467549938,323.8880804149958,324.90390354600095,325.88697557100386,325.88697557100386,325.88697557100386,327.1057517809968,left,1.211664638001821,None,,,,,,,,,,,,,,,,,,,,,,,,,,,,,,,,,,,,,,,,,,,,,,314033,001,2024-12-05_12h39.20.640,Test,2024.2.1,59.51477603258997,2024-12-05 12h39.41.105274 +0100,
31,150,180,31,None,53,53,0,False,left,0.8745600280090002,None,,,,,,,,0,53,53,53,,,,,,,,,327.12127084900567,,,,,,,,,,,,,,,,,,,,,,,,,,,,,,,,,,,,,,327.11157169300714,327.12127084900567,328.137081384004,329.1205625940056,329.1205625940056,329.1205625940056,330.0060619040014,left,0.8745600280090002,None,,,,,,,,,,,,,,,,,,,,,,,,,,,,,,,,,,,,,,,,,,,,,,314033,001,2024-12-05_12h39.20.640,Test,2024.2.1,59.51477603258997,2024-12-05 12h39.41.105274 +0100,
16,150,90,33,None,54,54,0,False,right,0.9484841679950478,None,,,,,,,,0,54,54,54,,,,,,,,,330.0201189810032,,,,,,,,,,,,,,,,,,,,,,,,,,,,,,,,,,,,,,330.01055420399643,330.0201189810032,331.020195257006,332.02051744100754,332.02051744100754,332.02051744100754,332.97345654100354,right,0.9484841679950478,None,,,,,,,,,,,,,,,,,,,,,,,,,,,,,,,,,,,,,,,,,,,,,,314033,001,2024-12-05_12h39.20.640,Test,2024.2.1,59.51477603258997,2024-12-05 12h39.41.105274 +0100,
4,150,0,18,None,55,55,0,False,left,0.7567422379943309,None,,,,,,,,0,55,55,55,,,,,,,,,332.98725631900015,,,,,,,,,,,,,,,,,,,,,,,,,,,,,,,,,,,,,,332.97833248799725,332.98725631900015,333.98783594999986,334.98807655100245,334.98807655100245,334.98807655100245,335.7557280960027,left,0.7567422379943309,None,,,,,,,,,,,,,,,,,,,,,,,,,,,,,,,,,,,,,,,,,,,,,,314033,001,2024-12-05_12h39.20.640,Test,2024.2.1,59.51477603258997,2024-12-05 12h39.41.105274 +0100,
37,150,0,46,None,56,56,0,True,left,1.6921131270064507,None,,,,,,,,0,56,56,56,,,,,,,,,335.77031173299474,,,,,,,,,,,,,,,,,,,,,,,,,,,,,,,,,,,,,,335.7600099310075,335.77031173299474,336.77103279299627,337.75439431800623,337.75439431800623,337.75439431800623,339.4557753840054,left,1.6921131270064507,None,,,,,,,,,,,,,,,,,,,,,,,,,,,,,,,,,,,,,,,,,,,,,,314033,001,2024-12-05_12h39.20.640,Test,2024.2.1,59.51477603258997,2024-12-05 12h39.41.105274 +0100,
69,150,180,54,None,57,57,0,True,left,0.9453371510026045,None,,,,,,,,0,57,57,57,,,,,,,,,339.47148382400337,,,,,,,,,,,,,,,,,,,,,,,,,,,,,,,,,,,,,,339.46233097799995,339.47148382400337,340.47100774600403,341.45472231600434,341.45472231600434,341.45472231600434,342.4064231359953,left,0.9453371510026045,None,,,,,,,,,,,,,,,,,,,,,,,,,,,,,,,,,,,,,,,,,,,,,,314033,001,2024-12-05_12h39.20.640,Test,2024.2.1,59.51477603258997,2024-12-05 12h39.41.105274 +0100,
46,150,60,58,None,58,58,0,True,left,2.421823818003759,None,,,,,,,,0,58,58,58,,,,,,,,,342.4210741590068,,,,,,,,,,,,,,,,,,,,,,,,,,,,,,,,,,,,,,342.41102752799634,342.4210741590068,343.42138511600206,344.42205730400747,344.42205730400747,344.42205730400747,346.8569386690069,left,2.421823818003759,None,,,,,,,,,,,,,,,,,,,,,,,,,,,,,,,,,,,,,,,,,,,,,,314033,001,2024-12-05_12h39.20.640,Test,2024.2.1,59.51477603258997,2024-12-05 12h39.41.105274 +0100,
29,150,150,16,None,59,59,0,False,left,1.3010379069892224,None,,,,,,,,0,59,59,59,,,,,,,,,346.8716129950044,,,,,,,,,,,,,,,,,,,,,,,,,,,,,,,,,,,,,,346.86245965000126,346.8716129950044,347.87130575500487,348.8713360539987,348.8713360539987,348.8713360539987,350.1747226370062,left,1.3010379069892224,None,,,,,,,,,,,,,,,,,,,,,,,,,,,,,,,,,,,,,,,,,,,,,,314033,001,2024-12-05_12h39.20.640,Test,2024.2.1,59.51477603258997,2024-12-05 12h39.41.105274 +0100,
17,150,90,21,None,60,60,0,False,right,0.8409656699950574,None,,,,,,,,0,60,60,60,,,,,,,,,350.19042319200526,,,,,,,,,,,,,,,,,,,,,,,,,,,,,,,,,,,,,,350.1815258419956,350.19042319200526,351.20505194300495,352.1888797629945,352.1888797629945,352.1888797629945,353.04027431900613,right,0.8409656699950574,None,,,,,,,,,,,,,,,,,,,,,,,,,,,,,,,,,,,,,,,,,,,,,,314033,001,2024-12-05_12h39.20.640,Test,2024.2.1,59.51477603258997,2024-12-05 12h39.41.105274 +0100,
12,150,60,24,None,61,61,0,False,left,1.0738118430017494,None,,,,,,,,0,61,61,61,,,,,,,,,353.05680631799623,,,,,,,,,,,,,,,,,,,,,,,,,,,,,,,,,,,,,,353.0476832980057,353.05680631799623,354.07216889799747,355.0559374010045,355.0559374010045,355.0559374010045,356.14084054299747,left,1.0738118430017494,None,,,,,,,,,,,,,,,,,,,,,,,,,,,,,,,,,,,,,,,,,,,,,,314033,001,2024-12-05_12h39.20.640,Test,2024.2.1,59.51477603258997,2024-12-05 12h39.41.105274 +0100,
54,150,90,29,None,62,62,0,True,left,0.82158170400362,None,,,,,,,,0,62,62,62,,,,,,,,,356.156793097005,,,,,,,,,,,,,,,,,,,,,,,,,,,,,,,,,,,,,,356.1479121099983,356.156793097005,357.17210583400447,358.1563149660069,358.1563149660069,358.1563149660069,358.99116410000715,left,0.82158170400362,None,,,,,,,,,,,,,,,,,,,,,,,,,,,,,,,,,,,,,,,,,,,,,,314033,001,2024-12-05_12h39.20.640,Test,2024.2.1,59.51477603258997,2024-12-05 12h39.41.105274 +0100,
15,150,60,1,None,63,63,0,False,left,3.618122754007345,None,,,,,,,,0,63,63,63,,,,,,,,,359.00768832699396,,,,,,,,,,,,,,,,,,,,,,,,,,,,,,,,,,,,,,358.9978150770039,359.00768832699396,360.023091259005,361.00645672700193,361.00645672700193,361.00645672700193,364.641771805007,left,3.618122754007345,None,364.00615725999523,364.00615725999523,364.00615725999523,,,,,,,,,,,,,,,,,,,,,,,,,,,,,,,,,,,,,,,,,,,314033,001,2024-12-05_12h39.20.640,Test,2024.2.1,59.51477603258997,2024-12-05 12h39.41.105274 +0100,
22,150,120,64,None,64,64,0,False,right,0.8663621469895588,None,,,,,,,,0,64,64,64,,,,,,,,,364.65768392900645,,,,,,,,,,,,,,,,,,,,,,,,,,,,,,,,,,,,,,364.64860481000505,364.65768392900645,365.65726029900543,366.6575209110015,366.6575209110015,366.6575209110015,367.5413080169965,right,0.8663621469895588,None,,,,,,,,,,,,,,,,,,,,,,,,,,,,,,,,,,,,,,,,,,,,,,314033,001,2024-12-05_12h39.20.640,Test,2024.2.1,59.51477603258997,2024-12-05 12h39.41.105274 +0100,
40,150,0,20,None,65,65,0,True,left,1.2319066070049303,None,,,,,,,,0,65,65,65,,,,,,,,,367.5559741860052,,,,,,,,,,,,,,,,,,,,,,,,,,,,,,,,,,,,,,367.5456316850032,367.5559741860052,368.5559150229965,369.55724958199426,369.55724958199426,369.55724958199426,370.79266339300375,left,1.2319066070049303,None,,,,,,,,,,,,,,,,,,,,,,,,,,,,,,,,,,,,,,,,,,,,,,314033,001,2024-12-05_12h39.20.640,Test,2024.2.1,59.51477603258997,2024-12-05 12h39.41.105274 +0100,
24,150,120,2,None,66,66,0,False,left,1.5381568830052856,None,,,,,,,,0,66,66,66,,,,,,,,,370.80711506500666,,,,,,,,,,,,,,,,,,,,,,,,,,,,,,,,,,,,,,370.798400544998,370.80711506500666,371.8106357140059,372.80781067900534,372.80781067900534,372.80781067900534,374.35928263400274,left,1.5381568830052856,None,,,,,,,,,,,,,,,,,,,,,,,,,,,,,,,,,,,,,,,,,,,,,,314033,001,2024-12-05_12h39.20.640,Test,2024.2.1,59.51477603258997,2024-12-05 12h39.41.105274 +0100,
65,150,150,56,None,67,67,0,True,left,0.8574359220074257,None,,,,,,,,0,67,67,67,,,,,,,,,374.37352957300027,,,,,,,,,,,,,,,,,,,,,,,,,,,,,,,,,,,,,,374.3643322959979,374.37352957300027,375.37383781399694,376.3742071430024,376.3742071430024,376.3742071430024,377.241690491006,left,0.8574359220074257,None,,,,,,,,,,,,,,,,,,,,,,,,,,,,,,,,,,,,,,,,,,,,,,314033,001,2024-12-05_12h39.20.640,Test,2024.2.1,59.51477603258997,2024-12-05 12h39.41.105274 +0100,
45,150,30,25,None,68,68,0,True,right,1.2735341529914876,None,,,,,,,,0,68,68,68,,,,,,,,,377.2573989240045,,,,,,,,,,,,,,,,,,,,,,,,,,,,,,,,,,,,,,377.24731439999596,377.2573989240045,378.25757530400006,379.24134627199965,379.24134627199965,379.24134627199965,380.5251785599976,right,1.2735341529914876,None,,,,,,,,,,,,,,,,,,,,,,,,,,,,,,,,,,,,,,,,,,,,,,314033,001,2024-12-05_12h39.20.640,Test,2024.2.1,59.51477603258997,2024-12-05 12h39.41.105274 +0100,
41,150,30,59,None,69,69,0,True,left,1.9505445220129332,None,,,,,,,,0,69,69,69,,,,,,,,,380.54080977800186,,,,,,,,,,,,,,,,,,,,,,,,,,,,,,,,,,,,,,380.5311940690008,380.54080977800186,381.54083682199416,382.5412876899936,382.5412876899936,382.5412876899936,384.4942549529951,left,1.9505445220129332,None,,,,,,,,,,,,,,,,,,,,,,,,,,,,,,,,,,,,,,,,,,,,,,314033,001,2024-12-05_12h39.20.640,Test,2024.2.1,59.51477603258997,2024-12-05 12h39.41.105274 +0100,
,,,,,,,,,,,,,,,,,,,,,,,,,,,,,,,,,,,,,,,,,,,,,,,,,,,,,,,,,,,,,,,,,,,,,,,,,,,,,,,,,,384.49441785999807,384.50779650399636,384.50779650399636,388.293084570003,space,3.7781623679911718,None,,,,,,,,,,,,,,,,,,,,,,,,,,,,,,,,,,,,314033,001,2024-12-05_12h39.20.640,Test,2024.2.1,59.51477603258997,2024-12-05 12h39.41.105274 +0100,
14,150,60,15,None,0,0,0,,,,,,,,,,,,,,,,0,0,0,13,,,,,388.31552738499886,,,,,,,,,,,,,,,,,,,,,,,,,,,,,,,,,,,,,,,,,,,,,,,,,,,,,,,,,,388.30662878499425,388.31552738499886,388.50811333800084,388.50811333800084,388.5247167750058,390.20829482500267,390.20829482500267,390.1923199180019,,,,,,,,,,,,,,,,,,,,,,,,,,,,314033,001,2024-12-05_12h39.20.640,Test,2024.2.1,59.51477603258997,2024-12-05 12h39.41.105274 +0100,
16,150,90,33,None,1,1,0,,,,,,,,,,,,,,,,0,1,1,15,,,,,390.20829482500267,,,,,,,,,,,,,,,,,,,,,,,,,,,,,,,,,,,,,,,,,,,,,,,,,,,,,,,,,,390.19979887299996,390.20829482500267,390.4082210780034,390.4082210780034,390.4082210780034,392.12307130500267,392.12307130500267,392.0914119759982,,,,,,,,,,,,,,,,,,,,,,,,,,,,314033,001,2024-12-05_12h39.20.640,Test,2024.2.1,59.51477603258997,2024-12-05 12h39.41.105274 +0100,
18,150,90,53,None,2,2,0,,,,,,,,,,,,,,,,0,2,2,17,,,,,392.12307130500267,,,,,,,,,,,,,,,,,,,,,,,,,,,,,,,,,,,,,,,,,,,,,,,,,,,,,,,,,,392.0966713259986,392.12307130500267,392.2922001849947,392.2922001849947,392.32480443299573,393.99167236899666,393.99167236899666,393.97609769900737,,,,,,,,,,,,,,,,,,,,,,,,,,,,314033,001,2024-12-05_12h39.20.640,Test,2024.2.1,59.51477603258997,2024-12-05 12h39.41.105274 +0100,
33,150,180,34,None,3,3,0,,,,,,,,,,,,,,,,0,3,3,32,,,,,393.99167236899666,,,,,,,,,,,,,,,,,,,,,,,,,,,,,,,,,,,,,,,,,,,,,,,,,,,,,,,,,,393.9833880310034,394.00846379100403,394.2086393490026,394.2086393490026,394.2086393490026,395.90824819800036,395.90824819800036,395.8925989260024,,,,,,,,,,,,,,,,,,,,,,,,,,,,314033,001,2024-12-05_12h39.20.640,Test,2024.2.1,59.51477603258997,2024-12-05 12h39.41.105274 +0100,
24,150,120,2,None,4,4,0,,,,,,,,,,,,,,,,0,4,4,23,,,,,395.90824819800036,,,,,,,,,,,,,,,,,,,,,,,,,,,,,,,,,,,,,,,,,,,,,,,,,,,,,,,,,,395.8985298589978,395.90824819800036,396.0918318470067,396.0918318470067,396.1088224270061,397.7953901669971,397.7953901669971,397.77705905999755,,,,,,,,,,,,,,,,,,,,,,,,,,,,314033,001,2024-12-05_12h39.20.640,Test,2024.2.1,59.51477603258997,2024-12-05 12h39.41.105274 +0100,
29,150,150,16,None,5,5,0,,,,,,,,,,,,,,,,0,5,5,28,,,,,397.7953901669971,,,,,,,,,,,,,,,,,,,,,,,,,,,,,,,,,,,,,,,,,,,,,,,,,,,,,,,,,,397.7866370410047,397.7953901669971,397.9918407090008,397.9918407090008,398.0086505359941,399.692312832005,399.692312832005,399.6761923000013,,,,,,,,,,,,,,,,,,,,,,,,,,,,314033,001,2024-12-05_12h39.20.640,Test,2024.2.1,59.51477603258997,2024-12-05 12h39.41.105274 +0100,
7,150,30,44,None,6,6,0,,,,,,,,,,,,,,,,0,6,6,6,,,,,399.692312832005,,,,,,,,,,,,,,,,,,,,,,,,,,,,,,,,,,,,,,,,,,,,,,,,,,,,,,,,,,399.6836858470051,399.7091573840007,399.89203048900526,399.89203048900526,399.9089304340014,401.59194453699456,401.59194453699456,401.5763284720015,,,,,,,,,,,,,,,,,,,,,,,,,,,,314033,001,2024-12-05_12h39.20.640,Test,2024.2.1,59.51477603258997,2024-12-05 12h39.41.105274 +0100,
10,150,30,65,None,7,7,0,,,,,,,,,,,,,,,,0,7,7,9,,,,,401.59194453699456,,,,,,,,,,,,,,,,,,,,,,,,,,,,,,,,,,,,,,,,,,,,,,,,,,,,,,,,,,401.58280622599705,401.59194453699456,401.7925576700072,401.7925576700072,401.7925576700072,403.4919867999997,403.4919867999997,403.4768432819983,,,,,,,,,,,,,,,,,,,,,,,,,,,,314033,001,2024-12-05_12h39.20.640,Test,2024.2.1,59.51477603258997,2024-12-05 12h39.41.105274 +0100,
27,150,150,37,None,8,8,0,,,,,,,,,,,,,,,,0,8,8,26,,,,,403.4919867999997,,,,,,,,,,,,,,,,,,,,,,,,,,,,,,,,,,,,,,,,,,,,,,,,,,,,,,,,,,403.48277516200324,403.4919867999997,403.6928289820062,403.6928289820062,403.6928289820062,405.39210198199726,405.39210198199726,405.37676388199907,,,,,,,,,,,,,,,,,,,,,,,,,,,,314033,001,2024-12-05_12h39.20.640,Test,2024.2.1,59.51477603258997,2024-12-05 12h39.41.105274 +0100,
28,150,150,19,None,9,9,0,,,,,,,,,,,,,,,,0,9,9,27,,,,,405.39210198199726,,,,,,,,,,,,,,,,,,,,,,,,,,,,,,,,,,,,,,,,,,,,,,,,,,,,,,,,,,405.38225767300173,405.39210198199726,405.59276235100697,405.59276235100697,405.59276235100697,407.2929311180051,407.2929311180051,407.27665122499457,,,,,,,,,,,,,,,,,,,,,,,,,,,,314033,001,2024-12-05_12h39.20.640,Test,2024.2.1,59.51477603258997,2024-12-05 12h39.41.105274 +0100,
12,150,60,24,None,10,10,0,,,,,,,,,,,,,,,,0,10,10,11,,,,,407.2929311180051,,,,,,,,,,,,,,,,,,,,,,,,,,,,,,,,,,,,,,,,,,,,,,,,,,,,,,,,,,407.28233377500146,407.2929311180051,407.49370684300084,407.49370684300084,407.49370684300084,409.1938599379937,409.1938599379937,409.1776295180025,,,,,,,,,,,,,,,,,,,,,,,,,,,,314033,001,2024-12-05_12h39.20.640,Test,2024.2.1,59.51477603258997,2024-12-05 12h39.41.105274 +0100,
15,150,60,1,None,11,11,0,,,,,,,,,,,,,,,,0,11,11,14,,,,,409.1938599379937,,,,,,,,,,,,,,,,,,,,,,,,,,,,,,,,,,,,,,,,,,,,,,,,,,,,,,,,,,409.1854976580071,409.1938599379937,409.39306452299934,409.39306452299934,409.39306452299934,411.092991041005,411.092991041005,411.07762896800705,,,,,,,,,,,,,,,,,,,,,,,,,,,,314033,001,2024-12-05_12h39.20.640,Test,2024.2.1,59.51477603258997,2024-12-05 12h39.41.105274 +0100,
2,150,0,6,None,12,12,0,,,,,,,,,,,,,,,,0,12,12,1,,,,,411.092991041005,,,,,,,,,,,,,,,,,,,,,,,,,,,,,,,,,,,,,,,,,,,,,,,,,,,,,,,,,,411.0843401780003,411.092991041005,411.2928293779987,411.2928293779987,411.2928293779987,412.9926151499967,412.9926151499967,412.97691606399894,,,,,,,,,,,,,,,,,,,,,,,,,,,,314033,001,2024-12-05_12h39.20.640,Test,2024.2.1,59.51477603258997,2024-12-05 12h39.41.105274 +0100,
17,150,90,21,None,13,13,0,,,,,,,,,,,,,,,,0,13,13,16,,,,,412.9926151499967,,,,,,,,,,,,,,,,,,,,,,,,,,,,,,,,,,,,,,,,,,,,,,,,,,,,,,,,,,412.9827163339942,412.9926151499967,413.19310881299316,413.19310881299316,413.19310881299316,414.89933510399715,414.89933510399715,414.878530987,,,,,,,,,,,,,,,,,,,,,,,,,,,,314033,001,2024-12-05_12h39.20.640,Test,2024.2.1,59.51477603258997,2024-12-05 12h39.41.105274 +0100,
9,150,30,62,None,14,14,0,,,,,,,,,,,,,,,,0,14,14,8,,,,,414.89933510399715,,,,,,,,,,,,,,,,,,,,,,,,,,,,,,,,,,,,,,,,,,,,,,,,,,,,,,,,,,414.8910206319997,414.89933510399715,415.0937827960006,415.0937827960006,415.1107012519933,416.79937829899427,416.79937829899427,416.7797528020019,,,,,,,,,,,,,,,,,,,,,,,,,,,,314033,001,2024-12-05_12h39.20.640,Test,2024.2.1,59.51477603258997,2024-12-05 12h39.41.105274 +0100,
13,150,60,4,None,15,15,0,,,,,,,,,,,,,,,,0,15,15,12,,,,,416.79937829899427,,,,,,,,,,,,,,,,,,,,,,,,,,,,,,,,,,,,,,,,,,,,,,,,,,,,,,,,,,416.79212788799487,416.79937829899427,417.0187506390066,417.0187506390066,417.0187506390066,,,418.6934225169971,,,,,,,,,,,,,,,,,,,,,,,,,,,,314033,001,2024-12-05_12h39.20.640,Test,2024.2.1,59.51477603258997,2024-12-05 12h39.41.105274 +0100,
30,150,150,70,None,16,16,0,,,,,,,,,,,,,,,,0,16,16,29,,,,,418.70996201199887,,,,,,,,,,,,,,,,,,,,,,,,,,,,,,,,,,,,,,,,,,,,,,,,,,,,,,,,,,418.6989296630054,418.70996201199887,418.8933845720021,418.8933845720021,418.9100556070043,420.5929613490007,420.5929613490007,420.57812365899736,,,,,,,,,,,,,,,,,,,,,,,,,,,,314033,001,2024-12-05_12h39.20.640,Test,2024.2.1,59.51477603258997,2024-12-05 12h39.41.105274 +0100,
19,150,90,39,None,17,17,0,,,,,,,,,,,,,,,,0,17,17,18,,,,,420.5929613490007,,,,,,,,,,,,,,,,,,,,,,,,,,,,,,,,,,,,,,,,,,,,,,,,,,,,,,,,,,420.58372062499984,420.5929613490007,420.7940130689967,420.7940130689967,420.7940130689967,422.49410625899327,422.49410625899327,422.47853223500715,,,,,,,,,,,,,,,,,,,,,,,,,,,,314033,001,2024-12-05_12h39.20.640,Test,2024.2.1,59.51477603258997,2024-12-05 12h39.41.105274 +0100,
35,150,180,40,None,18,18,0,,,,,,,,,,,,,,,,0,18,18,34,,,,,422.49410625899327,,,,,,,,,,,,,,,,,,,,,,,,,,,,,,,,,,,,,,,,,,,,,,,,,,,,,,,,,,422.4853471679962,422.49410625899327,422.69364378700266,422.69364378700266,422.69364378700266,424.3968820650043,424.3968820650043,424.37912608000624,,,,,,,,,,,,,,,,,,,,,,,,,,,,314033,001,2024-12-05_12h39.20.640,Test,2024.2.1,59.51477603258997,2024-12-05 12h39.41.105274 +0100,
4,150,0,18,None,19,19,0,,,,,,,,,,,,,,,,0,19,19,3,,,,,424.3968820650043,,,,,,,,,,,,,,,,,,,,,,,,,,,,,,,,,,,,,,,,,,,,,,,,,,,,,,,,,,424.3886278590071,424.3968820650043,424.5946476819954,424.5946476819954,424.6104922420054,426.2946395850013,426.2946395850013,426.2781963370071,,,,,,,,,,,,,,,,,,,,,,,,,,,,314033,001,2024-12-05_12h39.20.640,Test,2024.2.1,59.51477603258997,2024-12-05 12h39.41.105274 +0100,
11,150,60,63,None,20,20,0,,,,,,,,,,,,,,,,0,20,20,10,,,,,426.2946395850013,,,,,,,,,,,,,,,,,,,,,,,,,,,,,,,,,,,,,,,,,,,,,,,,,,,,,,,,,,426.28576220599643,426.2946395850013,426.49430363099964,426.49430363099964,426.49430363099964,428.2095886689931,428.2095886689931,428.17931027599843,,,,,,,,,,,,,,,,,,,,,,,,,,,,314033,001,2024-12-05_12h39.20.640,Test,2024.2.1,59.51477603258997,2024-12-05 12h39.41.105274 +0100,
20,150,90,68,None,21,21,0,,,,,,,,,,,,,,,,0,21,21,19,,,,,428.2095886689931,,,,,,,,,,,,,,,,,,,,,,,,,,,,,,,,,,,,,,,,,,,,,,,,,,,,,,,,,,428.1873764250049,428.2095886689931,428.3939915509982,428.3939915509982,428.4106065789965,430.09427666400734,430.09427666400734,430.0782937720069,,,,,,,,,,,,,,,,,,,,,,,,,,,,314033,001,2024-12-05_12h39.20.640,Test,2024.2.1,59.51477603258997,2024-12-05 12h39.41.105274 +0100,
32,150,180,42,None,22,22,0,,,,,,,,,,,,,,,,0,22,22,31,,,,,430.09427666400734,,,,,,,,,,,,,,,,,,,,,,,,,,,,,,,,,,,,,,,,,,,,,,,,,,,,,,,,,,430.0853951110039,430.09427666400734,430.29423622800095,430.29423622800095,430.29423622800095,431.9938470759953,431.9938470759953,431.9786434359994,,,,,,,,,,,,,,,,,,,,,,,,,,,,314033,001,2024-12-05_12h39.20.640,Test,2024.2.1,59.51477603258997,2024-12-05 12h39.41.105274 +0100,
6,150,30,51,None,23,23,0,,,,,,,,,,,,,,,,0,23,23,5,,,,,431.9938470759953,,,,,,,,,,,,,,,,,,,,,,,,,,,,,,,,,,,,,,,,,,,,,,,,,,,,,,,,,,431.9841071550036,431.9938470759953,432.1944194959942,432.1944194959942,432.1944194959942,433.89399703200615,433.89399703200615,433.8791140969988,,,,,,,,,,,,,,,,,,,,,,,,,,,,314033,001,2024-12-05_12h39.20.640,Test,2024.2.1,59.51477603258997,2024-12-05 12h39.41.105274 +0100,
26,150,150,57,None,24,24,0,,,,,,,,,,,,,,,,0,24,24,25,,,,,433.89399703200615,,,,,,,,,,,,,,,,,,,,,,,,,,,,,,,,,,,,,,,,,,,,,,,,,,,,,,,,,,433.88414669000485,433.89399703200615,434.0949152009998,434.0949152009998,434.0949152009998,435.7945349270012,435.7945349270012,435.77897651999956,,,,,,,,,,,,,,,,,,,,,,,,,,,,314033,001,2024-12-05_12h39.20.640,Test,2024.2.1,59.51477603258997,2024-12-05 12h39.41.105274 +0100,
25,150,120,47,None,25,25,0,,,,,,,,,,,,,,,,0,25,25,24,,,,,435.7945349270012,,,,,,,,,,,,,,,,,,,,,,,,,,,,,,,,,,,,,,,,,,,,,,,,,,,,,,,,,,435.78563741699327,435.7945349270012,435.9946707899944,435.9946707899944,435.9946707899944,437.69420406800054,437.69420406800054,437.67840958500165,,,,,,,,,,,,,,,,,,,,,,,,,,,,314033,001,2024-12-05_12h39.20.640,Test,2024.2.1,59.51477603258997,2024-12-05 12h39.41.105274 +0100,
34,150,180,52,None,26,26,0,,,,,,,,,,,,,,,,0,26,26,33,,,,,437.69420406800054,,,,,,,,,,,,,,,,,,,,,,,,,,,,,,,,,,,,,,,,,,,,,,,,,,,,,,,,,,437.68488629300555,437.69420406800054,437.89472770600696,437.89472770600696,437.89472770600696,439.59447539299435,439.59447539299435,439.5788218230009,,,,,,,,,,,,,,,,,,,,,,,,,,,,314033,001,2024-12-05_12h39.20.640,Test,2024.2.1,59.51477603258997,2024-12-05 12h39.41.105274 +0100,
31,150,180,31,None,27,27,0,,,,,,,,,,,,,,,,0,27,27,30,,,,,439.59447539299435,,,,,,,,,,,,,,,,,,,,,,,,,,,,,,,,,,,,,,,,,,,,,,,,,,,,,,,,,,439.5843797419948,439.59447539299435,439.795137299996,439.795137299996,439.795137299996,441.4946564480051,441.4946564480051,441.4790472169989,,,,,,,,,,,,,,,,,,,,,,,,,,,,314033,001,2024-12-05_12h39.20.640,Test,2024.2.1,59.51477603258997,2024-12-05 12h39.41.105274 +0100,
21,150,120,45,None,28,28,0,,,,,,,,,,,,,,,,0,28,28,20,,,,,441.4946564480051,,,,,,,,,,,,,,,,,,,,,,,,,,,,,,,,,,,,,,,,,,,,,,,,,,,,,,,,,,441.4845492650056,441.4946564480051,441.69535549299326,441.69535549299326,441.69535549299326,443.39504771000065,443.39504771000065,443.37960600000224,,,,,,,,,,,,,,,,,,,,,,,,,,,,314033,001,2024-12-05_12h39.20.640,Test,2024.2.1,59.51477603258997,2024-12-05 12h39.41.105274 +0100,
8,150,30,23,None,29,29,0,,,,,,,,,,,,,,,,0,29,29,7,,,,,443.39504771000065,,,,,,,,,,,,,,,,,,,,,,,,,,,,,,,,,,,,,,,,,,,,,,,,,,,,,,,,,,443.38636633999704,443.39504771000065,443.5952290080022,443.5952290080022,443.5952290080022,445.29510584200034,445.29510584200034,445.2793921840057,,,,,,,,,,,,,,,,,,,,,,,,,,,,314033,001,2024-12-05_12h39.20.640,Test,2024.2.1,59.51477603258997,2024-12-05 12h39.41.105274 +0100,
5,150,0,10,None,30,30,0,,,,,,,,,,,,,,,,0,30,30,4,,,,,445.29510584200034,,,,,,,,,,,,,,,,,,,,,,,,,,,,,,,,,,,,,,,,,,,,,,,,,,,,,,,,,,445.28646762999415,445.29510584200034,445.4951565759984,445.4951565759984,445.4951565759984,447.19541529800335,447.19541529800335,447.1797864209948,,,,,,,,,,,,,,,,,,,,,,,,,,,,314033,001,2024-12-05_12h39.20.640,Test,2024.2.1,59.51477603258997,2024-12-05 12h39.41.105274 +0100,
1,150,0,66,None,31,31,0,,,,,,,,,,,,,,,,0,31,31,0,,,,,447.19541529800335,,,,,,,,,,,,,,,,,,,,,,,,,,,,,,,,,,,,,,,,,,,,,,,,,,,,,,,,,,447.185674716995,447.19541529800335,447.39568079900346,447.39568079900346,447.39568079900346,449.097571434002,449.097571434002,449.08021367600304,,,,,,,,,,,,,,,,,,,,,,,,,,,,314033,001,2024-12-05_12h39.20.640,Test,2024.2.1,59.51477603258997,2024-12-05 12h39.41.105274 +0100,
22,150,120,64,None,32,32,0,,,,,,,,,,,,,,,,0,32,32,21,,,,,449.097571434002,,,,,,,,,,,,,,,,,,,,,,,,,,,,,,,,,,,,,,,,,,,,,,,,,,,,,,,,,,449.0893791039998,449.097571434002,449.29642474600405,449.29642474600405,449.31338627499645,450.99551185900054,450.99551185900054,450.9799969720043,,,,,,,,,,,,,,,,,,,,,,,,,,,,314033,001,2024-12-05_12h39.20.640,Test,2024.2.1,59.51477603258997,2024-12-05 12h39.41.105274 +0100,
23,150,120,38,None,33,33,0,,,,,,,,,,,,,,,,0,33,33,22,,,,,450.99551185900054,,,,,,,,,,,,,,,,,,,,,,,,,,,,,,,,,,,,,,,,,,,,,,,,,,,,,,,,,,450.987406019005,450.99551185900054,451.1961118570034,451.1961118570034,451.1961118570034,452.8954855810007,452.8954855810007,452.8797904920066,,,,,,,,,,,,,,,,,,,,,,,,,,,,314033,001,2024-12-05_12h39.20.640,Test,2024.2.1,59.51477603258997,2024-12-05 12h39.41.105274 +0100,
3,150,0,50,None,34,34,0,,,,,,,,,,,,,,,,0,34,34,2,,,,,452.8954855810007,,,,,,,,,,,,,,,,,,,,,,,,,,,,,,,,,,,,,,,,,,,,,,,,,,,,,,,,,,452.88520908600185,452.8954855810007,453.0954593320057,453.0954593320057,453.0954593320057,454.7959376689978,454.7959376689978,454.7803935020056,,,,,,,,,,,,,,,,,,,,,,,,,,,,314033,001,2024-12-05_12h39.20.640,Test,2024.2.1,59.51477603258997,2024-12-05 12h39.41.105274 +0100,
,,,,,,,,,,,,,,,,,,,,,,,,,,,,,,,,,,,,,,,,,,,,,,,,,,,,,,,,,,,,,,,,,,,,,,,,,,,,,,,,,,,,,,,,,,,,,,,,,454.7805687539949,454.7959376689978,454.7959376689978,458.49748826499854,space,3.692188843997428,None,,,,,,,,,,,,,,,,,,,,,314033,001,2024-12-05_12h39.20.640,Test,2024.2.1,59.51477603258997,2024-12-05 12h39.41.105274 +0100,
3,150,0,50,None,0,0,0,False,,,,left,1.4108905600005528,None,,,,,,,,,,,,,0,0,0,0,458.51987662199826,,,,,,,,,,,,,,,,,,,,,,,,,,,,,,,,,,,,,,,,,,,,,,,,,,,,,,,,,,,,,,,,,,,,,,,,,458.5111464149959,458.51987662199826,459.5295573850017,460.51287234100164,460.51287234100164,460.51287234100164,461.93096883599355,left,1.4108905600005528,None,,,,,,,,,,,314033,001,2024-12-05_12h39.20.640,Test,2024.2.1,59.51477603258997,2024-12-05 12h39.41.105274 +0100,
26,150,150,57,None,1,1,0,False,,,,left,0.9014082879875787,None,,,,,,,,,,,,,0,1,1,1,461.946123436006,,,,,,,,,,,,,,,,,,,,,,,,,,,,,,,,,,,,,,,,,,,,,,,,,,,,,,,,,,,,,,,,,,,,,,,,,461.934447120002,461.946123436006,462.9463215559954,463.92984341600095,463.92984341600095,463.92984341600095,464.8478214180068,left,0.9014082879875787,None,,,,,,,,,,,314033,001,2024-12-05_12h39.20.640,Test,2024.2.1,59.51477603258997,2024-12-05 12h39.41.105274 +0100,
7,150,30,44,None,2,2,0,False,,,,right,0.652599573993939,None,,,,,,,,,,,,,0,2,2,2,464.8634412980027,,,,,,,,,,,,,,,,,,,,,,,,,,,,,,,,,,,,,,,,,,,,,,,,,,,,,,,,,,,,,,,,,,,,,,,,,464.8513970960048,464.8634412980027,465.8632472890022,466.84669917600695,466.84669917600695,466.84669917600695,467.51592553600494,right,0.652599573993939,None,,,,,,,,,,,314033,001,2024-12-05_12h39.20.640,Test,2024.2.1,59.51477603258997,2024-12-05 12h39.41.105274 +0100,
47,150,60,35,None,3,3,0,True,,,,right,1.267002043008688,None,,,,,,,,,,,,,0,3,3,3,467.53212693899695,,,,,,,,,,,,,,,,,,,,,,,,,,,,,,,,,,,,,,,,,,,,,,,,,,,,,,,,,,,,,,,,,,,,,,,,,467.5233004430047,467.53212693899695,468.5469189519936,469.53070666399435,469.53070666399435,469.53070666399435,470.8155673940055,right,1.267002043008688,None,,,,,,,,,,,314033,001,2024-12-05_12h39.20.640,Test,2024.2.1,59.51477603258997,2024-12-05 12h39.41.105274 +0100,
6,150,30,51,None,4,4,0,False,,,,left,1.492078399998718,None,,,,,,,,,,,,,0,4,4,4,470.83141249899927,,,,,,,,,,,,,,,,,,,,,,,,,,,,,,,,,,,,,,,,,,,,,,,,,,,,,,,,,,,,,,,,,,,,,,,,,470.82153877199744,470.83141249899927,471.83030802500434,472.81369824499416,472.81369824499416,472.81369824499416,474.3157485739939,left,1.492078399998718,None,,,,,,,,,,,314033,001,2024-12-05_12h39.20.640,Test,2024.2.1,59.51477603258997,2024-12-05 12h39.41.105274 +0100,
35,150,180,40,None,5,5,0,False,,,,left,0.984276206989307,None,,,,,,,,,,,,,0,5,5,5,474.3323522260034,,,,,,,,,,,,,,,,,,,,,,,,,,,,,,,,,,,,,,,,,,,,,,,,,,,,,,,,,,,,,,,,,,,,,,,,,474.3236109779973,474.3323522260034,475.34741847999976,476.33079468499636,476.33079468499636,476.33079468499636,477.3318103969941,left,0.984276206989307,None,,,,,,,,,,,314033,001,2024-12-05_12h39.20.640,Test,2024.2.1,59.51477603258997,2024-12-05 12h39.41.105274 +0100,
18,150,90,53,None,6,6,0,False,,,,right,0.7322294329933356,None,,,,,,,,,,,,,0,6,6,6,477.3469645550067,,,,,,,,,,,,,,,,,,,,,,,,,,,,,,,,,,,,,,,,,,,,,,,,,,,,,,,,,,,,,,,,,,,,,,,,,477.3379258149944,477.3469645550067,478.348587793007,479.33148355300364,479.33148355300364,479.33148355300364,480.06665362400236,right,0.7322294329933356,None,,,,,,,,,,,314033,001,2024-12-05_12h39.20.640,Test,2024.2.1,59.51477603258997,2024-12-05 12h39.41.105274 +0100,
58,150,120,30,None,7,7,0,True,,,,left,0.8268021950061666,None,,,,,,,,,,,,,0,7,7,7,480.08270200999686,,,,,,,,,,,,,,,,,,,,,,,,,,,,,,,,,,,,,,,,,,,,,,,,,,,,,,,,,,,,,,,,,,,,,,,,,480.074031680997,480.08270200999686,481.08192934999533,482.08129556100175,482.08129556100175,482.08129556100175,482.91608384699794,left,0.8268021950061666,None,,,,,,,,,,,314033,001,2024-12-05_12h39.20.640,Test,2024.2.1,59.51477603258997,2024-12-05 12h39.41.105274 +0100,
53,150,90,3,None,8,8,0,True,,,,right,1.5152005050040316,None,,,,,,,,,,,,,0,8,8,8,482.93227346900676,,,,,,,,,,,,,,,,,,,,,,,,,,,,,,,,,,,,,,,,,,,,,,,,,,,,,,,,,,,,,,,,,,,,,,,,,482.923641966001,482.93227346900676,483.93221870300476,484.9317358660046,484.9317358660046,484.9317358660046,486.4504094550066,right,1.5152005050040316,None,,,,,,,,,,,314033,001,2024-12-05_12h39.20.640,Test,2024.2.1,59.51477603258997,2024-12-05 12h39.41.105274 +0100,
13,150,60,4,None,9,9,0,False,,,,left,0.9756049130082829,None,,,,,,,,,,,,,0,9,9,9,486.46577891599736,,,,,,,,,,,,,,,,,,,,,,,,,,,,,,,,,,,,,,,,,,,,,,,,,,,,,,,,,,,,,,,,,,,,,,,,,486.45702975199674,486.46577891599736,487.465267424006,488.4654454559932,488.4654454559932,488.4654454559932,489.4502902219974,left,0.9756049130082829,None,,,,,,,,,,,314033,001,2024-12-05_12h39.20.640,Test,2024.2.1,59.51477603258997,2024-12-05 12h39.41.105274 +0100,
66,150,180,27,None,10,10,0,True,,,,right,1.4063272159983171,None,,,,,,,,,,,,,0,10,10,10,489.4652027819975,,,,,,,,,,,,,,,,,,,,,,,,,,,,,,,,,,,,,,,,,,,,,,,,,,,,,,,,,,,,,,,,,,,,,,,,,489.4563302290044,489.4652027819975,490.4662318680057,491.46503557900724,491.46503557900724,491.46503557900724,492.88416577799944,right,1.4063272159983171,None,,,,,,,,,,,314033,001,2024-12-05_12h39.20.640,Test,2024.2.1,59.51477603258997,2024-12-05 12h39.41.105274 +0100,
57,150,120,14,None,11,11,0,True,,,,left,0.8009930400003213,None,,,,,,,,,,,,,0,11,11,11,492.8999938110064,,,,,,,,,,,,,,,,,,,,,,,,,,,,,,,,,,,,,,,,,,,,,,,,,,,,,,,,,,,,,,,,,,,,,,,,,492.8910482270003,492.8999938110064,493.91516682000656,494.8992401269934,494.8992401269934,494.8992401269934,495.7173644019931,left,0.8009930400003213,None,,,,,,,,,,,314033,001,2024-12-05_12h39.20.640,Test,2024.2.1,59.51477603258997,2024-12-05 12h39.41.105274 +0100,
32,150,180,42,None,12,12,0,False,,,,right,0.963724839995848,None,,,,,,,,,,,,,0,12,12,12,495.73270227799367,,,,,,,,,,,,,,,,,,,,,,,,,,,,,,,,,,,,,,,,,,,,,,,,,,,,,,,,,,,,,,,,,,,,,,,,,495.724174286006,495.73270227799367,496.7321016700007,497.73281564300123,497.73281564300123,497.73281564300123,498.7009309529967,right,0.963724839995848,None,,,,,,,,,,,314033,001,2024-12-05_12h39.20.640,Test,2024.2.1,59.51477603258997,2024-12-05 12h39.41.105274 +0100,
20,150,90,68,None,13,13,0,False,,,,right,0.9465192889911123,None,,,,,,,,,,,,,0,13,13,13,498.716201282994,,,,,,,,,,,,,,,,,,,,,,,,,,,,,,,,,,,,,,,,,,,,,,,,,,,,,,,,,,,,,,,,,,,,,,,,,498.70747347299766,498.716201282994,499.71564508299343,500.70005360200594,500.70005360200594,500.70005360200594,501.6514401799941,right,0.9465192889911123,None,,,,,,,,,,,314033,001,2024-12-05_12h39.20.640,Test,2024.2.1,59.51477603258997,2024-12-05 12h39.41.105274 +0100,
10,150,30,65,None,14,14,0,False,,,,right,0.7860999519907637,None,,,,,,,,,,,,,0,14,14,14,501.66682650400617,,,,,,,,,,,,,,,,,,,,,,,,,,,,,,,,,,,,,,,,,,,,,,,,,,,,,,,,,,,,,,,,,,,,,,,,,501.6575056629954,501.66682650400617,502.66682046599453,503.6663726770057,503.6663726770057,503.6663726770057,504.4682008020027,right,0.7860999519907637,None,,,,,,,,,,,314033,001,2024-12-05_12h39.20.640,Test,2024.2.1,59.51477603258997,2024-12-05 12h39.41.105274 +0100,
38,150,0,12,None,15,15,0,True,,,,left,0.9103225020080572,None,,,,,,,,,,,,,0,15,15,15,504.48300207199645,,,,,,,,,,,,,,,,,,,,,,,,,,,,,,,,,,,,,,,,,,,,,,,,,,,,,,,,,,,,,,,,,,,,,,,,,504.4740870539972,504.48300207199645,505.48269741699914,506.4832328409975,506.4832328409975,506.4832328409975,507.4010178390017,left,0.9103225020080572,None,,,,,,,,,,,314033,001,2024-12-05_12h39.20.640,Test,2024.2.1,59.51477603258997,2024-12-05 12h39.41.105274 +0100,
50,150,60,22,None,16,16,0,True,,,,left,1.651648810991901,None,,,,,,,,,,,,,0,16,16,16,507.41682963600033,,,,,,,,,,,,,,,,,,,,,,,,,,,,,,,,,,,,,,,,,,,,,,,,,,,,,,,,,,,,,,,,,,,,,,,,,507.4078492800036,507.41682963600033,508.41642324000713,509.41624802899605,509.41624802899605,509.41624802899605,511.084032838,left,1.651648810991901,None,,,,,,,,,,,314033,001,2024-12-05_12h39.20.640,Test,2024.2.1,59.51477603258997,2024-12-05 12h39.41.105274 +0100,
36,150,0,7,None,17,17,0,True,,,,left,1.8249877380003454,None,,,,,,,,,,,,,0,17,17,17,511.0992746700067,,,,,,,,,,,,,,,,,,,,,,,,,,,,,,,,,,,,,,,,,,,,,,,,,,,,,,,,,,,,,,,,,,,,,,,,,511.090743793,511.0992746700067,512.1009617230011,513.083229625001,513.083229625001,513.083229625001,514.9189903030056,left,1.8249877380003454,None,,,,,,,,,,,314033,001,2024-12-05_12h39.20.640,Test,2024.2.1,59.51477603258997,2024-12-05 12h39.41.105274 +0100,
49,150,60,11,None,18,18,0,True,,,,right,1.008962262989371,None,,,,,,,,,,,,,0,18,18,18,514.9356065549946,,,,,,,,,,,,,,,,,,,,,,,,,,,,,,,,,,,,,,,,,,,,,,,,,,,,,,,,,,,,,,,,,,,,,,,,,514.925942130998,514.9356065549946,515.9511188509932,516.933841140999,516.933841140999,516.933841140999,517.9514879130002,right,1.008962262989371,None,,,,,,,,,,,314033,001,2024-12-05_12h39.20.640,Test,2024.2.1,59.51477603258997,2024-12-05 12h39.41.105274 +0100,
44,150,30,61,None,19,19,0,True,,,,left,1.0185654789966065,None,,,,,,,,,,,,,0,19,19,19,517.9678317759972,,,,,,,,,,,,,,,,,,,,,,,,,,,,,,,,,,,,,,,,,,,,,,,,,,,,,,,,,,,,,,,,,,,,,,,,,517.9578199910029,517.9678317759972,518.9670483230002,519.9508124629938,519.9508124629938,519.9508124629938,520.9844459010055,left,1.0185654789966065,None,,,,,,,,,,,314033,001,2024-12-05_12h39.20.640,Test,2024.2.1,59.51477603258997,2024-12-05 12h39.41.105274 +0100,
25,150,120,47,None,20,20,0,False,,,,left,1.0512948279938428,None,,,,,,,,,,,,,0,20,20,20,521.0000385559979,,,,,,,,,,,,,,,,,,,,,,,,,,,,,,,,,,,,,,,,,,,,,,,,,,,,,,,,,,,,,,,,,,,,,,,,,520.9895849610039,521.0000385559979,522.0005619459989,522.9843719710043,522.9843719710043,522.9843719710043,524.052238557997,left,1.0512948279938428,None,,,,,,,,,,,314033,001,2024-12-05_12h39.20.640,Test,2024.2.1,59.51477603258997,2024-12-05 12h39.41.105274 +0100,
43,150,30,69,None,21,21,0,True,,,,right,2.001335218999884,None,,,,,,,,,,,,,0,21,21,21,524.067100226006,,,,,,,,,,,,,,,,,,,,,,,,,,,,,,,,,,,,,,,,,,,,,,,,,,,,,,,,,,,,,,,,,,,,,,,,,524.0574803670024,524.067100226006,525.0686526339996,526.0679978450062,526.0679978450062,526.0679978450062,528.0863087220059,right,2.001335218999884,None,,,,,,,,,,,314033,001,2024-12-05_12h39.20.640,Test,2024.2.1,59.51477603258997,2024-12-05 12h39.41.105274 +0100,
61,150,150,48,None,22,22,0,True,,,,left,2.5919584929943085,None,,,,,,,,,,,,,0,22,22,22,528.1020793670032,,,,,,,,,,,,,,,,,,,,,,,,,,,,,,,,,,,,,,,,,,,,,,,,,,,,,,,,,,,,,,,,,,,,,,,,,528.093417651995,528.1020793670032,529.1015964399994,530.1013644969935,530.1013644969935,530.1013644969935,532.7024735449959,left,2.5919584929943085,None,,,,,,,,,,,314033,001,2024-12-05_12h39.20.640,Test,2024.2.1,59.51477603258997,2024-12-05 12h39.41.105274 +0100,
70,150,180,55,None,23,23,0,True,,,,left,1.1704888340027537,None,,,,,,,,,,,,,0,23,23,23,532.7183722960035,,,,,,,,,,,,,,,,,,,,,,,,,,,,,,,,,,,,,,,,,,,,,,,,,,,,,,,,,,,,,,,,,,,,,,,,,532.709667639996,532.7183722960035,533.7179123759997,534.7016531609988,534.7016531609988,534.7016531609988,535.8868150560011,left,1.1704888340027537,None,,,,,,,,,,,314033,001,2024-12-05_12h39.20.640,Test,2024.2.1,59.51477603258997,2024-12-05 12h39.41.105274 +0100,
21,150,120,45,None,24,24,0,False,,,,right,0.9044543180061737,None,,,,,,,,,,,,,0,24,24,24,535.902601845999,,,,,,,,,,,,,,,,,,,,,,,,,,,,,,,,,,,,,,,,,,,,,,,,,,,,,,,,,,,,,,,,,,,,,,,,,535.8938411840063,535.902601845999,536.9183935379988,537.902952207005,537.902952207005,537.902952207005,538.8196109620039,right,0.9044543180061737,None,,,,,,,,,,,314033,001,2024-12-05_12h39.20.640,Test,2024.2.1,59.51477603258997,2024-12-05 12h39.41.105274 +0100,
34,150,180,52,None,25,25,0,False,,,,left,1.0578419499943266,None,,,,,,,,,,,,,0,25,25,25,538.834812725996,,,,,,,,,,,,,,,,,,,,,,,,,,,,,,,,,,,,,,,,,,,,,,,,,,,,,,,,,,,,,,,,,,,,,,,,,538.8249600080017,538.834812725996,539.8354402810073,540.818508234006,540.818508234006,540.818508234006,541.8870655339997,left,1.0578419499943266,None,,,,,,,,,,,314033,001,2024-12-05_12h39.20.640,Test,2024.2.1,59.51477603258997,2024-12-05 12h39.41.105274 +0100,
19,150,90,39,None,26,26,0,False,,,,right,0.7846440410066862,None,,,,,,,,,,,,,0,26,26,26,541.9025296990003,,,,,,,,,,,,,,,,,,,,,,,,,,,,,,,,,,,,,,,,,,,,,,,,,,,,,,,,,,,,,,,,,,,,,,,,,541.8928215750057,541.9025296990003,542.9021583499998,543.9023063000059,543.9023063000059,543.9023063000059,544.7044765659957,right,0.7846440410066862,None,,,,,,,,,,,314033,001,2024-12-05_12h39.20.640,Test,2024.2.1,59.51477603258997,2024-12-05 12h39.41.105274 +0100,
28,150,150,19,None,27,27,0,False,,,,left,1.0235077270044712,None,,,,,,,,,,,,,0,27,27,27,544.7187812899938,,,,,,,,,,,,,,,,,,,,,,,,,,,,,,,,,,,,,,,,,,,,,,,,,,,,,,,,,,,,,,,,,,,,,,,,,544.7095442360005,544.7187812899938,545.719093406995,546.7195989250031,546.7195989250031,546.7195989250031,547.7532813290018,left,1.0235077270044712,None,,,,,,,,,,,314033,001,2024-12-05_12h39.20.640,Test,2024.2.1,59.51477603258997,2024-12-05 12h39.41.105274 +0100,
5,150,0,10,None,28,28,0,False,,,,left,0.8850664389901794,None,,,,,,,,,,,,,0,28,28,28,547.7691429900005,,,,,,,,,,,,,,,,,,,,,,,,,,,,,,,,,,,,,,,,,,,,,,,,,,,,,,,,,,,,,,,,,,,,,,,,,547.760030667996,547.7691429900005,548.769367817993,549.7524986979988,549.7524986979988,549.7524986979988,550.6547542180051,left,0.8850664389901794,None,,,,,,,,,,,314033,001,2024-12-05_12h39.20.640,Test,2024.2.1,59.51477603258997,2024-12-05 12h39.41.105274 +0100,
62,150,150,8,None,29,29,0,True,,,,right,1.5121394010056974,None,,,,,,,,,,,,,0,29,29,29,550.6698234380019,,,,,,,,,,,,,,,,,,,,,,,,,,,,,,,,,,,,,,,,,,,,,,,,,,,,,,,,,,,,,,,,,,,,,,,,,550.6604633100069,550.6698234380019,551.6692702129949,552.6693063879939,552.6693063879939,552.6693063879939,554.1878690019948,right,1.5121394010056974,None,,,,,,,,,,,314033,001,2024-12-05_12h39.20.640,Test,2024.2.1,59.51477603258997,2024-12-05 12h39.41.105274 +0100,
9,150,30,62,None,30,30,0,False,,,,right,1.1392315850098385,None,,,,,,,,,,,,,0,30,30,30,554.2042502749973,,,,,,,,,,,,,,,,,,,,,,,,,,,,,,,,,,,,,,,,,,,,,,,,,,,,,,,,,,,,,,,,,,,,,,,,,554.1947559989931,554.2042502749973,555.2036090710026,556.2030056479998,556.2030056479998,556.2030056479998,557.3540674520045,right,1.1392315850098385,None,,,,,,,,,,,314033,001,2024-12-05_12h39.20.640,Test,2024.2.1,59.51477603258997,2024-12-05 12h39.41.105274 +0100,
33,150,180,34,None,31,31,0,False,,,,left,1.5493241700023646,None,,,,,,,,,,,,,0,31,31,31,557.3701213610038,,,,,,,,,,,,,,,,,,,,,,,,,,,,,,,,,,,,,,,,,,,,,,,,,,,,,,,,,,,,,,,,,,,,,,,,,557.360278868,557.3701213610038,558.3696239069977,559.3531095520011,559.3531095520011,559.3531095520011,560.906438703998,left,1.5493241700023646,None,,,,,,,,,,,314033,001,2024-12-05_12h39.20.640,Test,2024.2.1,59.51477603258997,2024-12-05 12h39.41.105274 +0100,
64,150,150,60,None,32,32,0,True,,,,left,1.5068413160042837,None,,,,,,,,,,,,,0,32,32,32,560.9213376450061,,,,,,,,,,,,,,,,,,,,,,,,,,,,,,,,,,,,,,,,,,,,,,,,,,,,,,,,,,,,,,,,,,,,,,,,,560.9120878609974,560.9213376450061,561.9200999839959,562.9200683270028,562.9200683270028,562.9200683270028,564.4385050550045,left,1.5068413160042837,None,,,,,,,,,,,314033,001,2024-12-05_12h39.20.640,Test,2024.2.1,59.51477603258997,2024-12-05 12h39.41.105274 +0100,
1,150,0,66,None,33,33,0,False,,,,left,1.0050662770081544,None,,,,,,,,,,,,,0,33,33,33,564.4550330920029,,,,,,,,,,,,,,,,,,,,,,,,,,,,,,,,,,,,,,,,,,,,,,,,,,,,,,,,,,,,,,,,,,,,,,,,,564.4457176930009,564.4550330920029,565.4544970599964,566.4538936419995,566.4538936419995,566.4538936419995,567.4716641139967,left,1.0050662770081544,None,,,,,,,,,,,314033,001,2024-12-05_12h39.20.640,Test,2024.2.1,59.51477603258997,2024-12-05 12h39.41.105274 +0100,
60,150,120,13,None,34,34,0,True,,,,right,2.0571366189979017,None,,,,,,,,,,,,,0,34,34,34,567.4871182770003,,,,,,,,,,,,,,,,,,,,,,,,,,,,,,,,,,,,,,,,,,,,,,,,,,,,,,,,,,,,,,,,,,,,,,,,,567.4774153949984,567.4871182770003,568.4874753180047,569.4706929179956,569.4706929179956,569.4706929179956,571.5393555280025,right,2.0571366189979017,None,,,,,,,,,,,314033,001,2024-12-05_12h39.20.640,Test,2024.2.1,59.51477603258997,2024-12-05 12h39.41.105274 +0100,
63,150,150,32,None,35,35,0,True,,,,left,1.124269963009283,None,,,,,,,,,,,,,0,35,35,35,571.5544113229989,,,,,,,,,,,,,,,,,,,,,,,,,,,,,,,,,,,,,,,,,,,,,,,,,,,,,,,,,,,,,,,,,,,,,,,,,571.5452051140019,571.5544113229989,572.554109343997,573.538321125001,573.538321125001,573.538321125001,574.6726969250012,left,1.124269963009283,None,,,,,,,,,,,314033,001,2024-12-05_12h39.20.640,Test,2024.2.1,59.51477603258997,2024-12-05 12h39.41.105274 +0100,
2,150,0,6,None,36,36,0,False,,,,right,1.7586992690048646,None,,,,,,,,,,,,,0,36,36,36,574.7027980980056,,,,,,,,,,,,,,,,,,,,,,,,,,,,,,,,,,,,,,,,,,,,,,,,,,,,,,,,,,,,,,,,,,,,,,,,,574.6801323779946,574.7027980980056,575.7048322860064,576.6876214770018,576.6876214770018,576.6876214770018,578.4556517290039,right,1.7586992690048646,None,,,,,,,,,,,314033,001,2024-12-05_12h39.20.640,Test,2024.2.1,59.51477603258997,2024-12-05 12h39.41.105274 +0100,
42,150,30,5,None,37,37,0,True,,,,left,0.7586533229914494,None,,,,,,,,,,,,,0,37,37,37,578.471349133004,,,,,,,,,,,,,,,,,,,,,,,,,,,,,,,,,,,,,,,,,,,,,,,,,,,,,,,,,,,,,,,,,,,,,,,,,578.4624072589941,578.471349133004,579.4723166570038,580.4544898549939,580.4544898549939,580.4544898549939,581.2222285119933,left,0.7586533229914494,None,,,,,,,,,,,314033,001,2024-12-05_12h39.20.640,Test,2024.2.1,59.51477603258997,2024-12-05 12h39.41.105274 +0100,
59,150,120,49,None,38,38,0,True,,,,right,0.8593514769891044,None,,,,,,,,,,,,,0,38,38,38,581.2384568340058,,,,,,,,,,,,,,,,,,,,,,,,,,,,,,,,,,,,,,,,,,,,,,,,,,,,,,,,,,,,,,,,,,,,,,,,,581.2297308569978,581.2384568340058,582.2382509000017,583.2218742599944,583.2218742599944,583.2218742599944,584.0916671799932,right,0.8593514769891044,None,,,,,,,,,,,314033,001,2024-12-05_12h39.20.640,Test,2024.2.1,59.51477603258997,2024-12-05 12h39.41.105274 +0100,
27,150,150,37,None,39,39,0,False,,,,left,0.8436335449951002,None,,,,,,,,,,,,,0,39,39,39,584.1063497129944,,,,,,,,,,,,,,,,,,,,,,,,,,,,,,,,,,,,,,,,,,,,,,,,,,,,,,,,,,,,,,,,,,,,,,,,,584.0976862759999,584.1063497129944,585.1256200880016,586.1051044060005,586.1051044060005,586.1051044060005,586.9569221840065,left,0.8436335449951002,None,,,,,,,,,,,314033,001,2024-12-05_12h39.20.640,Test,2024.2.1,59.51477603258997,2024-12-05 12h39.41.105274 +0100,
30,150,150,70,None,40,40,0,False,,,,left,1.3613058299961267,None,,,,,,,,,,,,,0,40,40,40,586.9724075929989,,,,,,,,,,,,,,,,,,,,,,,,,,,,,,,,,,,,,,,,,,,,,,,,,,,,,,,,,,,,,,,,,,,,,,,,,586.9623608529946,586.9724075929989,587.9723995959939,588.9722498659976,588.9722498659976,588.9722498659976,590.3405166940065,left,1.3613058299961267,None,,,,,,,,,,,314033,001,2024-12-05_12h39.20.640,Test,2024.2.1,59.51477603258997,2024-12-05 12h39.41.105274 +0100,
48,150,60,41,None,41,41,0,True,,,,left,1.3627335740020499,None,,,,,,,,,,,,,0,41,41,41,590.3566401720018,,,,,,,,,,,,,,,,,,,,,,,,,,,,,,,,,,,,,,,,,,,,,,,,,,,,,,,,,,,,,,,,,,,,,,,,,590.347599671004,590.3566401720018,591.371482247996,592.3398105619999,592.3398105619999,592.3398105619999,593.7074350119947,left,1.3627335740020499,None,,,,,,,,,,,314033,001,2024-12-05_12h39.20.640,Test,2024.2.1,59.51477603258997,2024-12-05 12h39.41.105274 +0100,
39,150,0,17,None,42,42,0,True,,,,right,0.9520398119930178,None,,,,,,,,,,,,,0,42,42,42,593.7220431659953,,,,,,,,,,,,,,,,,,,,,,,,,,,,,,,,,,,,,,,,,,,,,,,,,,,,,,,,,,,,,,,,,,,,,,,,,593.7122863870027,593.7220431659953,594.7218939589948,595.7225117710041,595.7225117710041,595.7225117710041,596.6778026029933,right,0.9520398119930178,None,,,,,,,,,,,314033,001,2024-12-05_12h39.20.640,Test,2024.2.1,59.51477603258997,2024-12-05 12h39.41.105274 +0100,
67,150,180,67,None,43,43,0,True,,,,left,0.8346175449987641,None,,,,,,,,,,,,,0,43,43,43,596.693768875004,,,,,,,,,,,,,,,,,,,,,,,,,,,,,,,,,,,,,,,,,,,,,,,,,,,,,,,,,,,,,,,,,,,,,,,,,596.6862055730016,596.693768875004,597.7064396100031,598.6890765840071,598.6890765840071,598.6890765840071,599.540718668999,left,0.8346175449987641,None,,,,,,,,,,,314033,001,2024-12-05_12h39.20.640,Test,2024.2.1,59.51477603258997,2024-12-05 12h39.41.105274 +0100,
11,150,60,63,None,44,44,0,False,,,,left,1.4035223329992732,None,,,,,,,,,,,,,0,44,44,44,599.5558211809985,,,,,,,,,,,,,,,,,,,,,,,,,,,,,,,,,,,,,,,,,,,,,,,,,,,,,,,,,,,,,,,,,,,,,,,,,599.5472432399984,599.5558211809985,600.5569032969943,601.5562548379967,601.5562548379967,601.5562548379967,602.9741342360066,left,1.4035223329992732,None,,,,,,,,,,,314033,001,2024-12-05_12h39.20.640,Test,2024.2.1,59.51477603258997,2024-12-05 12h39.41.105274 +0100,
14,150,60,15,None,45,45,0,False,,,,left,1.4954774169891607,None,,,,,,,,,,,,,0,45,45,45,602.9892107070045,,,,,,,,,,,,,,,,,,,,,,,,,,,,,,,,,,,,,,,,,,,,,,,,,,,,,,,,,,,,,,,,,,,,,,,,,602.9796427060064,602.9892107070045,603.9906961439992,604.9728520899953,604.9728520899953,604.9728520899953,606.4767448450002,left,1.4954774169891607,None,,,,,,,,,,,314033,001,2024-12-05_12h39.20.640,Test,2024.2.1,59.51477603258997,2024-12-05 12h39.41.105274 +0100,
8,150,30,23,None,46,46,0,False,,,,left,1.6496984210098162,None,,,,,,,,,,,,,0,46,46,46,606.4938771129964,,,,,,,,,,,,,,,,,,,,,,,,,,,,,,,,,,,,,,,,,,,,,,,,,,,,,,,,,,,,,,,,,,,,,,,,,606.4850212790043,606.4938771129964,607.5065652280027,608.4898219500028,608.4898219500028,608.4898219500028,610.142572694007,left,1.6496984210098162,None,,,,,,,,,,,314033,001,2024-12-05_12h39.20.640,Test,2024.2.1,59.51477603258997,2024-12-05 12h39.41.105274 +0100,
55,150,90,26,None,47,47,0,True,,,,right,3.2427134250028757,None,,,,,,,,,,,,,0,47,47,47,610.1594374989945,,,,,,,,,,,,,,,,,,,,,,,,,,,,,,,,,,,,,,,,,,,,,,,,,,,,,,,,,,,,,,,,,,,,,,,,,610.1501304929989,610.1594374989945,611.1735602370027,612.15720745,612.15720745,612.15720745,615.4086299990013,right,3.2427134250028757,None,615.1571344770055,615.1571344770055,615.1571344770055,,,,,,,,314033,001,2024-12-05_12h39.20.640,Test,2024.2.1,59.51477603258997,2024-12-05 12h39.41.105274 +0100,
23,150,120,38,None,48,48,0,False,,,,right,1.812935549998656,None,,,,,,,,,,,,,0,48,48,48,615.4238333620015,,,,,,,,,,,,,,,,,,,,,,,,,,,,,,,,,,,,,,,,,,,,,,,,,,,,,,,,,,,,,,,,,,,,,,,,,615.4141737970058,615.4238333620015,616.4237527520017,617.4079905289982,617.4079905289982,617.4079905289982,619.2258703929983,right,1.812935549998656,None,,,,,,,,,,,314033,001,2024-12-05_12h39.20.640,Test,2024.2.1,59.51477603258997,2024-12-05 12h39.41.105274 +0100,
51,150,90,9,None,49,49,0,True,,,,left,0.8212561760010431,None,,,,,,,,,,,,,0,49,49,49,619.2415438720054,,,,,,,,,,,,,,,,,,,,,,,,,,,,,,,,,,,,,,,,,,,,,,,,,,,,,,,,,,,,,,,,,,,,,,,,,619.231724420999,619.2415438720054,620.2414447909978,621.2410574050009,621.2410574050009,621.2410574050009,622.0759588159999,left,0.8212561760010431,None,,,,,,,,,,,314033,001,2024-12-05_12h39.20.640,Test,2024.2.1,59.51477603258997,2024-12-05 12h39.41.105274 +0100,
68,150,180,28,None,50,50,0,True,,,,left,1.2894541730056517,None,,,,,,,,,,,,,0,50,50,50,622.0926304729946,,,,,,,,,,,,,,,,,,,,,,,,,,,,,,,,,,,,,,,,,,,,,,,,,,,,,,,,,,,,,,,,,,,,,,,,,622.0835259860032,622.0926304729946,623.1078560780006,624.0750805230055,624.0750805230055,624.0750805230055,625.3758921809931,left,1.2894541730056517,None,,,,,,,,,,,314033,001,2024-12-05_12h39.20.640,Test,2024.2.1,59.51477603258997,2024-12-05 12h39.41.105274 +0100,
52,150,90,43,None,51,51,0,True,,,,left,0.8402305459894706,None,,,,,,,,,,,,,0,51,51,51,625.3912363389973,,,,,,,,,,,,,,,,,,,,,,,,,,,,,,,,,,,,,,,,,,,,,,,,,,,,,,,,,,,,,,,,,,,,,,,,,625.3823575449933,625.3912363389973,626.3911898560036,627.3912003500009,627.3912003500009,627.3912003500009,628.2433649330051,left,0.8402305459894706,None,,,,,,,,,,,314033,001,2024-12-05_12h39.20.640,Test,2024.2.1,59.51477603258997,2024-12-05 12h39.41.105274 +0100,
56,150,120,36,None,52,52,0,True,,,,left,0.9001134729915066,None,,,,,,,,,,,,,0,52,52,52,628.2625358469959,,,,,,,,,,,,,,,,,,,,,,,,,,,,,,,,,,,,,,,,,,,,,,,,,,,,,,,,,,,,,,,,,,,,,,,,,628.2523089440074,628.2625358469959,629.2748895620025,630.2589460710005,630.2589460710005,630.2589460710005,631.1751403509988,left,0.9001134729915066,None,,,,,,,,,,,314033,001,2024-12-05_12h39.20.640,Test,2024.2.1,59.51477603258997,2024-12-05 12h39.41.105274 +0100,
31,150,180,31,None,53,53,0,False,,,,left,0.7191977019974729,None,,,,,,,,,,,,,0,53,53,53,631.1911517520057,,,,,,,,,,,,,,,,,,,,,,,,,,,,,,,,,,,,,,,,,,,,,,,,,,,,,,,,,,,,,,,,,,,,,,,,,631.1817113800062,631.1911517520057,632.1918251460011,633.1748150570056,633.1748150570056,633.1748150570056,633.9102589709946,left,0.7191977019974729,None,,,,,,,,,,,314033,001,2024-12-05_12h39.20.640,Test,2024.2.1,59.51477603258997,2024-12-05 12h39.41.105274 +0100,
16,150,90,33,None,54,54,0,False,,,,right,1.1060369619954145,None,,,,,,,,,,,,,0,54,54,54,633.925259191994,,,,,,,,,,,,,,,,,,,,,,,,,,,,,,,,,,,,,,,,,,,,,,,,,,,,,,,,,,,,,,,,,,,,,,,,,633.9167468300002,633.925259191994,634.9255250590068,635.9248305229994,635.9248305229994,635.9248305229994,637.0433717879932,right,1.1060369619954145,None,,,,,,,,,,,314033,001,2024-12-05_12h39.20.640,Test,2024.2.1,59.51477603258997,2024-12-05 12h39.41.105274 +0100,
4,150,0,18,None,55,55,0,False,,,,left,0.9719845950021408,None,,,,,,,,,,,,,0,55,55,55,637.0585784249997,,,,,,,,,,,,,,,,,,,,,,,,,,,,,,,,,,,,,,,,,,,,,,,,,,,,,,,,,,,,,,,,,,,,,,,,,637.048963897003,637.0585784249997,638.058926675003,639.0423048969969,639.0423048969969,639.0423048969969,640.0281620900059,left,0.9719845950021408,None,,,,,,,,,,,314033,001,2024-12-05_12h39.20.640,Test,2024.2.1,59.51477603258997,2024-12-05 12h39.41.105274 +0100,
37,150,0,46,None,56,56,0,True,,,,left,0.9070120139949722,None,,,,,,,,,,,,,0,56,56,56,640.0433514500037,,,,,,,,,,,,,,,,,,,,,,,,,,,,,,,,,,,,,,,,,,,,,,,,,,,,,,,,,,,,,,,,,,,,,,,,,640.0347939210042,640.0433514500037,641.0422358960059,642.0427146300062,642.0427146300062,642.0427146300062,642.9617826909962,left,0.9070120139949722,None,,,,,,,,,,,314033,001,2024-12-05_12h39.20.640,Test,2024.2.1,59.51477603258997,2024-12-05 12h39.41.105274 +0100,
69,150,180,54,None,57,57,0,True,,,,left,1.2932638860074803,None,,,,,,,,,,,,,0,57,57,57,642.9784191479994,,,,,,,,,,,,,,,,,,,,,,,,,,,,,,,,,,,,,,,,,,,,,,,,,,,,,,,,,,,,,,,,,,,,,,,,,642.9692943709961,642.9784191479994,643.9922843609966,644.976313428997,644.976313428997,644.976313428997,646.2807067679969,left,1.2932638860074803,None,,,,,,,,,,,314033,001,2024-12-05_12h39.20.640,Test,2024.2.1,59.51477603258997,2024-12-05 12h39.41.105274 +0100,
46,150,60,58,None,58,58,0,True,,,,left,0.9310157370055094,None,,,,,,,,,,,,,0,58,58,58,646.2968566089985,,,,,,,,,,,,,,,,,,,,,,,,,,,,,,,,,,,,,,,,,,,,,,,,,,,,,,,,,,,,,,,,,,,,,,,,,646.2874762020074,646.2968566089985,647.3093163909944,648.2922697010072,648.2922697010072,648.2922697010072,649.2285081230075,left,0.9310157370055094,None,,,,,,,,,,,314033,001,2024-12-05_12h39.20.640,Test,2024.2.1,59.51477603258997,2024-12-05 12h39.41.105274 +0100,
29,150,150,16,None,59,59,0,False,,,,left,1.20417984300002,None,,,,,,,,,,,,,0,59,59,59,649.2433850590023,,,,,,,,,,,,,,,,,,,,,,,,,,,,,,,,,,,,,,,,,,,,,,,,,,,,,,,,,,,,,,,,,,,,,,,,,649.2342110839963,649.2433850590023,650.2433883689955,651.2427281690034,651.2427281690034,651.2427281690034,652.4613013670023,left,1.20417984300002,None,,,,,,,,,,,314033,001,2024-12-05_12h39.20.640,Test,2024.2.1,59.51477603258997,2024-12-05 12h39.41.105274 +0100,
17,150,90,21,None,60,60,0,False,,,,right,0.9565624699898763,None,,,,,,,,,,,,,0,60,60,60,652.4766000009986,,,,,,,,,,,,,,,,,,,,,,,,,,,,,,,,,,,,,,,,,,,,,,,,,,,,,,,,,,,,,,,,,,,,,,,,,652.4680167829938,652.4766000009986,653.4762463770021,654.4764404250018,654.4764404250018,654.4764404250018,655.4443700989941,right,0.9565624699898763,None,,,,,,,,,,,314033,001,2024-12-05_12h39.20.640,Test,2024.2.1,59.51477603258997,2024-12-05 12h39.41.105274 +0100,
12,150,60,24,None,61,61,0,False,,,,right,1.4939266329893144,None,,,,,,,,,,,,,0,61,61,61,655.4598679199989,,,,,,,,,,,,,,,,,,,,,,,,,,,,,,,,,,,,,,,,,,,,,,,,,,,,,,,,,,,,,,,,,,,,,,,,,655.450991930993,655.4598679199989,656.4595271489961,657.459754312993,657.459754312993,657.459754312993,658.9635672909935,right,1.4939266329893144,None,,,,,,,,,,,314033,001,2024-12-05_12h39.20.640,Test,2024.2.1,59.51477603258997,2024-12-05 12h39.41.105274 +0100,
54,150,90,29,None,62,62,0,True,,,,left,0.7277013450075174,None,,,,,,,,,,,,,0,62,62,62,658.9805484300014,,,,,,,,,,,,,,,,,,,,,,,,,,,,,,,,,,,,,,,,,,,,,,,,,,,,,,,,,,,,,,,,,,,,,,,,,658.9712767460005,658.9805484300014,659.9936179149954,660.977003492997,660.977003492997,660.977003492997,661.7120136839949,left,0.7277013450075174,None,,,,,,,,,,,314033,001,2024-12-05_12h39.20.640,Test,2024.2.1,59.51477603258997,2024-12-05 12h39.41.105274 +0100,
15,150,60,1,None,63,63,0,False,,,,left,0.9300790900015272,None,,,,,,,,,,,,,0,63,63,63,661.7274287680048,,,,,,,,,,,,,,,,,,,,,,,,,,,,,,,,,,,,,,,,,,,,,,,,,,,,,,,,,,,,,,,,,,,,,,,,,661.7189420560026,661.7274287680048,662.7270721940004,663.7276509410003,663.7276509410003,663.7276509410003,664.6628865079983,left,0.9300790900015272,None,,,,,,,,,,,314033,001,2024-12-05_12h39.20.640,Test,2024.2.1,59.51477603258997,2024-12-05 12h39.41.105274 +0100,
22,150,120,64,None,64,64,0,False,,,,left,1.1749596549925627,None,,,,,,,,,,,,,0,64,64,64,664.6795679609932,,,,,,,,,,,,,,,,,,,,,,,,,,,,,,,,,,,,,,,,,,,,,,,,,,,,,,,,,,,,,,,,,,,,,,,,,664.6702033239999,664.6795679609932,665.694691637007,666.676670891,666.676670891,666.676670891,667.8620772499999,left,1.1749596549925627,None,,,,,,,,,,,314033,001,2024-12-05_12h39.20.640,Test,2024.2.1,59.51477603258997,2024-12-05 12h39.41.105274 +0100,
40,150,0,20,None,65,65,0,True,,,,left,1.3234018420043867,None,,,,,,,,,,,,,0,65,65,65,667.8775358510029,,,,,,,,,,,,,,,,,,,,,,,,,,,,,,,,,,,,,,,,,,,,,,,,,,,,,,,,,,,,,,,,,,,,,,,,,667.8677214589989,667.8775358510029,668.8773574350053,669.860898665007,669.860898665007,669.860898665007,671.1961332869978,left,1.3234018420043867,None,,,,,,,,,,,314033,001,2024-12-05_12h39.20.640,Test,2024.2.1,59.51477603258997,2024-12-05 12h39.41.105274 +0100,
24,150,120,2,None,66,66,0,False,,,,left,0.9214546959992731,None,,,,,,,,,,,,,0,66,66,66,671.2116994940006,,,,,,,,,,,,,,,,,,,,,,,,,,,,,,,,,,,,,,,,,,,,,,,,,,,,,,,,,,,,,,,,,,,,,,,,,671.202663945005,671.2116994940006,672.2111721630063,673.2116240879986,673.2116240879986,673.2116240879986,674.1467257379991,left,0.9214546959992731,None,,,,,,,,,,,314033,001,2024-12-05_12h39.20.640,Test,2024.2.1,59.51477603258997,2024-12-05 12h39.41.105274 +0100,
65,150,150,56,None,67,67,0,True,,,,left,0.8329574380040867,None,,,,,,,,,,,,,0,67,67,67,674.1629389720038,,,,,,,,,,,,,,,,,,,,,,,,,,,,,,,,,,,,,,,,,,,,,,,,,,,,,,,,,,,,,,,,,,,,,,,,,674.1542802530021,674.1629389720038,675.1783475720003,676.1630600899953,676.1630600899953,676.1630600899953,677.013092972993,left,0.8329574380040867,None,,,,,,,,,,,314033,001,2024-12-05_12h39.20.640,Test,2024.2.1,59.51477603258997,2024-12-05 12h39.41.105274 +0100,
45,150,30,25,None,68,68,0,True,,,,left,0.6918903800105909,None,,,,,,,,,,,,,0,68,68,68,677.0287475910009,,,,,,,,,,,,,,,,,,,,,,,,,,,,,,,,,,,,,,,,,,,,,,,,,,,,,,,,,,,,,,,,,,,,,,,,,677.0200639670074,677.0287475910009,678.0285059400048,679.0284825220006,679.0284825220006,679.0284825220006,679.7296358919994,left,0.6918903800105909,None,,,,,,,,,,,314033,001,2024-12-05_12h39.20.640,Test,2024.2.1,59.51477603258997,2024-12-05 12h39.41.105274 +0100,
41,150,30,59,None,69,69,0,True,,,,left,0.8028915739996592,None,,,,,,,,,,,,,0,69,69,69,679.7451066890062,,,,,,,,,,,,,,,,,,,,,,,,,,,,,,,,,,,,,,,,,,,,,,,,,,,,,,,,,,,,,,,,,,,,,,,,,679.7353709409945,679.7451066890062,680.744831582997,681.7448620640062,681.7448620640062,681.7448620640062,682.5641601370007,left,0.8028915739996592,None,,,,,,,,,,,314033,001,2024-12-05_12h39.20.640,Test,2024.2.1,59.51477603258997,2024-12-05 12h39.41.105274 +0100,
,,,,,,,,,,,,,,,,,,,,,,,,,,,,,,,,,,,,,,,,,,,,,,,,,,,,,,,,,,,,,,,,,,,,,,,,,,,,,,,,,,,,,,,,,,,,,,,,,,,,,,,,,,,,,,,,,,,,,682.5643741719978,682.5784770589962,682.5784770589962,684.5129982960061,space,1.9263918700016802,None,314033,001,2024-12-05_12h39.20.640,Test,2024.2.1,59.51477603258997,2024-12-05 12h39.41.105274 +0100,
