Trial_Number,Exposure_Duration,Displacement_Angle,Stimulus,Response,thisN,thisTrialN,thisRepN,Is_Distractor,key_resp_3.keys,key_resp_3.rt,key_resp_3.duration,key_resp_7.keys,key_resp_7.rt,key_resp_7.duration,trials.thisRepN,trials.thisTrialN,trials.thisN,trials.thisIndex,trials_2.thisRepN,trials_2.thisTrialN,trials_2.thisN,trials_2.thisIndex,trials_3.thisRepN,trials_3.thisTrialN,trials_3.thisN,trials_3.thisIndex,trials_4.thisRepN,trials_4.thisTrialN,trials_4.thisN,trials_4.thisIndex,thisRow.t,notes,Intro_to_experiment.started,important1_2.started,key_resp_8.started,Intro_to_experiment.stopped,key_resp_8.keys,key_resp_8.rt,key_resp_8.duration,important.started,important1.started,key_resp_4.started,important.stopped,key_resp_4.keys,key_resp_4.rt,key_resp_4.duration,training_instruction.started,key_resp_9.started,important1_3.started,training_instruction.stopped,key_resp_9.keys,key_resp_9.rt,key_resp_9.duration,training_trial.started,cross.started,image.started,aperture.started,cross.stopped,image.stopped,aperture.stopped,training_trial.stopped,New_instruction.started,text.started,key_resp_2.started,New_instruction.stopped,key_resp_2.keys,key_resp_2.rt,key_resp_2.duration,test_trial.started,cross2.started,cross2.stopped,image_2.started,key_resp_3.started,aperture_2.started,test_trial.stopped,trials_2.key_resp_3.keys,trials_2.key_resp_3.rt,trials_2.key_resp_3.duration,start_blok_2.started,key_resp_5.started,text_4.started,start_blok_2.stopped,key_resp_5.keys,key_resp_5.rt,key_resp_5.duration,training_2.started,cross_2.started,image_3.started,aperture_3.started,cross_2.stopped,image_3.stopped,aperture_3.stopped,training_2.stopped,nyeste_instruks.started,text_5.started,key_resp_6.started,nyeste_instruks.stopped,key_resp_6.keys,key_resp_6.rt,key_resp_6.duration,test_2.started,cross2_2.started,cross2_2.stopped,image_4.started,key_resp_7.started,aperture_4.started,image_4.stopped,aperture_4.stopped,text_6.started,test_2.stopped,trials_4.key_resp_7.keys,trials_4.key_resp_7.rt,trials_4.key_resp_7.duration,Instruction.started,Instruktion.started,key_resp.started,Instruction.stopped,key_resp.keys,key_resp.rt,key_resp.duration,participant,session,date,expName,psychopyVersion,frameRate,expStart,
,,,,,,,,,,,,,,,,,,,,,,,,,,,,,,,,,0.011941041972022504,0.02272141701541841,0.02272141701541841,82.65823737496976,space,82.57189766597003,None,,,,,,,,,,,,,,,,,,,,,,,,,,,,,,,,,,,,,,,,,,,,,,,,,,,,,,,,,,,,,,,,,,,,,,,,,,,,,,,,,,318485,001,2024-12-08_15h57.42.876,Test,2024.2.4,None,2024-12-08 15h57.48.472654 +0100,
,,,,,,,,,,,,,,,,,,,,,,,,,,,,,,,,,,,,,,,,82.65840516699245,82.66535183397355,82.66535183397355,89.4028469590121,space,6.730182125000283,None,,,,,,,,,,,,,,,,,,,,,,,,,,,,,,,,,,,,,,,,,,,,,,,,,,,,,,,,,,,,,,,,,,,,,,,,,,,318485,001,2024-12-08_15h57.42.876,Test,2024.2.4,None,2024-12-08 15h57.48.472654 +0100,
,,,,,,,,,,,,,,,,,,,,,,,,,,,,,,,,,,,,,,,,,,,,,,,89.40295908402186,89.42889375000959,89.42889375000959,92.31973795901285,space,2.888756416970864,None,,,,,,,,,,,,,,,,,,,,,,,,,,,,,,,,,,,,,,,,,,,,,,,,,,,,,,,,,,,,,,,,,,,,318485,001,2024-12-08_15h57.42.876,Test,2024.2.4,None,2024-12-08 15h57.48.472654 +0100,
6,150,30,10,None,0,0,0,,,,,,,,0,0,0,5,,,,,,,,,,,,,92.37002837500768,,,,,,,,,,,,,,,,,,,,,,,92.36397299997043,92.37002837500768,92.51725308399182,92.51725308399182,92.56774895900162,94.2172749589663,94.2172749589663,94.20205174997682,,,,,,,,,,,,,,,,,,,,,,,,,,,,,,,,,,,,,,,,,,,,,,,,,,,,,,,,,,,,318485,001,2024-12-08_15h57.42.876,Test,2024.2.4,None,2024-12-08 15h57.48.472654 +0100,
2,150,0,53,None,1,1,0,,,,,,,,0,1,1,1,,,,,,,,,,,,,94.2172749589663,,,,,,,,,,,,,,,,,,,,,,,94.21251437498722,94.22100479202345,94.41777975001605,94.41777975001605,94.41777975001605,96.11560229200404,96.11560229200404,96.1016551249777,,,,,,,,,,,,,,,,,,,,,,,,,,,,,,,,,,,,,,,,,,,,,,,,,,,,,,,,,,,,318485,001,2024-12-08_15h57.42.876,Test,2024.2.4,None,2024-12-08 15h57.48.472654 +0100,
35,150,180,14,None,2,2,0,,,,,,,,0,2,2,34,,,,,,,,,,,,,96.11560229200404,,,,,,,,,,,,,,,,,,,,,,,96.11073641700204,96.11946949997218,96.31631858396577,96.31631858396577,96.31631858396577,98.01660041697323,98.01660041697323,98.00217662501382,,,,,,,,,,,,,,,,,,,,,,,,,,,,,,,,,,,,,,,,,,,,,,,,,,,,,,,,,,,,318485,001,2024-12-08_15h57.42.876,Test,2024.2.4,None,2024-12-08 15h57.48.472654 +0100,
31,150,180,59,None,3,3,0,,,,,,,,0,3,3,30,,,,,,,,,,,,,98.01660041697323,,,,,,,,,,,,,,,,,,,,,,,98.01172750000842,98.02073445898714,98.21777012501843,98.21777012501843,98.21777012501843,99.91627774998778,99.91627774998778,99.90219879196957,,,,,,,,,,,,,,,,,,,,,,,,,,,,,,,,,,,,,,,,,,,,,,,,,,,,,,,,,,,,318485,001,2024-12-08_15h57.42.876,Test,2024.2.4,None,2024-12-08 15h57.48.472654 +0100,
34,150,180,66,None,4,4,0,,,,,,,,0,4,4,33,,,,,,,,,,,,,99.91627774998778,,,,,,,,,,,,,,,,,,,,,,,99.91141179198166,99.92038274998777,100.1177323340089,100.1177323340089,100.1177323340089,101.81701029196847,101.81701029196847,101.80195354198804,,,,,,,,,,,,,,,,,,,,,,,,,,,,,,,,,,,,,,,,,,,,,,,,,,,,,,,,,,,,318485,001,2024-12-08_15h57.42.876,Test,2024.2.4,None,2024-12-08 15h57.48.472654 +0100,
10,150,30,43,None,5,5,0,,,,,,,,0,5,5,9,,,,,,,,,,,,,101.81701029196847,,,,,,,,,,,,,,,,,,,,,,,101.81201512500411,101.83431145898066,102.01766499999212,102.01766499999212,102.02361083397409,103.71663270896534,103.71663270896534,103.70208766701398,,,,,,,,,,,,,,,,,,,,,,,,,,,,,,,,,,,,,,,,,,,,,,,,,,,,,,,,,,,,318485,001,2024-12-08_15h57.42.876,Test,2024.2.4,None,2024-12-08 15h57.48.472654 +0100,
3,150,0,70,None,6,6,0,,,,,,,,0,6,6,2,,,,,,,,,,,,,103.71663270896534,,,,,,,,,,,,,,,,,,,,,,,103.71174333401723,103.72133324999595,103.92003437498352,103.92003437498352,103.92003437498352,105.62122208398068,105.62122208398068,105.60792304197093,,,,,,,,,,,,,,,,,,,,,,,,,,,,,,,,,,,,,,,,,,,,,,,,,,,,,,,,,,,,318485,001,2024-12-08_15h57.42.876,Test,2024.2.4,None,2024-12-08 15h57.48.472654 +0100,
21,150,120,1,None,7,7,0,,,,,,,,0,7,7,20,,,,,,,,,,,,,105.62122208398068,,,,,,,,,,,,,,,,,,,,,,,105.61631100001978,105.62122208398068,105.81782554200618,105.81782554200618,105.81782554200618,107.51743687497219,107.51743687497219,107.50192212499678,,,,,,,,,,,,,,,,,,,,,,,,,,,,,,,,,,,,,,,,,,,,,,,,,,,,,,,,,,,,318485,001,2024-12-08_15h57.42.876,Test,2024.2.4,None,2024-12-08 15h57.48.472654 +0100,
4,150,0,24,None,8,8,0,,,,,,,,0,8,8,3,,,,,,,,,,,,,107.51743687497219,,,,,,,,,,,,,,,,,,,,,,,107.51245645899326,107.52200445899507,107.71771108399844,107.71771108399844,107.71771108399844,109.41714579198742,109.41714579198742,109.40191166696604,,,,,,,,,,,,,,,,,,,,,,,,,,,,,,,,,,,,,,,,,,,,,,,,,,,,,,,,,,,,318485,001,2024-12-08_15h57.42.876,Test,2024.2.4,None,2024-12-08 15h57.48.472654 +0100,
30,150,150,19,None,9,9,0,,,,,,,,0,9,9,29,,,,,,,,,,,,,109.41714579198742,,,,,,,,,,,,,,,,,,,,,,,109.41218279197346,109.43448454199824,109.6177727089962,109.6177727089962,109.62421633402118,111.31585737498244,111.31585737498244,111.30195749999257,,,,,,,,,,,,,,,,,,,,,,,,,,,,,,,,,,,,,,,,,,,,,,,,,,,,,,,,,,,,318485,001,2024-12-08_15h57.42.876,Test,2024.2.4,None,2024-12-08 15h57.48.472654 +0100,
23,150,120,39,None,10,10,0,,,,,,,,0,10,10,22,,,,,,,,,,,,,111.31585737498244,,,,,,,,,,,,,,,,,,,,,,,111.310885666986,111.31989291700302,111.51766949996818,111.51766949996818,111.51766949996818,113.21660708397394,113.21660708397394,113.20247845898848,,,,,,,,,,,,,,,,,,,,,,,,,,,,,,,,,,,,,,,,,,,,,,,,,,,,,,,,,,,,318485,001,2024-12-08_15h57.42.876,Test,2024.2.4,None,2024-12-08 15h57.48.472654 +0100,
16,150,90,30,None,11,11,0,,,,,,,,0,11,11,15,,,,,,,,,,,,,113.21660708397394,,,,,,,,,,,,,,,,,,,,,,,113.21171204198617,113.22137362498324,113.41790070896968,113.41790070896968,113.41790070896968,115.11600383400219,115.11600383400219,115.10183879197575,,,,,,,,,,,,,,,,,,,,,,,,,,,,,,,,,,,,,,,,,,,,,,,,,,,,,,,,,,,,318485,001,2024-12-08_15h57.42.876,Test,2024.2.4,None,2024-12-08 15h57.48.472654 +0100,
22,150,120,69,None,12,12,0,,,,,,,,0,12,12,21,,,,,,,,,,,,,115.11600383400219,,,,,,,,,,,,,,,,,,,,,,,115.11105145898182,115.11988779198145,115.31781316699926,115.31781316699926,115.31781316699926,117.01619175000815,117.01619175000815,117.00195070897462,,,,,,,,,,,,,,,,,,,,,,,,,,,,,,,,,,,,,,,,,,,,,,,,,,,,,,,,,,,,318485,001,2024-12-08_15h57.42.876,Test,2024.2.4,None,2024-12-08 15h57.48.472654 +0100,
26,150,150,61,None,13,13,0,,,,,,,,0,13,13,25,,,,,,,,,,,,,117.01619175000815,,,,,,,,,,,,,,,,,,,,,,,117.0109719170141,117.02102608396672,117.21773149998626,117.21773149998626,117.21773149998626,118.91552883398253,118.91552883398253,118.90209608396981,,,,,,,,,,,,,,,,,,,,,,,,,,,,,,,,,,,,,,,,,,,,,,,,,,,,,,,,,,,,318485,001,2024-12-08_15h57.42.876,Test,2024.2.4,None,2024-12-08 15h57.48.472654 +0100,
7,150,30,63,None,14,14,0,,,,,,,,0,14,14,6,,,,,,,,,,,,,118.91552883398253,,,,,,,,,,,,,,,,,,,,,,,118.91060616698815,118.91961133398581,119.11777654197067,119.11777654197067,119.11777654197067,120.81605304201366,120.81605304201366,120.80206066701794,,,,,,,,,,,,,,,,,,,,,,,,,,,,,,,,,,,,,,,,,,,,,,,,,,,,,,,,,,,,318485,001,2024-12-08_15h57.42.876,Test,2024.2.4,None,2024-12-08 15h57.48.472654 +0100,
15,150,60,60,None,15,15,0,,,,,,,,0,15,15,14,,,,,,,,,,,,,120.81605304201366,,,,,,,,,,,,,,,,,,,,,,,120.81105820898665,120.8201361669926,121.0176627089968,121.0176627089968,121.0176627089968,122.71521266701166,122.71521266701166,122.70197391702095,,,,,,,,,,,,,,,,,,,,,,,,,,,,,,,,,,,,,,,,,,,,,,,,,,,,,,,,,,,,318485,001,2024-12-08_15h57.42.876,Test,2024.2.4,None,2024-12-08 15h57.48.472654 +0100,
14,150,60,55,None,16,16,0,,,,,,,,0,16,16,13,,,,,,,,,,,,,122.71521266701166,,,,,,,,,,,,,,,,,,,,,,,122.71026191697456,122.72026708401972,122.91796937497566,122.91796937497566,122.91796937497566,124.61558383400552,124.61558383400552,124.60197354201227,,,,,,,,,,,,,,,,,,,,,,,,,,,,,,,,,,,,,,,,,,,,,,,,,,,,,,,,,,,,318485,001,2024-12-08_15h57.42.876,Test,2024.2.4,None,2024-12-08 15h57.48.472654 +0100,
17,150,90,38,None,17,17,0,,,,,,,,0,17,17,16,,,,,,,,,,,,,124.61558383400552,,,,,,,,,,,,,,,,,,,,,,,124.61059837497305,124.62058370898012,124.81781387497904,124.81781387497904,124.81781387497904,126.51618974999292,126.51618974999292,126.50191441702191,,,,,,,,,,,,,,,,,,,,,,,,,,,,,,,,,,,,,,,,,,,,,,,,,,,,,,,,,,,,318485,001,2024-12-08_15h57.42.876,Test,2024.2.4,None,2024-12-08 15h57.48.472654 +0100,
8,150,30,46,None,18,18,0,,,,,,,,0,18,18,7,,,,,,,,,,,,,126.51618974999292,,,,,,,,,,,,,,,,,,,,,,,126.51116966700647,126.52112620900152,126.71773754199967,126.71773754199967,126.71773754199967,128.4162045000121,128.4162045000121,128.4021838749759,,,,,,,,,,,,,,,,,,,,,,,,,,,,,,,,,,,,,,,,,,,,,,,,,,,,,,,,,,,,318485,001,2024-12-08_15h57.42.876,Test,2024.2.4,None,2024-12-08 15h57.48.472654 +0100,
33,150,180,6,None,19,19,0,,,,,,,,0,19,19,32,,,,,,,,,,,,,128.4162045000121,,,,,,,,,,,,,,,,,,,,,,,128.41118783398997,128.42020970897283,128.6177686249721,128.6177686249721,128.6177686249721,130.3148129589972,130.3148129589972,130.3018934999709,,,,,,,,,,,,,,,,,,,,,,,,,,,,,,,,,,,,,,,,,,,,,,,,,,,,,,,,,,,,318485,001,2024-12-08_15h57.42.876,Test,2024.2.4,None,2024-12-08 15h57.48.472654 +0100,
24,150,120,11,None,20,20,0,,,,,,,,0,20,20,23,,,,,,,,,,,,,130.3148129589972,,,,,,,,,,,,,,,,,,,,,,,130.30985162500292,130.3196464999928,130.51784416701412,130.51784416701412,130.51784416701412,132.2163992919959,132.2163992919959,132.20219337497838,,,,,,,,,,,,,,,,,,,,,,,,,,,,,,,,,,,,,,,,,,,,,,,,,,,,,,,,,,,,318485,001,2024-12-08_15h57.42.876,Test,2024.2.4,None,2024-12-08 15h57.48.472654 +0100,
12,150,60,42,None,21,21,0,,,,,,,,0,21,21,11,,,,,,,,,,,,,132.2163992919959,,,,,,,,,,,,,,,,,,,,,,,132.21158225002,132.2206288339803,132.41773887496674,132.41773887496674,132.41773887496674,134.11578320898116,134.11578320898116,134.10190645902185,,,,,,,,,,,,,,,,,,,,,,,,,,,,,,,,,,,,,,,,,,,,,,,,,,,,,,,,,,,,318485,001,2024-12-08_15h57.42.876,Test,2024.2.4,None,2024-12-08 15h57.48.472654 +0100,
19,150,90,48,None,22,22,0,,,,,,,,0,22,22,18,,,,,,,,,,,,,134.11578320898116,,,,,,,,,,,,,,,,,,,,,,,134.11089054198237,134.1196063340176,134.3178120420198,134.3178120420198,134.3178120420198,136.01566058397293,136.01566058397293,136.0019559590146,,,,,,,,,,,,,,,,,,,,,,,,,,,,,,,,,,,,,,,,,,,,,,,,,,,,,,,,,,,,318485,001,2024-12-08_15h57.42.876,Test,2024.2.4,None,2024-12-08 15h57.48.472654 +0100,
32,150,180,65,None,23,23,0,,,,,,,,0,23,23,31,,,,,,,,,,,,,136.01566058397293,,,,,,,,,,,,,,,,,,,,,,,136.01075916696573,136.02064862498082,136.21767174999695,136.21767174999695,136.21767174999695,137.91528529202333,137.91528529202333,137.90180212497944,,,,,,,,,,,,,,,,,,,,,,,,,,,,,,,,,,,,,,,,,,,,,,,,,,,,,,,,,,,,318485,001,2024-12-08_15h57.42.876,Test,2024.2.4,None,2024-12-08 15h57.48.472654 +0100,
5,150,0,4,None,24,24,0,,,,,,,,0,24,24,4,,,,,,,,,,,,,137.91528529202333,,,,,,,,,,,,,,,,,,,,,,,137.91032616700977,137.92002399999183,138.11776604200713,138.11776604200713,138.11776604200713,139.81590516702272,139.81590516702272,139.80187816696707,,,,,,,,,,,,,,,,,,,,,,,,,,,,,,,,,,,,,,,,,,,,,,,,,,,,,,,,,,,,318485,001,2024-12-08_15h57.42.876,Test,2024.2.4,None,2024-12-08 15h57.48.472654 +0100,
20,150,90,47,None,25,25,0,,,,,,,,0,25,25,19,,,,,,,,,,,,,139.81590516702272,,,,,,,,,,,,,,,,,,,,,,,139.81089658400742,139.82066283398308,140.01784812501865,140.01784812501865,140.01784812501865,141.71548816701397,141.71548816701397,141.7017617090023,,,,,,,,,,,,,,,,,,,,,,,,,,,,,,,,,,,,,,,,,,,,,,,,,,,,,,,,,,,,318485,001,2024-12-08_15h57.42.876,Test,2024.2.4,None,2024-12-08 15h57.48.472654 +0100,
1,150,0,21,None,26,26,0,,,,,,,,0,26,26,0,,,,,,,,,,,,,141.71548816701397,,,,,,,,,,,,,,,,,,,,,,,141.71000354201533,141.71945587499067,141.91775141697144,141.91775141697144,141.91775141697144,143.61579483398236,143.61579483398236,143.60234220902203,,,,,,,,,,,,,,,,,,,,,,,,,,,,,,,,,,,,,,,,,,,,,,,,,,,,,,,,,,,,318485,001,2024-12-08_15h57.42.876,Test,2024.2.4,None,2024-12-08 15h57.48.472654 +0100,
11,150,60,45,None,27,27,0,,,,,,,,0,27,27,10,,,,,,,,,,,,,143.61579483398236,,,,,,,,,,,,,,,,,,,,,,,143.61099258397007,143.61975725000957,143.81778924999526,143.81778924999526,143.81778924999526,145.5158948340104,145.5158948340104,145.50212874996942,,,,,,,,,,,,,,,,,,,,,,,,,,,,,,,,,,,,,,,,,,,,,,,,,,,,,,,,,,,,318485,001,2024-12-08_15h57.42.876,Test,2024.2.4,None,2024-12-08 15h57.48.472654 +0100,
25,150,120,35,None,28,28,0,,,,,,,,0,28,28,24,,,,,,,,,,,,,145.5158948340104,,,,,,,,,,,,,,,,,,,,,,,145.5108928749687,145.5208207499818,145.71769974997733,145.71769974997733,145.71769974997733,147.41586249996908,147.41586249996908,147.40198716701707,,,,,,,,,,,,,,,,,,,,,,,,,,,,,,,,,,,,,,,,,,,,,,,,,,,,,,,,,,,,318485,001,2024-12-08_15h57.42.876,Test,2024.2.4,None,2024-12-08 15h57.48.472654 +0100,
28,150,150,9,None,29,29,0,,,,,,,,0,29,29,27,,,,,,,,,,,,,147.41586249996908,,,,,,,,,,,,,,,,,,,,,,,147.41085475002183,147.4209063340095,147.6177814169787,147.6177814169787,147.6177814169787,149.31647916696966,149.31647916696966,149.30190274998313,,,,,,,,,,,,,,,,,,,,,,,,,,,,,,,,,,,,,,,,,,,,,,,,,,,,,,,,,,,,318485,001,2024-12-08_15h57.42.876,Test,2024.2.4,None,2024-12-08 15h57.48.472654 +0100,
18,150,90,32,None,30,30,0,,,,,,,,0,30,30,17,,,,,,,,,,,,,149.31647916696966,,,,,,,,,,,,,,,,,,,,,,,149.31143037497532,149.3211274999776,149.51784041698556,149.51784041698556,149.51784041698556,151.21611237496836,151.21611237496836,151.20225804200163,,,,,,,,,,,,,,,,,,,,,,,,,,,,,,,,,,,,,,,,,,,,,,,,,,,,,,,,,,,,318485,001,2024-12-08_15h57.42.876,Test,2024.2.4,None,2024-12-08 15h57.48.472654 +0100,
13,150,60,56,None,31,31,0,,,,,,,,0,31,31,12,,,,,,,,,,,,,151.21611237496836,,,,,,,,,,,,,,,,,,,,,,,151.211007083999,151.2210344169871,151.41771291696932,151.41771291696932,151.41771291696932,153.11508629197488,153.11508629197488,153.1020055420231,,,,,,,,,,,,,,,,,,,,,,,,,,,,,,,,,,,,,,,,,,,,,,,,,,,,,,,,,,,,318485,001,2024-12-08_15h57.42.876,Test,2024.2.4,None,2024-12-08 15h57.48.472654 +0100,
27,150,150,62,None,32,32,0,,,,,,,,0,32,32,26,,,,,,,,,,,,,153.11508629197488,,,,,,,,,,,,,,,,,,,,,,,153.11018087499542,153.12032512499718,153.31774475000566,153.31774475000566,153.31774475000566,155.01515841699438,155.01515841699438,155.001751667005,,,,,,,,,,,,,,,,,,,,,,,,,,,,,,,,,,,,,,,,,,,,,,,,,,,,,,,,,,,,318485,001,2024-12-08_15h57.42.876,Test,2024.2.4,None,2024-12-08 15h57.48.472654 +0100,
9,150,30,26,None,33,33,0,,,,,,,,0,33,33,8,,,,,,,,,,,,,155.01515841699438,,,,,,,,,,,,,,,,,,,,,,,155.01029000000563,155.02034829201875,155.21768075000728,155.21768075000728,155.21768075000728,156.91548679198604,156.91548679198604,156.90197891701246,,,,,,,,,,,,,,,,,,,,,,,,,,,,,,,,,,,,,,,,,,,,,,,,,,,,,,,,,,,,318485,001,2024-12-08_15h57.42.876,Test,2024.2.4,None,2024-12-08 15h57.48.472654 +0100,
29,150,150,44,None,34,34,0,,,,,,,,0,34,34,28,,,,,,,,,,,,,156.91548679198604,,,,,,,,,,,,,,,,,,,,,,,156.91075008397456,156.91934054199373,157.11771283397684,157.11771283397684,157.11771283397684,158.8073373339721,158.8073373339721,158.8019089169684,,,,,,,,,,,,,,,,,,,,,,,,,,,,,,,,,,,,,,,,,,,,,,,,,,,,,,,,,,,,318485,001,2024-12-08_15h57.42.876,Test,2024.2.4,None,2024-12-08 15h57.48.472654 +0100,
,,,,,,,,,,,,,,,,,,,,,,,,,,,,,,,,,,,,,,,,,,,,,,,,,,,,,,,,,,,,,,158.80213787499815,158.81612612499157,158.81612612499157,172.72559037501924,space,13.906665916962083,None,,,,,,,,,,,,,,,,,,,,,,,,,,,,,,,,,,,,,,,,,,,,,,,,,,,,,318485,001,2024-12-08_15h57.42.876,Test,2024.2.4,None,2024-12-08 15h57.48.472654 +0100,
69,150,180,33,None,0,0,0,True,right,1.1962786249932833,None,,,,,,,,0,0,0,0,,,,,,,,,172.756496875023,,,,,,,,,,,,,,,,,,,,,,,,,,,,,,,,,,,,,,172.74776141700568,172.756496875023,173.75102120899828,174.72585204197094,174.72585204197094,174.72585204197094,175.92603699996835,right,1.1962786249932833,None,,,,,,,,,,,,,,,,,,,,,,,,,,,,,,,,,,,,,,,,,,,318485,001,2024-12-08_15h57.42.876,Test,2024.2.4,None,2024-12-08 15h57.48.472654 +0100,
12,150,60,42,None,1,1,0,False,left,1.0042238339665346,None,,,,,,,,0,1,1,1,,,,,,,,,175.93994662497425,,,,,,,,,,,,,,,,,,,,,,,,,,,,,,,,,,,,,,175.93375512497732,175.93994662497425,176.93430191697553,177.92532191699138,177.92532191699138,177.92532191699138,178.9371541669825,left,1.0042238339665346,None,,,,,,,,,,,,,,,,,,,,,,,,,,,,,,,,,,,,,,,,,,,318485,001,2024-12-08_15h57.42.876,Test,2024.2.4,None,2024-12-08 15h57.48.472654 +0100,
28,150,150,9,None,2,2,0,False,left,1.5356371669913642,None,,,,,,,,0,2,2,2,,,,,,,,,178.95188716700068,,,,,,,,,,,,,,,,,,,,,,,,,,,,,,,,,,,,,,178.94570216699503,178.95188716700068,179.95108124997932,180.93439875001786,180.93439875001786,180.93439875001786,182.4755312089692,left,1.5356371669913642,None,,,,,,,,,,,,,,,,,,,,,,,,,,,,,,,,,,,,,,,,,,,318485,001,2024-12-08_15h57.42.876,Test,2024.2.4,None,2024-12-08 15h57.48.472654 +0100,
8,150,30,46,None,3,3,0,False,right,1.4790742080076598,None,,,,,,,,0,3,3,3,,,,,,,,,182.49033166700974,,,,,,,,,,,,,,,,,,,,,,,,,,,,,,,,,,,,,,182.48436545900768,182.49033166700974,183.4842889169813,184.47481895901728,184.47481895901728,184.47481895901728,185.9594430840225,right,1.4790742080076598,None,,,,,,,,,,,,,,,,,,,,,,,,,,,,,,,,,,,,,,,,,,,318485,001,2024-12-08_15h57.42.876,Test,2024.2.4,None,2024-12-08 15h57.48.472654 +0100,
60,150,120,20,None,4,4,0,True,left,1.29309154197108,None,,,,,,,,0,4,4,4,,,,,,,,,185.97400341700995,,,,,,,,,,,,,,,,,,,,,,,,,,,,,,,,,,,,,,185.96766270900844,185.97400341700995,186.96772316697752,187.95866529201157,187.95866529201157,187.95866529201157,189.2624012500164,left,1.29309154197108,None,,,,,,,,,,,,,,,,,,,,,,,,,,,,,,,,,,,,,,,,,,,318485,001,2024-12-08_15h57.42.876,Test,2024.2.4,None,2024-12-08 15h57.48.472654 +0100,
45,150,30,37,None,5,5,0,True,left,1.1433087079785764,None,,,,,,,,0,5,5,5,,,,,,,,,189.27448554197326,,,,,,,,,,,,,,,,,,,,,,,,,,,,,,,,,,,,,,189.26981049997266,189.27448554197326,190.27302204200532,191.25816491700243,191.25816491700243,191.25816491700243,192.4047435420216,left,1.1433087079785764,None,,,,,,,,,,,,,,,,,,,,,,,,,,,,,,,,,,,,,,,,,,,318485,001,2024-12-08_15h57.42.876,Test,2024.2.4,None,2024-12-08 15h57.48.472654 +0100,
34,150,180,66,None,6,6,0,False,right,1.8209892919985577,None,,,,,,,,0,6,6,6,,,,,,,,,192.42019487498328,,,,,,,,,,,,,,,,,,,,,,,,,,,,,,,,,,,,,,192.41366620897315,192.42019487498328,193.41771704197163,194.4011548749986,194.4011548749986,194.4011548749986,196.22547579201637,right,1.8209892919985577,None,,,,,,,,,,,,,,,,,,,,,,,,,,,,,,,,,,,,,,,,,,,318485,001,2024-12-08_15h57.42.876,Test,2024.2.4,None,2024-12-08 15h57.48.472654 +0100,
44,150,30,17,None,7,7,0,True,left,1.3833138750051148,None,,,,,,,,0,7,7,7,,,,,,,,,196.2395071249921,,,,,,,,,,,,,,,,,,,,,,,,,,,,,,,,,,,,,,196.233257416985,196.2395071249921,197.2343188750092,198.22579724999378,198.22579724999378,198.22579724999378,199.6199157090159,left,1.3833138750051148,None,,,,,,,,,,,,,,,,,,,,,,,,,,,,,,,,,,,,,,,,,,,318485,001,2024-12-08_15h57.42.876,Test,2024.2.4,None,2024-12-08 15h57.48.472654 +0100,
3,150,0,70,None,8,8,0,False,right,1.1173127079964615,None,,,,,,,,0,8,8,8,,,,,,,,,199.63506724999752,,,,,,,,,,,,,,,,,,,,,,,,,,,,,,,,,,,,,,199.62800808402244,199.63506724999752,200.62229645898333,201.6178436250193,201.6178436250193,201.6178436250193,202.7457846669713,right,1.1173127079964615,None,,,,,,,,,,,,,,,,,,,,,,,,,,,,,,,,,,,,,,,,,,,318485,001,2024-12-08_15h57.42.876,Test,2024.2.4,None,2024-12-08 15h57.48.472654 +0100,
52,150,90,18,None,9,9,0,True,left,1.0840406669885851,None,,,,,,,,0,9,9,9,,,,,,,,,202.75761379196774,,,,,,,,,,,,,,,,,,,,,,,,,,,,,,,,,,,,,,202.75293416698696,202.75761379196774,203.75105591700412,204.74132174998522,204.74132174998522,204.74132174998522,205.83645216701552,left,1.0840406669885851,None,,,,,,,,,,,,,,,,,,,,,,,,,,,,,,,,,,,,,,,,,,,318485,001,2024-12-08_15h57.42.876,Test,2024.2.4,None,2024-12-08 15h57.48.472654 +0100,
31,150,180,59,None,10,10,0,False,right,1.2872427909751423,None,,,,,,,,0,10,10,10,,,,,,,,,205.85190775000956,,,,,,,,,,,,,,,,,,,,,,,,,,,,,,,,,,,,,,205.84506591700483,205.85190775000956,206.83916620898526,207.83445774996653,207.83445774996653,207.83445774996653,209.12654650001787,right,1.2872427909751423,None,,,,,,,,,,,,,,,,,,,,,,,,,,,,,,,,,,,,,,,,,,,318485,001,2024-12-08_15h57.42.876,Test,2024.2.4,None,2024-12-08 15h57.48.472654 +0100,
15,150,60,60,None,11,11,0,False,left,1.168876875017304,None,,,,,,,,0,11,11,11,,,,,,,,,209.14007420901908,,,,,,,,,,,,,,,,,,,,,,,,,,,,,,,,,,,,,,209.13426866696682,209.14007420901908,210.13427620899165,211.12410512496717,211.12410512496717,211.12410512496717,212.3031687500188,left,1.168876875017304,None,,,,,,,,,,,,,,,,,,,,,,,,,,,,,,,,,,,,,,,,,,,318485,001,2024-12-08_15h57.42.876,Test,2024.2.4,None,2024-12-08 15h57.48.472654 +0100,
59,150,120,7,None,12,12,0,True,left,1.3348418340319768,None,,,,,,,,0,12,12,12,,,,,,,,,212.31812654196983,,,,,,,,,,,,,,,,,,,,,,,,,,,,,,,,,,,,,,212.31129741697805,212.31812654196983,213.30578633397818,214.30102166702272,214.30102166702272,214.30102166702272,215.643302417011,left,1.3348418340319768,None,,,,,,,,,,,,,,,,,,,,,,,,,,,,,,,,,,,,,,,,,,,318485,001,2024-12-08_15h57.42.876,Test,2024.2.4,None,2024-12-08 15h57.48.472654 +0100,
37,150,0,25,None,13,13,0,True,left,1.210251167009119,None,,,,,,,,0,13,13,13,,,,,,,,,215.6584514590213,,,,,,,,,,,,,,,,,,,,,,,,,,,,,,,,,,,,,,215.65236787497997,215.6584514590213,216.65635116701014,217.64099845901364,217.64099845901364,217.64099845901364,218.85377862496534,left,1.210251167009119,None,,,,,,,,,,,,,,,,,,,,,,,,,,,,,,,,,,,,,,,,,,,318485,001,2024-12-08_15h57.42.876,Test,2024.2.4,None,2024-12-08 15h57.48.472654 +0100,
36,150,0,3,None,14,14,0,True,left,1.1561637920094654,None,,,,,,,,0,14,14,14,,,,,,,,,218.86813750001602,,,,,,,,,,,,,,,,,,,,,,,,,,,,,,,,,,,,,,218.8618824169971,218.86813750001602,219.8563766250154,220.8510490420158,220.8510490420158,220.8510490420158,222.00955124996835,left,1.1561637920094654,None,,,,,,,,,,,,,,,,,,,,,,,,,,,,,,,,,,,,,,,,,,,318485,001,2024-12-08_15h57.42.876,Test,2024.2.4,None,2024-12-08 15h57.48.472654 +0100,
41,150,30,50,None,15,15,0,True,left,0.8492465839954093,None,,,,,,,,0,15,15,15,,,,,,,,,222.02495679201093,,,,,,,,,,,,,,,,,,,,,,,,,,,,,,,,,,,,,,222.01873591699405,222.02495679201093,223.0224814999965,224.00844862498343,224.00844862498343,224.00844862498343,224.86779616697459,left,0.8492465839954093,None,,,,,,,,,,,,,,,,,,,,,,,,,,,,,,,,,,,,,,,,,,,318485,001,2024-12-08_15h57.42.876,Test,2024.2.4,None,2024-12-08 15h57.48.472654 +0100,
68,150,180,27,None,16,16,0,True,right,1.0159264159738086,None,,,,,,,,0,16,16,16,,,,,,,,,224.8796622090158,,,,,,,,,,,,,,,,,,,,,,,,,,,,,,,,,,,,,,224.87508495897055,224.8796622090158,225.87295049999375,226.8591674999916,226.8591674999916,226.8591674999916,227.88643733400386,right,1.0159264159738086,None,,,,,,,,,,,,,,,,,,,,,,,,,,,,,,,,,,,,,,,,,,,318485,001,2024-12-08_15h57.42.876,Test,2024.2.4,None,2024-12-08 15h57.48.472654 +0100,
56,150,120,22,None,17,17,0,True,left,0.7784053329960443,None,,,,,,,,0,17,17,17,,,,,,,,,227.90141370898345,,,,,,,,,,,,,,,,,,,,,,,,,,,,,,,,,,,,,,227.89464941702317,227.90141370898345,228.88954604201717,229.88455104199238,229.88455104199238,229.88455104199238,230.6698318750132,left,0.7784053329960443,None,,,,,,,,,,,,,,,,,,,,,,,,,,,,,,,,,,,,,,,,,,,318485,001,2024-12-08_15h57.42.876,Test,2024.2.4,None,2024-12-08 15h57.48.472654 +0100,
17,150,90,38,None,18,18,0,False,left,1.2448358749970794,None,,,,,,,,0,18,18,18,,,,,,,,,230.68453670898452,,,,,,,,,,,,,,,,,,,,,,,,,,,,,,,,,,,,,,230.67825537500903,230.68453670898452,231.6725589169655,232.6677805419895,232.6677805419895,232.6677805419895,233.91994424996665,left,1.2448358749970794,None,,,,,,,,,,,,,,,,,,,,,,,,,,,,,,,,,,,,,,,,,,,318485,001,2024-12-08_15h57.42.876,Test,2024.2.4,None,2024-12-08 15h57.48.472654 +0100,
11,150,60,45,None,19,19,0,False,left,1.0518423339817673,None,,,,,,,,0,19,19,19,,,,,,,,,233.93502991698915,,,,,,,,,,,,,,,,,,,,,,,,,,,,,,,,,,,,,,233.92876379197696,233.93502991698915,234.92309370898874,235.9179457090213,235.9179457090213,235.9179457090213,236.97634233400458,left,1.0518423339817673,None,,,,,,,,,,,,,,,,,,,,,,,,,,,,,,,,,,,,,,,,,,,318485,001,2024-12-08_15h57.42.876,Test,2024.2.4,None,2024-12-08 15h57.48.472654 +0100,
49,150,60,67,None,20,20,0,True,right,1.1680579579551704,None,,,,,,,,0,20,20,20,,,,,,,,,236.99055929196766,,,,,,,,,,,,,,,,,,,,,,,,,,,,,,,,,,,,,,236.98470091697527,236.99055929196766,237.9845118749654,238.9750015839818,238.9750015839818,238.9750015839818,240.15318279201165,right,1.1680579579551704,None,,,,,,,,,,,,,,,,,,,,,,,,,,,,,,,,,,,,,,,,,,,318485,001,2024-12-08_15h57.42.876,Test,2024.2.4,None,2024-12-08 15h57.48.472654 +0100,
53,150,90,41,None,21,21,0,True,left,0.6431687499862164,None,,,,,,,,0,21,21,21,,,,,,,,,240.16862858401146,,,,,,,,,,,,,,,,,,,,,,,,,,,,,,,,,,,,,,240.16199970897287,240.16862858401146,241.15566545899492,242.15117041696794,242.15117041696794,242.15117041696794,242.80311083397828,left,0.6431687499862164,None,,,,,,,,,,,,,,,,,,,,,,,,,,,,,,,,,,,,,,,,,,,318485,001,2024-12-08_15h57.42.876,Test,2024.2.4,None,2024-12-08 15h57.48.472654 +0100,
67,150,180,13,None,22,22,0,True,right,1.2002534169587307,None,,,,,,,,0,22,22,22,,,,,,,,,242.81876066699624,,,,,,,,,,,,,,,,,,,,,,,,,,,,,,,,,,,,,,242.81240499997512,242.81876066699624,243.81770600000164,244.80105033400469,244.80105033400469,244.80105033400469,246.0040346669848,right,1.2002534169587307,None,,,,,,,,,,,,,,,,,,,,,,,,,,,,,,,,,,,,,,,,,,,318485,001,2024-12-08_15h57.42.876,Test,2024.2.4,None,2024-12-08 15h57.48.472654 +0100,
25,150,120,35,None,23,23,0,False,right,1.140428708982654,None,,,,,,,,0,23,23,23,,,,,,,,,246.01840262499172,,,,,,,,,,,,,,,,,,,,,,,,,,,,,,,,,,,,,,246.01241408399073,246.01840262499172,247.00646524998592,248.00114591699094,248.00114591699094,248.00114591699094,249.15175658400403,right,1.140428708982654,None,,,,,,,,,,,,,,,,,,,,,,,,,,,,,,,,,,,,,,,,,,,318485,001,2024-12-08_15h57.42.876,Test,2024.2.4,None,2024-12-08 15h57.48.472654 +0100,
40,150,0,16,None,24,24,0,True,left,1.1938587499898858,None,,,,,,,,0,24,24,24,,,,,,,,,249.16303112497553,,,,,,,,,,,,,,,,,,,,,,,,,,,,,,,,,,,,,,249.1584952499834,249.16303112497553,250.1562727090204,251.1410293339868,251.1410293339868,251.1410293339868,252.33804449997842,left,1.1938587499898858,None,,,,,,,,,,,,,,,,,,,,,,,,,,,,,,,,,,,,,,,,,,,318485,001,2024-12-08_15h57.42.876,Test,2024.2.4,None,2024-12-08 15h57.48.472654 +0100,
22,150,120,69,None,25,25,0,False,left,1.1179265839746222,None,,,,,,,,0,25,25,25,,,,,,,,,252.35260187496897,,,,,,,,,,,,,,,,,,,,,,,,,,,,,,,,,,,,,,252.34601958398707,252.35260187496897,253.35117220901884,254.33446024998557,254.33446024998557,254.33446024998557,255.45929554197937,left,1.1179265839746222,None,,,,,,,,,,,,,,,,,,,,,,,,,,,,,,,,,,,,,,,,,,,318485,001,2024-12-08_15h57.42.876,Test,2024.2.4,None,2024-12-08 15h57.48.472654 +0100,
46,150,60,64,None,26,26,0,True,right,1.0102363749756478,None,,,,,,,,0,26,26,26,,,,,,,,,255.47421508398838,,,,,,,,,,,,,,,,,,,,,,,,,,,,,,,,,,,,,,255.4680290420074,255.47421508398838,256.46774499997264,257.4580027089687,257.4580027089687,257.4580027089687,258.4712844589958,right,1.0102363749756478,None,,,,,,,,,,,,,,,,,,,,,,,,,,,,,,,,,,,,,,,,,,,318485,001,2024-12-08_15h57.42.876,Test,2024.2.4,None,2024-12-08 15h57.48.472654 +0100,
30,150,150,19,None,27,27,0,False,left,0.6908442919957452,None,,,,,,,,0,27,27,27,,,,,,,,,258.4860069589922,,,,,,,,,,,,,,,,,,,,,,,,,,,,,,,,,,,,,,258.47989324998343,258.4860069589922,259.48442612501094,260.46778483397793,260.46778483397793,260.46778483397793,261.16981200000737,left,0.6908442919957452,None,,,,,,,,,,,,,,,,,,,,,,,,,,,,,,,,,,,,,,,,,,,318485,001,2024-12-08_15h57.42.876,Test,2024.2.4,None,2024-12-08 15h57.48.472654 +0100,
43,150,30,40,None,28,28,0,True,left,1.0752802910283208,None,,,,,,,,0,28,28,28,,,,,,,,,261.18502166698454,,,,,,,,,,,,,,,,,,,,,,,,,,,,,,,,,,,,,,261.1785002499819,261.18502166698454,262.1726853749715,263.16775149997557,263.16775149997557,263.16775149997557,264.2531942920177,left,1.0752802910283208,None,,,,,,,,,,,,,,,,,,,,,,,,,,,,,,,,,,,,,,,,,,,318485,001,2024-12-08_15h57.42.876,Test,2024.2.4,None,2024-12-08 15h57.48.472654 +0100,
47,150,60,57,None,29,29,0,True,left,1.9505181250278838,None,,,,,,,,0,29,29,29,,,,,,,,,264.2690709590097,,,,,,,,,,,,,,,,,,,,,,,,,,,,,,,,,,,,,,264.2622653750004,264.2690709590097,265.2677520000143,266.25107583397767,266.25107583397767,266.25107583397767,268.2045233339886,left,1.9505181250278838,None,,,,,,,,,,,,,,,,,,,,,,,,,,,,,,,,,,,,,,,,,,,318485,001,2024-12-08_15h57.42.876,Test,2024.2.4,None,2024-12-08 15h57.48.472654 +0100,
19,150,90,48,None,30,30,0,False,left,0.7717446659808047,None,,,,,,,,0,30,30,30,,,,,,,,,268.22007341700373,,,,,,,,,,,,,,,,,,,,,,,,,,,,,,,,,,,,,,268.2133230419713,268.22007341700373,269.21767191699473,270.20123191701714,270.20123191701714,270.20123191701714,270.9762384169735,left,0.7717446659808047,None,,,,,,,,,,,,,,,,,,,,,,,,,,,,,,,,,,,,,,,,,,,318485,001,2024-12-08_15h57.42.876,Test,2024.2.4,None,2024-12-08 15h57.48.472654 +0100,
26,150,150,61,None,31,31,0,False,right,1.496795832994394,None,,,,,,,,0,31,31,31,,,,,,,,,270.9909999590018,,,,,,,,,,,,,,,,,,,,,,,,,,,,,,,,,,,,,,270.98456299997633,270.9909999590018,271.98965549998684,272.9754168340005,272.9754168340005,272.9754168340005,274.47634541697334,right,1.496795832994394,None,,,,,,,,,,,,,,,,,,,,,,,,,,,,,,,,,,,,,,,,,,,318485,001,2024-12-08_15h57.42.876,Test,2024.2.4,None,2024-12-08 15h57.48.472654 +0100,
7,150,30,63,None,32,32,0,False,left,1.1937926249811426,None,,,,,,,,0,32,32,32,,,,,,,,,274.4908365000156,,,,,,,,,,,,,,,,,,,,,,,,,,,,,,,,,,,,,,274.48473575001117,274.4908365000156,275.4843334169709,276.47482329199556,276.47482329199556,276.47482329199556,277.6791424169787,left,1.1937926249811426,None,,,,,,,,,,,,,,,,,,,,,,,,,,,,,,,,,,,,,,,,,,,318485,001,2024-12-08_15h57.42.876,Test,2024.2.4,None,2024-12-08 15h57.48.472654 +0100,
65,150,150,34,None,33,33,0,True,right,1.2214230000390671,None,,,,,,,,0,33,33,33,,,,,,,,,277.700352291984,,,,,,,,,,,,,,,,,,,,,,,,,,,,,,,,,,,,,,277.6955219170195,277.700352291984,278.6897183340043,279.6798729170114,279.6798729170114,279.6798729170114,280.9037889589672,right,1.2214230000390671,None,,,,,,,,,,,,,,,,,,,,,,,,,,,,,,,,,,,,,,,,,,,318485,001,2024-12-08_15h57.42.876,Test,2024.2.4,None,2024-12-08 15h57.48.472654 +0100,
57,150,120,31,None,34,34,0,True,left,0.9693930420326069,None,,,,,,,,0,34,34,34,,,,,,,,,280.9202134590014,,,,,,,,,,,,,,,,,,,,,,,,,,,,,,,,,,,,,,280.9139364589937,280.9202134590014,281.9178148750216,282.9011100839707,282.9011100839707,282.9011100839707,283.8758434589836,left,0.9693930420326069,None,,,,,,,,,,,,,,,,,,,,,,,,,,,,,,,,,,,,,,,,,,,318485,001,2024-12-08_15h57.42.876,Test,2024.2.4,None,2024-12-08 15h57.48.472654 +0100,
5,150,0,4,None,35,35,0,False,left,0.9934045829577371,None,,,,,,,,0,35,35,35,,,,,,,,,283.89123133401154,,,,,,,,,,,,,,,,,,,,,,,,,,,,,,,,,,,,,,283.8847951670177,283.89123133401154,284.88890316698235,285.8748938749777,285.8748938749777,285.8748938749777,286.8711845839862,left,0.9934045829577371,None,,,,,,,,,,,,,,,,,,,,,,,,,,,,,,,,,,,,,,,,,,,318485,001,2024-12-08_15h57.42.876,Test,2024.2.4,None,2024-12-08 15h57.48.472654 +0100,
9,150,30,26,None,36,36,0,False,left,1.0606444170116447,None,,,,,,,,0,36,36,36,,,,,,,,,286.8857423749869,,,,,,,,,,,,,,,,,,,,,,,,,,,,,,,,,,,,,,286.8796451250091,286.8857423749869,287.88449949998176,288.868095333979,288.868095333979,288.868095333979,289.9365747090196,left,1.0606444170116447,None,,,,,,,,,,,,,,,,,,,,,,,,,,,,,,,,,,,,,,,,,,,318485,001,2024-12-08_15h57.42.876,Test,2024.2.4,None,2024-12-08 15h57.48.472654 +0100,
42,150,30,36,None,37,37,0,True,left,1.1260720830177888,None,,,,,,,,0,37,37,37,,,,,,,,,289.9519170419662,,,,,,,,,,,,,,,,,,,,,,,,,,,,,,,,,,,,,,289.94545283401385,289.9519170419662,290.939738459012,291.93463137501385,291.93463137501385,291.93463137501385,293.0698435839731,left,1.1260720830177888,None,,,,,,,,,,,,,,,,,,,,,,,,,,,,,,,,,,,,,,,,,,,318485,001,2024-12-08_15h57.42.876,Test,2024.2.4,None,2024-12-08 15h57.48.472654 +0100,
61,150,150,54,None,38,38,0,True,left,0.8542399170110002,None,,,,,,,,0,38,38,38,,,,,,,,,293.08554875000846,,,,,,,,,,,,,,,,,,,,,,,,,,,,,,,,,,,,,,293.0787545000203,293.08554875000846,294.0844237499987,295.0678406669758,295.0678406669758,295.0678406669758,295.9257105839788,left,0.8542399170110002,None,,,,,,,,,,,,,,,,,,,,,,,,,,,,,,,,,,,,,,,,,,,318485,001,2024-12-08_15h57.42.876,Test,2024.2.4,None,2024-12-08 15h57.48.472654 +0100,
10,150,30,43,None,39,39,0,False,left,0.7542570829973556,None,,,,,,,,0,39,39,39,,,,,,,,,295.9409246669966,,,,,,,,,,,,,,,,,,,,,,,,,,,,,,,,,,,,,,295.93482625001343,295.9409246669966,296.9343811669969,297.9253418750013,297.9253418750013,297.9253418750013,298.68643724999856,left,0.7542570829973556,None,,,,,,,,,,,,,,,,,,,,,,,,,,,,,,,,,,,,,,,,,,,318485,001,2024-12-08_15h57.42.876,Test,2024.2.4,None,2024-12-08 15h57.48.472654 +0100,
51,150,90,5,None,40,40,0,True,left,0.8007809160044417,None,,,,,,,,0,40,40,40,,,,,,,,,298.7014047090197,,,,,,,,,,,,,,,,,,,,,,,,,,,,,,,,,,,,,,298.6950476249913,298.7014047090197,299.68964183400385,300.6845996250049,300.6845996250049,300.6845996250049,301.4925715419813,left,0.8007809160044417,None,,,,,,,,,,,,,,,,,,,,,,,,,,,,,,,,,,,,,,,,,,,318485,001,2024-12-08_15h57.42.876,Test,2024.2.4,None,2024-12-08 15h57.48.472654 +0100,
39,150,0,15,None,41,41,0,True,right,1.3133619999862276,None,,,,,,,,0,41,41,41,,,,,,,,,301.5071689999895,,,,,,,,,,,,,,,,,,,,,,,,,,,,,,,,,,,,,,301.50129145901883,301.5071689999895,302.5010701249703,303.4922992499778,303.4922992499778,303.4922992499778,304.80899991700426,right,1.3133619999862276,None,,,,,,,,,,,,,,,,,,,,,,,,,,,,,,,,,,,,,,,,,,,318485,001,2024-12-08_15h57.42.876,Test,2024.2.4,None,2024-12-08 15h57.48.472654 +0100,
70,150,180,29,None,42,42,0,True,left,0.7508786669932306,None,,,,,,,,0,42,42,42,,,,,,,,,304.82446916698245,,,,,,,,,,,,,,,,,,,,,,,,,,,,,,,,,,,,,,304.81811574997846,304.82446916698245,305.82299679197604,306.80862387496745,306.80862387496745,306.80862387496745,307.5699351669755,left,0.7508786669932306,None,,,,,,,,,,,,,,,,,,,,,,,,,,,,,,,,,,,,,,,,,,,318485,001,2024-12-08_15h57.42.876,Test,2024.2.4,None,2024-12-08 15h57.48.472654 +0100,
14,150,60,55,None,43,43,0,False,left,1.0676632089889608,None,,,,,,,,0,43,43,43,,,,,,,,,307.5847292090184,,,,,,,,,,,,,,,,,,,,,,,,,,,,,,,,,,,,,,307.57857054198394,307.5847292090184,308.5723673750181,309.5679123339942,309.5679123339942,309.5679123339942,310.64280704199336,left,1.0676632089889608,None,,,,,,,,,,,,,,,,,,,,,,,,,,,,,,,,,,,,,,,,,,,318485,001,2024-12-08_15h57.42.876,Test,2024.2.4,None,2024-12-08 15h57.48.472654 +0100,
64,150,150,12,None,44,44,0,True,left,0.8433142920257524,None,,,,,,,,0,44,44,44,,,,,,,,,310.6569462919724,,,,,,,,,,,,,,,,,,,,,,,,,,,,,,,,,,,,,,310.65115499997046,310.6569462919724,311.65124904201366,312.64203570899554,312.64203570899554,312.64203570899554,313.4965191250085,left,0.8433142920257524,None,,,,,,,,,,,,,,,,,,,,,,,,,,,,,,,,,,,,,,,,,,,318485,001,2024-12-08_15h57.42.876,Test,2024.2.4,None,2024-12-08 15h57.48.472654 +0100,
20,150,90,47,None,45,45,0,False,left,1.2311466669780202,None,,,,,,,,0,45,45,45,,,,,,,,,313.50825637497474,,,,,,,,,,,,,,,,,,,,,,,,,,,,,,,,,,,,,,313.503331083979,313.50825637497474,314.5065215000068,315.49145891697844,315.49145891697844,315.49145891697844,316.726118666993,left,1.2311466669780202,None,,,,,,,,,,,,,,,,,,,,,,,,,,,,,,,,,,,,,,,,,,,318485,001,2024-12-08_15h57.42.876,Test,2024.2.4,None,2024-12-08 15h57.48.472654 +0100,
50,150,60,28,None,46,46,0,True,left,1.2995062920381315,None,,,,,,,,0,46,46,46,,,,,,,,,316.74131283396855,,,,,,,,,,,,,,,,,,,,,,,,,,,,,,,,,,,,,,316.73453687498113,316.74131283396855,317.7398201249889,318.725832791999,318.725832791999,318.725832791999,320.03648599999724,left,1.2995062920381315,None,,,,,,,,,,,,,,,,,,,,,,,,,,,,,,,,,,,,,,,,,,,318485,001,2024-12-08_15h57.42.876,Test,2024.2.4,None,2024-12-08 15h57.48.472654 +0100,
16,150,90,30,None,47,47,0,False,right,0.9291700000176206,None,,,,,,,,0,47,47,47,,,,,,,,,320.051978375006,,,,,,,,,,,,,,,,,,,,,,,,,,,,,,,,,,,,,,320.0455557089881,320.051978375006,321.0388254590216,322.034482499992,322.034482499992,322.034482499992,322.96987441700185,right,0.9291700000176206,None,,,,,,,,,,,,,,,,,,,,,,,,,,,,,,,,,,,,,,,,,,,318485,001,2024-12-08_15h57.42.876,Test,2024.2.4,None,2024-12-08 15h57.48.472654 +0100,
32,150,180,65,None,48,48,0,False,right,1.0335416669840924,None,,,,,,,,0,48,48,48,,,,,,,,,322.9848286670167,,,,,,,,,,,,,,,,,,,,,,,,,,,,,,,,,,,,,,322.9784150000196,322.9848286670167,323.97304937499575,324.96789787500165,324.96789787500165,324.96789787500165,326.0038365420187,right,1.0335416669840924,None,,,,,,,,,,,,,,,,,,,,,,,,,,,,,,,,,,,,,,,,,,,318485,001,2024-12-08_15h57.42.876,Test,2024.2.4,None,2024-12-08 15h57.48.472654 +0100,
33,150,180,6,None,49,49,0,False,right,0.924705957993865,None,,,,,,,,0,49,49,49,,,,,,,,,326.01783579197945,,,,,,,,,,,,,,,,,,,,,,,,,,,,,,,,,,,,,,326.01188912498765,326.01783579197945,327.00582070898963,328.0012716249912,328.0012716249912,328.0012716249912,328.93652787501924,right,0.924705957993865,None,,,,,,,,,,,,,,,,,,,,,,,,,,,,,,,,,,,,,,,,,,,318485,001,2024-12-08_15h57.42.876,Test,2024.2.4,None,2024-12-08 15h57.48.472654 +0100,
27,150,150,62,None,50,50,0,False,right,1.5210279159946367,None,,,,,,,,0,50,50,50,,,,,,,,,328.9517517919885,,,,,,,,,,,,,,,,,,,,,,,,,,,,,,,,,,,,,,328.9452329169726,328.9517517919885,329.93938691698713,330.9344957090216,330.9344957090216,330.9344957090216,332.4591647919733,right,1.5210279159946367,None,,,,,,,,,,,,,,,,,,,,,,,,,,,,,,,,,,,,,,,,,,,318485,001,2024-12-08_15h57.42.876,Test,2024.2.4,None,2024-12-08 15h57.48.472654 +0100,
23,150,120,39,None,51,51,0,False,right,1.005644167016726,None,,,,,,,,0,51,51,51,,,,,,,,,332.47457433398813,,,,,,,,,,,,,,,,,,,,,,,,,,,,,,,,,,,,,,332.4684466670151,332.47457433398813,333.47303195897257,334.4598232919816,334.4598232919816,334.4598232919816,335.4696597500006,right,1.005644167016726,None,,,,,,,,,,,,,,,,,,,,,,,,,,,,,,,,,,,,,,,,,,,318485,001,2024-12-08_15h57.42.876,Test,2024.2.4,None,2024-12-08 15h57.48.472654 +0100,
18,150,90,32,None,52,52,0,False,left,0.8718834580504335,None,,,,,,,,0,52,52,52,,,,,,,,,335.4841704170103,,,,,,,,,,,,,,,,,,,,,,,,,,,,,,,,,,,,,,335.4782307089772,335.4841704170103,336.4725309169735,337.4677802089718,337.4677802089718,337.4677802089718,338.34325266699307,left,0.8718834580504335,None,,,,,,,,,,,,,,,,,,,,,,,,,,,,,,,,,,,,,,,,,,,318485,001,2024-12-08_15h57.42.876,Test,2024.2.4,None,2024-12-08 15h57.48.472654 +0100,
24,150,120,11,None,53,53,0,False,right,1.0376112909871154,None,,,,,,,,0,53,53,53,,,,,,,,,338.35815354197985,,,,,,,,,,,,,,,,,,,,,,,,,,,,,,,,,,,,,,338.35132270900067,338.35815354197985,339.3562220839667,340.3414351249812,340.3414351249812,340.3414351249812,341.3867289170157,right,1.0376112909871154,None,,,,,,,,,,,,,,,,,,,,,,,,,,,,,,,,,,,,,,,,,,,318485,001,2024-12-08_15h57.42.876,Test,2024.2.4,None,2024-12-08 15h57.48.472654 +0100,
48,150,60,58,None,54,54,0,True,left,0.7431724999914877,None,,,,,,,,0,54,54,54,,,,,,,,,341.4015650419751,,,,,,,,,,,,,,,,,,,,,,,,,,,,,,,,,,,,,,341.39533183397725,341.4015650419751,342.38917112501804,343.3846766250208,343.3846766250208,343.3846766250208,344.136589583999,left,0.7431724999914877,None,,,,,,,,,,,,,,,,,,,,,,,,,,,,,,,,,,,,,,,,,,,318485,001,2024-12-08_15h57.42.876,Test,2024.2.4,None,2024-12-08 15h57.48.472654 +0100,
55,150,90,49,None,55,55,0,True,left,0.8566410419880413,None,,,,,,,,0,55,55,55,,,,,,,,,344.1519739999785,,,,,,,,,,,,,,,,,,,,,,,,,,,,,,,,,,,,,,344.14598820899846,344.1519739999785,345.1396002920228,346.13450891699176,346.13450891699176,346.13450891699176,347.003401709022,left,0.8566410419880413,None,,,,,,,,,,,,,,,,,,,,,,,,,,,,,,,,,,,,,,,,,,,318485,001,2024-12-08_15h57.42.876,Test,2024.2.4,None,2024-12-08 15h57.48.472654 +0100,
62,150,150,2,None,56,56,0,True,left,0.8178178340313025,None,,,,,,,,0,56,56,56,,,,,,,,,347.0205929999938,,,,,,,,,,,,,,,,,,,,,,,,,,,,,,,,,,,,,,347.013283999986,347.0205929999938,348.0176272499957,349.0012265840196,349.0012265840196,349.0012265840196,349.8259256249876,left,0.8178178340313025,None,,,,,,,,,,,,,,,,,,,,,,,,,,,,,,,,,,,,,,,,,,,318485,001,2024-12-08_15h57.42.876,Test,2024.2.4,None,2024-12-08 15h57.48.472654 +0100,
1,150,0,21,None,57,57,0,False,right,1.1048380000283942,None,,,,,,,,0,57,57,57,,,,,,,,,349.8406374999904,,,,,,,,,,,,,,,,,,,,,,,,,,,,,,,,,,,,,,349.83461320900824,349.8406374999904,350.8343645000132,351.8248156249756,351.8248156249756,351.8248156249756,352.93654504197184,right,1.1048380000283942,None,,,,,,,,,,,,,,,,,,,,,,,,,,,,,,,,,,,,,,,,,,,318485,001,2024-12-08_15h57.42.876,Test,2024.2.4,None,2024-12-08 15h57.48.472654 +0100,
38,150,0,23,None,58,58,0,True,left,1.4266562089906074,None,,,,,,,,0,58,58,58,,,,,,,,,352.9518044589786,,,,,,,,,,,,,,,,,,,,,,,,,,,,,,,,,,,,,,352.9454253339791,352.9518044589786,353.9388600420207,354.93451649998315,354.93451649998315,354.93451649998315,356.3700191670214,left,1.4266562089906074,None,,,,,,,,,,,,,,,,,,,,,,,,,,,,,,,,,,,,,,,,,,,318485,001,2024-12-08_15h57.42.876,Test,2024.2.4,None,2024-12-08 15h57.48.472654 +0100,
58,150,120,52,None,59,59,0,True,left,0.9585954579524696,None,,,,,,,,0,59,59,59,,,,,,,,,356.38560729200253,,,,,,,,,,,,,,,,,,,,,,,,,,,,,,,,,,,,,,356.37913583399495,356.38560729200253,357.3845157090109,358.36784591700416,358.36784591700416,358.36784591700416,359.33711374999257,left,0.9585954579524696,None,,,,,,,,,,,,,,,,,,,,,,,,,,,,,,,,,,,,,,,,,,,318485,001,2024-12-08_15h57.42.876,Test,2024.2.4,None,2024-12-08 15h57.48.472654 +0100,
35,150,180,14,None,60,60,0,False,left,1.0388269589748234,None,,,,,,,,0,60,60,60,,,,,,,,,359.3529090419761,,,,,,,,,,,,,,,,,,,,,,,,,,,,,,,,,,,,,,359.34622779197525,359.3529090419761,360.35113504197216,361.3345471249777,361.3345471249777,361.3345471249777,362.3762336249929,left,1.0388269589748234,None,,,,,,,,,,,,,,,,,,,,,,,,,,,,,,,,,,,,,,,,,,,318485,001,2024-12-08_15h57.42.876,Test,2024.2.4,None,2024-12-08 15h57.48.472654 +0100,
4,150,0,24,None,61,61,0,False,left,1.0262240000301972,None,,,,,,,,0,61,61,61,,,,,,,,,362.3907800419838,,,,,,,,,,,,,,,,,,,,,,,,,,,,,,,,,,,,,,362.3847823339747,362.3907800419838,363.3844820000231,364.3751806669752,364.3751806669752,364.3751806669752,365.40417604200775,left,1.0262240000301972,None,,,,,,,,,,,,,,,,,,,,,,,,,,,,,,,,,,,,,,,,,,,318485,001,2024-12-08_15h57.42.876,Test,2024.2.4,None,2024-12-08 15h57.48.472654 +0100,
63,150,150,68,None,62,62,0,True,right,0.8546437089680694,None,,,,,,,,0,62,62,62,,,,,,,,,365.41886895900825,,,,,,,,,,,,,,,,,,,,,,,,,,,,,,,,,,,,,,365.4127567089745,365.41886895900825,366.4176587499678,367.40117379202275,367.40117379202275,367.40117379202275,368.2595459999866,right,0.8546437089680694,None,,,,,,,,,,,,,,,,,,,,,,,,,,,,,,,,,,,,,,,,,,,318485,001,2024-12-08_15h57.42.876,Test,2024.2.4,None,2024-12-08 15h57.48.472654 +0100,
66,150,180,8,None,63,63,0,True,left,1.2940342499641702,None,,,,,,,,0,63,63,63,,,,,,,,,368.27405841700966,,,,,,,,,,,,,,,,,,,,,,,,,,,,,,,,,,,,,,368.2680800000089,368.27405841700966,369.2679478750215,370.25840895896545,370.25840895896545,370.25840895896545,371.5591406250023,left,1.2940342499641702,None,,,,,,,,,,,,,,,,,,,,,,,,,,,,,,,,,,,,,,,,,,,318485,001,2024-12-08_15h57.42.876,Test,2024.2.4,None,2024-12-08 15h57.48.472654 +0100,
6,150,30,10,None,64,64,0,False,left,1.311324667010922,None,,,,,,,,0,64,64,64,,,,,,,,,371.5726472089882,,,,,,,,,,,,,,,,,,,,,,,,,,,,,,,,,,,,,,371.56691062496975,371.5726472089882,372.5677349999896,373.5593959169928,373.5593959169928,373.5593959169928,374.8762115419959,left,1.311324667010922,None,,,,,,,,,,,,,,,,,,,,,,,,,,,,,,,,,,,,,,,,,,,318485,001,2024-12-08_15h57.42.876,Test,2024.2.4,None,2024-12-08 15h57.48.472654 +0100,
2,150,0,53,None,65,65,0,False,left,0.716853457968682,None,,,,,,,,0,65,65,65,,,,,,,,,374.8911493750056,,,,,,,,,,,,,,,,,,,,,,,,,,,,,,,,,,,,,,374.88515704200836,374.8911493750056,375.89015812496655,376.87499337497866,376.87499337497866,376.87499337497866,377.6032635839656,left,0.716853457968682,None,,,,,,,,,,,,,,,,,,,,,,,,,,,,,,,,,,,,,,,,,,,318485,001,2024-12-08_15h57.42.876,Test,2024.2.4,None,2024-12-08 15h57.48.472654 +0100,
54,150,90,51,None,66,66,0,True,left,0.9256015000282787,None,,,,,,,,0,66,66,66,,,,,,,,,377.6192208339926,,,,,,,,,,,,,,,,,,,,,,,,,,,,,,,,,,,,,,377.6122529999702,377.6192208339926,378.6176989169908,379.60113024996826,379.60113024996826,379.60113024996826,380.53665575000923,left,0.9256015000282787,None,,,,,,,,,,,,,,,,,,,,,,,,,,,,,,,,,,,,,,,,,,,318485,001,2024-12-08_15h57.42.876,Test,2024.2.4,None,2024-12-08 15h57.48.472654 +0100,
21,150,120,1,None,67,67,0,False,left,1.0218844590126537,None,,,,,,,,0,67,67,67,,,,,,,,,380.5526678339811,,,,,,,,,,,,,,,,,,,,,,,,,,,,,,,,,,,,,,380.54603495897027,380.5526678339811,381.55111800000304,382.5344202090055,382.5344202090055,382.5344202090055,383.5596377089969,left,1.0218844590126537,None,,,,,,,,,,,,,,,,,,,,,,,,,,,,,,,,,,,,,,,,,,,318485,001,2024-12-08_15h57.42.876,Test,2024.2.4,None,2024-12-08 15h57.48.472654 +0100,
13,150,60,56,None,68,68,0,False,left,1.2644190829596482,None,,,,,,,,0,68,68,68,,,,,,,,,383.57433733402286,,,,,,,,,,,,,,,,,,,,,,,,,,,,,,,,,,,,,,383.568038583966,383.57433733402286,384.5731112919748,385.55830487498315,385.55830487498315,385.55830487498315,386.8256600419991,left,1.2644190829596482,None,,,,,,,,,,,,,,,,,,,,,,,,,,,,,,,,,,,,,,,,,,,318485,001,2024-12-08_15h57.42.876,Test,2024.2.4,None,2024-12-08 15h57.48.472654 +0100,
29,150,150,44,None,69,69,0,False,left,1.0166610840242356,None,,,,,,,,0,69,69,69,,,,,,,,,386.83956258400576,,,,,,,,,,,,,,,,,,,,,,,,,,,,,,,,,,,,,,386.8338029169827,386.83956258400576,387.8344143339782,388.8250973749673,388.8250973749673,388.8250973749673,389.8531809169799,left,1.0166610840242356,None,,,,,,,,,,,,,,,,,,,,,,,,,,,,,,,,,,,,,,,,,,,318485,001,2024-12-08_15h57.42.876,Test,2024.2.4,None,2024-12-08 15h57.48.472654 +0100,
,,,,,,,,,,,,,,,,,,,,,,,,,,,,,,,,,,,,,,,,,,,,,,,,,,,,,,,,,,,,,,,,,,,,,,,,,,,,,,,389.85346179199405,389.86348883400206,389.86348883400206,395.58591020898893,space,5.715268041996751,None,,,,,,,,,,,,,,,,,,,,,,,,,,,,,,,,,,,,318485,001,2024-12-08_15h57.42.876,Test,2024.2.4,None,2024-12-08 15h57.48.472654 +0100,
18,150,90,32,None,0,0,0,,,,,,,,,,,,,,,,0,0,0,17,,,,,395.60777745902305,,,,,,,,,,,,,,,,,,,,,,,,,,,,,,,,,,,,,,,,,,,,,,,,,,,,,,,395.59956887498265,395.60777745902305,395.7845889169839,395.7845889169839,395.8011713749729,397.4833384170197,397.4833384170197,397.4697420420125,,,,,,,,,,,,,,,,,,,,,,,,,,,,318485,001,2024-12-08_15h57.42.876,Test,2024.2.4,None,2024-12-08 15h57.48.472654 +0100,
31,150,180,59,None,1,1,0,,,,,,,,,,,,,,,,0,1,1,30,,,,,397.4833384170197,,,,,,,,,,,,,,,,,,,,,,,,,,,,,,,,,,,,,,,,,,,,,,,,,,,,,,,397.4785847919993,397.4874168749666,397.6844775839709,397.6844775839709,397.6844775839709,399.38234629196813,399.38234629196813,399.368808209023,,,,,,,,,,,,,,,,,,,,,,,,,,,,318485,001,2024-12-08_15h57.42.876,Test,2024.2.4,None,2024-12-08 15h57.48.472654 +0100,
29,150,150,44,None,2,2,0,,,,,,,,,,,,,,,,0,2,2,28,,,,,399.38234629196813,,,,,,,,,,,,,,,,,,,,,,,,,,,,,,,,,,,,,,,,,,,,,,,,,,,,,,,399.37741929199547,399.3871702089673,399.5845962499734,399.5845962499734,399.5845962499734,401.2824435000075,401.2824435000075,401.2687118339818,,,,,,,,,,,,,,,,,,,,,,,,,,,,318485,001,2024-12-08_15h57.42.876,Test,2024.2.4,None,2024-12-08 15h57.48.472654 +0100,
11,150,60,45,None,3,3,0,,,,,,,,,,,,,,,,0,3,3,10,,,,,401.2824435000075,,,,,,,,,,,,,,,,,,,,,,,,,,,,,,,,,,,,,,,,,,,,,,,,,,,,,,,401.27739050000673,401.2871400840231,401.484408874996,401.484408874996,401.484408874996,403.1825281250058,403.1825281250058,403.1688178749755,,,,,,,,,,,,,,,,,,,,,,,,,,,,318485,001,2024-12-08_15h57.42.876,Test,2024.2.4,None,2024-12-08 15h57.48.472654 +0100,
12,150,60,42,None,4,4,0,,,,,,,,,,,,,,,,0,4,4,11,,,,,403.1825281250058,,,,,,,,,,,,,,,,,,,,,,,,,,,,,,,,,,,,,,,,,,,,,,,,,,,,,,,403.17761337500997,403.1865291669965,403.38469458400505,403.38469458400505,403.38469458400505,405.0818723340053,405.0818723340053,405.0689586669905,,,,,,,,,,,,,,,,,,,,,,,,,,,,318485,001,2024-12-08_15h57.42.876,Test,2024.2.4,None,2024-12-08 15h57.48.472654 +0100,
8,150,30,46,None,5,5,0,,,,,,,,,,,,,,,,0,5,5,7,,,,,405.0818723340053,,,,,,,,,,,,,,,,,,,,,,,,,,,,,,,,,,,,,,,,,,,,,,,,,,,,,,,405.07705879199784,405.08641716698185,405.2845950839692,405.2845950839692,405.2845950839692,406.9821978749824,406.9821978749824,406.9687571669929,,,,,,,,,,,,,,,,,,,,,,,,,,,,318485,001,2024-12-08_15h57.42.876,Test,2024.2.4,None,2024-12-08 15h57.48.472654 +0100,
33,150,180,6,None,6,6,0,,,,,,,,,,,,,,,,0,6,6,32,,,,,406.9821978749824,,,,,,,,,,,,,,,,,,,,,,,,,,,,,,,,,,,,,,,,,,,,,,,,,,,,,,,406.9773492499953,406.98697808396537,407.18441729201004,407.18441729201004,407.18441729201004,408.8825174170197,408.8825174170197,408.86875479196897,,,,,,,,,,,,,,,,,,,,,,,,,,,,318485,001,2024-12-08_15h57.42.876,Test,2024.2.4,None,2024-12-08 15h57.48.472654 +0100,
28,150,150,9,None,7,7,0,,,,,,,,,,,,,,,,0,7,7,27,,,,,408.8825174170197,,,,,,,,,,,,,,,,,,,,,,,,,,,,,,,,,,,,,,,,,,,,,,,,,,,,,,,408.87763791700127,408.8869857499958,409.08458808402065,409.08458808402065,409.08458808402065,410.7821788750007,410.7821788750007,410.7686608340009,,,,,,,,,,,,,,,,,,,,,,,,,,,,318485,001,2024-12-08_15h57.42.876,Test,2024.2.4,None,2024-12-08 15h57.48.472654 +0100,
23,150,120,39,None,8,8,0,,,,,,,,,,,,,,,,0,8,8,22,,,,,410.7821788750007,,,,,,,,,,,,,,,,,,,,,,,,,,,,,,,,,,,,,,,,,,,,,,,,,,,,,,,410.7773272090126,410.7869879589998,410.98467187501956,410.98467187501956,410.98467187501956,412.681531041977,412.681531041977,412.66867887502303,,,,,,,,,,,,,,,,,,,,,,,,,,,,318485,001,2024-12-08_15h57.42.876,Test,2024.2.4,None,2024-12-08 15h57.48.472654 +0100,
22,150,120,69,None,9,9,0,,,,,,,,,,,,,,,,0,9,9,21,,,,,412.681531041977,,,,,,,,,,,,,,,,,,,,,,,,,,,,,,,,,,,,,,,,,,,,,,,,,,,,,,,412.6767354999902,412.68553779198555,412.88453237497015,412.88453237497015,412.88453237497015,414.5815734589705,414.5815734589705,414.5689941669698,,,,,,,,,,,,,,,,,,,,,,,,,,,,318485,001,2024-12-08_15h57.42.876,Test,2024.2.4,None,2024-12-08 15h57.48.472654 +0100,
17,150,90,38,None,10,10,0,,,,,,,,,,,,,,,,0,10,10,16,,,,,414.5815734589705,,,,,,,,,,,,,,,,,,,,,,,,,,,,,,,,,,,,,,,,,,,,,,,,,,,,,,,414.57681662502,414.58616008399986,414.7845550419879,414.7845550419879,414.7845550419879,416.48687083402183,416.48687083402183,416.46873558399966,,,,,,,,,,,,,,,,,,,,,,,,,,,,318485,001,2024-12-08_15h57.42.876,Test,2024.2.4,None,2024-12-08 15h57.48.472654 +0100,
27,150,150,62,None,11,11,0,,,,,,,,,,,,,,,,0,11,11,26,,,,,416.48687083402183,,,,,,,,,,,,,,,,,,,,,,,,,,,,,,,,,,,,,,,,,,,,,,,,,,,,,,,416.482132583973,416.50105058401823,416.6829833749798,416.6829833749798,416.7012315840111,418.3829607500229,418.3829607500229,418.3690341669717,,,,,,,,,,,,,,,,,,,,,,,,,,,,318485,001,2024-12-08_15h57.42.876,Test,2024.2.4,None,2024-12-08 15h57.48.472654 +0100,
25,150,120,35,None,12,12,0,,,,,,,,,,,,,,,,0,12,12,24,,,,,418.3829607500229,,,,,,,,,,,,,,,,,,,,,,,,,,,,,,,,,,,,,,,,,,,,,,,,,,,,,,,418.37784874998033,418.3869637500029,418.58455233398126,418.58455233398126,418.58455233398126,420.2811965000001,420.2811965000001,420.2684584169765,,,,,,,,,,,,,,,,,,,,,,,,,,,,318485,001,2024-12-08_15h57.42.876,Test,2024.2.4,None,2024-12-08 15h57.48.472654 +0100,
14,150,60,55,None,13,13,0,,,,,,,,,,,,,,,,0,13,13,13,,,,,420.2811965000001,,,,,,,,,,,,,,,,,,,,,,,,,,,,,,,,,,,,,,,,,,,,,,,,,,,,,,,420.27624004200334,420.28583295899443,420.4846134170075,420.4846134170075,420.4846134170075,422.18199520901544,422.18199520901544,422.16875862499,,,,,,,,,,,,,,,,,,,,,,,,,,,,318485,001,2024-12-08_15h57.42.876,Test,2024.2.4,None,2024-12-08 15h57.48.472654 +0100,
15,150,60,60,None,14,14,0,,,,,,,,,,,,,,,,0,14,14,14,,,,,422.18199520901544,,,,,,,,,,,,,,,,,,,,,,,,,,,,,,,,,,,,,,,,,,,,,,,,,,,,,,,422.17690445901826,422.1867086249986,422.384728333971,422.384728333971,422.384728333971,424.08183037501294,424.08183037501294,424.06900575000327,,,,,,,,,,,,,,,,,,,,,,,,,,,,318485,001,2024-12-08_15h57.42.876,Test,2024.2.4,None,2024-12-08 15h57.48.472654 +0100,
34,150,180,66,None,15,15,0,,,,,,,,,,,,,,,,0,15,15,33,,,,,424.08183037501294,,,,,,,,,,,,,,,,,,,,,,,,,,,,,,,,,,,,,,,,,,,,,,,,,,,,,,,424.0767696669791,424.08612524997443,424.284489416983,424.284489416983,424.284489416983,425.9824796249741,425.9824796249741,425.96872975002043,,,,,,,,,,,,,,,,,,,,,,,,,,,,318485,001,2024-12-08_15h57.42.876,Test,2024.2.4,None,2024-12-08 15h57.48.472654 +0100,
4,150,0,24,None,16,16,0,,,,,,,,,,,,,,,,0,16,16,3,,,,,425.9824796249741,,,,,,,,,,,,,,,,,,,,,,,,,,,,,,,,,,,,,,,,,,,,,,,,,,,,,,,425.97743079200154,425.98726054199506,426.1844594589784,426.1844594589784,426.1844594589784,427.8815033339779,427.8815033339779,427.8688128339709,,,,,,,,,,,,,,,,,,,,,,,,,,,,318485,001,2024-12-08_15h57.42.876,Test,2024.2.4,None,2024-12-08 15h57.48.472654 +0100,
3,150,0,70,None,17,17,0,,,,,,,,,,,,,,,,0,17,17,2,,,,,427.8815033339779,,,,,,,,,,,,,,,,,,,,,,,,,,,,,,,,,,,,,,,,,,,,,,,,,,,,,,,427.8764915000065,427.8862761670025,428.0845323749818,428.0845323749818,428.0845323749818,429.78218924999237,429.78218924999237,429.7687014589901,,,,,,,,,,,,,,,,,,,,,,,,,,,,318485,001,2024-12-08_15h57.42.876,Test,2024.2.4,None,2024-12-08 15h57.48.472654 +0100,
16,150,90,30,None,18,18,0,,,,,,,,,,,,,,,,0,18,18,15,,,,,429.78218924999237,,,,,,,,,,,,,,,,,,,,,,,,,,,,,,,,,,,,,,,,,,,,,,,,,,,,,,,429.7772598749725,429.78674916701857,429.9845628339681,429.9845628339681,429.9845628339681,431.68226008396596,431.68226008396596,431.6689457920147,,,,,,,,,,,,,,,,,,,,,,,,,,,,318485,001,2024-12-08_15h57.42.876,Test,2024.2.4,None,2024-12-08 15h57.48.472654 +0100,
26,150,150,61,None,19,19,0,,,,,,,,,,,,,,,,0,19,19,25,,,,,431.68226008396596,,,,,,,,,,,,,,,,,,,,,,,,,,,,,,,,,,,,,,,,,,,,,,,,,,,,,,,431.6774180000066,431.6861674590036,431.884511250013,431.884511250013,431.884511250013,433.5818203340168,433.5818203340168,433.5688638749998,,,,,,,,,,,,,,,,,,,,,,,,,,,,318485,001,2024-12-08_15h57.42.876,Test,2024.2.4,None,2024-12-08 15h57.48.472654 +0100,
6,150,30,10,None,20,20,0,,,,,,,,,,,,,,,,0,20,20,5,,,,,433.5818203340168,,,,,,,,,,,,,,,,,,,,,,,,,,,,,,,,,,,,,,,,,,,,,,,,,,,,,,,433.5769092499977,433.5864434589748,433.784547917021,433.784547917021,433.784547917021,435.48121162498137,435.48121162498137,435.46888795896666,,,,,,,,,,,,,,,,,,,,,,,,,,,,318485,001,2024-12-08_15h57.42.876,Test,2024.2.4,None,2024-12-08 15h57.48.472654 +0100,
32,150,180,65,None,21,21,0,,,,,,,,,,,,,,,,0,21,21,31,,,,,435.48121162498137,,,,,,,,,,,,,,,,,,,,,,,,,,,,,,,,,,,,,,,,,,,,,,,,,,,,,,,435.4764122500201,435.4856243340182,435.68465379200643,435.68465379200643,435.68465379200643,437.3846427499666,437.3846427499666,437.3691009170143,,,,,,,,,,,,,,,,,,,,,,,,,,,,318485,001,2024-12-08_15h57.42.876,Test,2024.2.4,None,2024-12-08 15h57.48.472654 +0100,
24,150,120,11,None,22,22,0,,,,,,,,,,,,,,,,0,22,22,23,,,,,437.3846427499666,,,,,,,,,,,,,,,,,,,,,,,,,,,,,,,,,,,,,,,,,,,,,,,,,,,,,,,437.37919533398235,437.3883332089754,437.58301558397943,437.58301558397943,437.58301558397943,439.2830394170014,439.2830394170014,439.26872849999927,,,,,,,,,,,,,,,,,,,,,,,,,,,,318485,001,2024-12-08_15h57.42.876,Test,2024.2.4,None,2024-12-08 15h57.48.472654 +0100,
10,150,30,43,None,23,23,0,,,,,,,,,,,,,,,,0,23,23,9,,,,,439.2830394170014,,,,,,,,,,,,,,,,,,,,,,,,,,,,,,,,,,,,,,,,,,,,,,,,,,,,,,,439.2781060420093,439.2866443339735,439.48453245899873,439.48453245899873,439.48453245899873,441.1821655840031,441.1821655840031,441.16872149996925,,,,,,,,,,,,,,,,,,,,,,,,,,,,318485,001,2024-12-08_15h57.42.876,Test,2024.2.4,None,2024-12-08 15h57.48.472654 +0100,
7,150,30,63,None,24,24,0,,,,,,,,,,,,,,,,0,24,24,6,,,,,441.1821655840031,,,,,,,,,,,,,,,,,,,,,,,,,,,,,,,,,,,,,,,,,,,,,,,,,,,,,,,441.1771870420198,441.18704466702184,441.38446366699645,441.38446366699645,441.38446366699645,443.08255783398636,443.08255783398636,443.068753791973,,,,,,,,,,,,,,,,,,,,,,,,,,,,318485,001,2024-12-08_15h57.42.876,Test,2024.2.4,None,2024-12-08 15h57.48.472654 +0100,
1,150,0,21,None,25,25,0,,,,,,,,,,,,,,,,0,25,25,0,,,,,443.08255783398636,,,,,,,,,,,,,,,,,,,,,,,,,,,,,,,,,,,,,,,,,,,,,,,,,,,,,,,443.0777045839932,443.08645270898705,443.28450458397856,443.28450458397856,443.28450458397856,444.98213224997744,444.98213224997744,444.9688849169761,,,,,,,,,,,,,,,,,,,,,,,,,,,,318485,001,2024-12-08_15h57.42.876,Test,2024.2.4,None,2024-12-08 15h57.48.472654 +0100,
13,150,60,56,None,26,26,0,,,,,,,,,,,,,,,,0,26,26,12,,,,,444.98213224997744,,,,,,,,,,,,,,,,,,,,,,,,,,,,,,,,,,,,,,,,,,,,,,,,,,,,,,,444.9772389999707,444.9860223750002,445.1846297919983,445.1846297919983,445.1846297919983,446.8830990419956,446.8830990419956,446.86884137499146,,,,,,,,,,,,,,,,,,,,,,,,,,,,318485,001,2024-12-08_15h57.42.876,Test,2024.2.4,None,2024-12-08 15h57.48.472654 +0100,
20,150,90,47,None,27,27,0,,,,,,,,,,,,,,,,0,27,27,19,,,,,446.8830990419956,,,,,,,,,,,,,,,,,,,,,,,,,,,,,,,,,,,,,,,,,,,,,,,,,,,,,,,446.87800545897335,446.8879719590186,447.0844949170132,447.0844949170132,447.0844949170132,448.7821535000112,448.7821535000112,448.76868233399,,,,,,,,,,,,,,,,,,,,,,,,,,,,318485,001,2024-12-08_15h57.42.876,Test,2024.2.4,None,2024-12-08 15h57.48.472654 +0100,
21,150,120,1,None,28,28,0,,,,,,,,,,,,,,,,0,28,28,20,,,,,448.7821535000112,,,,,,,,,,,,,,,,,,,,,,,,,,,,,,,,,,,,,,,,,,,,,,,,,,,,,,,448.777272916981,448.78693950001616,448.9845357090235,448.9845357090235,448.9845357090235,450.6832747919834,450.6832747919834,450.6690243339981,,,,,,,,,,,,,,,,,,,,,,,,,,,,318485,001,2024-12-08_15h57.42.876,Test,2024.2.4,None,2024-12-08 15h57.48.472654 +0100,
2,150,0,53,None,29,29,0,,,,,,,,,,,,,,,,0,29,29,1,,,,,450.6832747919834,,,,,,,,,,,,,,,,,,,,,,,,,,,,,,,,,,,,,,,,,,,,,,,,,,,,,,,450.6782512500067,450.68786504201125,450.8844485419686,450.8844485419686,450.8844485419686,452.5814886249718,452.5814886249718,452.5687642499688,,,,,,,,,,,,,,,,,,,,,,,,,,,,318485,001,2024-12-08_15h57.42.876,Test,2024.2.4,None,2024-12-08 15h57.48.472654 +0100,
35,150,180,14,None,30,30,0,,,,,,,,,,,,,,,,0,30,30,34,,,,,452.5814886249718,,,,,,,,,,,,,,,,,,,,,,,,,,,,,,,,,,,,,,,,,,,,,,,,,,,,,,,452.5763759170077,452.5860642089974,452.7846926249913,452.7846926249913,452.7846926249913,454.4819195420132,454.4819195420132,454.46864654199453,,,,,,,,,,,,,,,,,,,,,,,,,,,,318485,001,2024-12-08_15h57.42.876,Test,2024.2.4,None,2024-12-08 15h57.48.472654 +0100,
19,150,90,48,None,31,31,0,,,,,,,,,,,,,,,,0,31,31,18,,,,,454.4819195420132,,,,,,,,,,,,,,,,,,,,,,,,,,,,,,,,,,,,,,,,,,,,,,,,,,,,,,,454.47711158398306,454.4857970000012,454.68466495897155,454.68466495897155,454.68466495897155,456.3815135419718,456.3815135419718,456.36875933397096,,,,,,,,,,,,,,,,,,,,,,,,,,,,318485,001,2024-12-08_15h57.42.876,Test,2024.2.4,None,2024-12-08 15h57.48.472654 +0100,
5,150,0,4,None,32,32,0,,,,,,,,,,,,,,,,0,32,32,4,,,,,456.3815135419718,,,,,,,,,,,,,,,,,,,,,,,,,,,,,,,,,,,,,,,,,,,,,,,,,,,,,,,456.37676050001755,456.3861761249718,456.58453616697807,456.58453616697807,456.58453616697807,458.28260466700885,458.28260466700885,458.26883075002115,,,,,,,,,,,,,,,,,,,,,,,,,,,,318485,001,2024-12-08_15h57.42.876,Test,2024.2.4,None,2024-12-08 15h57.48.472654 +0100,
30,150,150,19,None,33,33,0,,,,,,,,,,,,,,,,0,33,33,29,,,,,458.28260466700885,,,,,,,,,,,,,,,,,,,,,,,,,,,,,,,,,,,,,,,,,,,,,,,,,,,,,,,458.27758979197824,458.2875301669701,458.48457195900846,458.48457195900846,458.48457195900846,460.1816923340084,460.1816923340084,460.16882187500596,,,,,,,,,,,,,,,,,,,,,,,,,,,,318485,001,2024-12-08_15h57.42.876,Test,2024.2.4,None,2024-12-08 15h57.48.472654 +0100,
9,150,30,26,None,34,34,0,,,,,,,,,,,,,,,,0,34,34,8,,,,,460.1816923340084,,,,,,,,,,,,,,,,,,,,,,,,,,,,,,,,,,,,,,,,,,,,,,,,,,,,,,,460.1769471669686,460.18665533402236,460.38446079200367,460.38446079200367,460.38446079200367,462.07443649997003,462.07443649997003,462.06890199996997,,,,,,,,,,,,,,,,,,,,,,,,,,,,318485,001,2024-12-08_15h57.42.876,Test,2024.2.4,None,2024-12-08 15h57.48.472654 +0100,
,,,,,,,,,,,,,,,,,,,,,,,,,,,,,,,,,,,,,,,,,,,,,,,,,,,,,,,,,,,,,,,,,,,,,,,,,,,,,,,,,,,,,,,,,,,,,,462.06913849996636,462.08292058401275,462.08292058401275,464.0701812499901,space,1.9851409170078114,None,,,,,,,,,,,,,,,,,,,,,318485,001,2024-12-08_15h57.42.876,Test,2024.2.4,None,2024-12-08 15h57.48.472654 +0100,
69,150,180,33,None,0,0,0,True,,,,right,12.578035415965132,None,,,,,,,,,,,,,0,0,0,0,464.18382600002224,,,,,,,,,,,,,,,,,,,,,,,,,,,,,,,,,,,,,,,,,,,,,,,,,,,,,,,,,,,,,,,,,,,,,,464.1786499589798,464.18382600002224,465.1735219170223,466.06782354199095,466.06782354199095,466.06782354199095,469.0566031669732,469.0566031669732,469.06781120900996,478.6530417089816,right,12.578035415965132,None,,,,,,,,318485,001,2024-12-08_15h57.42.876,Test,2024.2.4,None,2024-12-08 15h57.48.472654 +0100,
12,150,60,42,None,1,1,0,False,,,,right,1.1311872500227764,None,,,,,,,,,,,,,0,1,1,1,478.6664634589688,,,,,,,,,,,,,,,,,,,,,,,,,,,,,,,,,,,,,,,,,,,,,,,,,,,,,,,,,,,,,,,,,,,,,,478.6604451669846,478.6664634589688,479.655714292021,480.65119925001636,480.65119925001636,480.65119925001636,,,,481.7868810420041,right,1.1311872500227764,None,,,,,,,,318485,001,2024-12-08_15h57.42.876,Test,2024.2.4,None,2024-12-08 15h57.48.472654 +0100,
28,150,150,9,None,2,2,0,False,,,,right,1.616874208964873,None,,,,,,,,,,,,,0,2,2,2,481.8017587090144,,,,,,,,,,,,,,,,,,,,,,,,,,,,,,,,,,,,,,,,,,,,,,,,,,,,,,,,,,,,,,,,,,,,,,481.7955806669779,481.8017587090144,482.78932816698216,483.7846559169702,483.7846559169702,483.7846559169702,,,,485.40381599997636,right,1.616874208964873,None,,,,,,,,318485,001,2024-12-08_15h57.42.876,Test,2024.2.4,None,2024-12-08 15h57.48.472654 +0100,
8,150,30,46,None,3,3,0,False,,,,right,1.2352160420268774,None,,,,,,,,,,,,,0,3,3,3,485.4189087499981,,,,,,,,,,,,,,,,,,,,,,,,,,,,,,,,,,,,,,,,,,,,,,,,,,,,,,,,,,,,,,,,,,,,,,485.4125279170112,485.4189087499981,486.41785520897247,487.4012264169869,487.4012264169869,487.4012264169869,,,,488.64312670897925,right,1.2352160420268774,None,,,,,,,,318485,001,2024-12-08_15h57.42.876,Test,2024.2.4,None,2024-12-08 15h57.48.472654 +0100,
60,150,120,20,None,4,4,0,True,,,,left,1.3329722079797648,None,,,,,,,,,,,,,0,4,4,4,488.65817787498236,,,,,,,,,,,,,,,,,,,,,,,,,,,,,,,,,,,,,,,,,,,,,,,,,,,,,,,,,,,,,,,,,,,,,,488.65180916700047,488.65817787498236,489.6564207500196,490.6414278749726,490.6414278749726,490.6414278749726,,,,491.9765886249952,left,1.3329722079797648,None,,,,,,,,318485,001,2024-12-08_15h57.42.876,Test,2024.2.4,None,2024-12-08 15h57.48.472654 +0100,
45,150,30,37,None,5,5,0,True,,,,left,1.2438092079828493,None,,,,,,,,,,,,,0,5,5,5,491.9918885420193,,,,,,,,,,,,,,,,,,,,,,,,,,,,,,,,,,,,,,,,,,,,,,,,,,,,,,,,,,,,,,,,,,,,,,491.98549404199,491.9918885420193,492.9897149169701,493.9759218340041,493.9759218340041,493.9759218340041,,,,495.2259459589841,left,1.2438092079828493,None,,,,,,,,318485,001,2024-12-08_15h57.42.876,Test,2024.2.4,None,2024-12-08 15h57.48.472654 +0100,
34,150,180,66,None,6,6,0,False,,,,left,1.564875917043537,None,,,,,,,,,,,,,0,6,6,6,495.24040783400415,,,,,,,,,,,,,,,,,,,,,,,,,,,,,,,,,,,,,,,,,,,,,,,,,,,,,,,,,,,,,,,,,,,,,,495.23381091700867,495.24040783400415,496.2343391670147,497.22486679197755,497.22486679197755,497.22486679197755,,,,498.7927213339717,left,1.564875917043537,None,,,,,,,,318485,001,2024-12-08_15h57.42.876,Test,2024.2.4,None,2024-12-08 15h57.48.472654 +0100,
44,150,30,17,None,7,7,0,True,,,,left,1.585168750025332,None,,,,,,,,,,,,,0,7,7,7,498.8078002089751,,,,,,,,,,,,,,,,,,,,,,,,,,,,,,,,,,,,,,,,,,,,,,,,,,,,,,,,,,,,,,,,,,,,,,498.802009875013,498.8078002089751,499.80120074999286,500.7914159169886,500.7914159169886,500.7914159169886,,,,502.386575291981,left,1.585168750025332,None,,,,,,,,318485,001,2024-12-08_15h57.42.876,Test,2024.2.4,None,2024-12-08 15h57.48.472654 +0100,
3,150,0,70,None,8,8,0,False,,,,right,1.1891527500119992,None,,,,,,,,,,,,,0,8,8,8,502.4016043749871,,,,,,,,,,,,,,,,,,,,,,,,,,,,,,,,,,,,,,,,,,,,,,,,,,,,,,,,,,,,,,,,,,,,,,502.394965125015,502.4016043749871,503.3888894999982,504.38461704197107,504.38461704197107,504.38461704197107,,,,505.5761652920046,right,1.1891527500119992,None,,,,,,,,318485,001,2024-12-08_15h57.42.876,Test,2024.2.4,None,2024-12-08 15h57.48.472654 +0100,
52,150,90,18,None,9,9,0,True,,,,left,1.797780791996047,None,,,,,,,,,,,,,0,9,9,9,505.5912496249657,,,,,,,,,,,,,,,,,,,,,,,,,,,,,,,,,,,,,,,,,,,,,,,,,,,,,,,,,,,,,,,,,,,,,,505.58464758400805,505.5912496249657,506.5898085000226,507.57520408398705,507.57520408398705,507.57520408398705,,,,509.3761318339966,left,1.797780791996047,None,,,,,,,,318485,001,2024-12-08_15h57.42.876,Test,2024.2.4,None,2024-12-08 15h57.48.472654 +0100,
31,150,180,59,None,10,10,0,False,,,,right,1.6766188750043511,None,,,,,,,,,,,,,0,10,10,10,509.39096120902104,,,,,,,,,,,,,,,,,,,,,,,,,,,,,,,,,,,,,,,,,,,,,,,,,,,,,,,,,,,,,,,,,,,,,,509.3847926669987,509.39096120902104,510.3844780839863,511.3751542919781,511.3751542919781,511.3751542919781,,,,513.0622236250201,right,1.6766188750043511,None,,,,,,,,318485,001,2024-12-08_15h57.42.876,Test,2024.2.4,None,2024-12-08 15h57.48.472654 +0100,
15,150,60,60,None,11,11,0,False,,,,right,0.9152305419556797,None,,,,,,,,,,,,,0,11,11,11,513.0744405000005,,,,,,,,,,,,,,,,,,,,,,,,,,,,,,,,,,,,,,,,,,,,,,,,,,,,,,,,,,,,,,,,,,,,,,513.0697533750208,513.0744405000005,514.0734264589846,515.0583575000055,515.0583575000055,515.0583575000055,,,,515.9762987499707,right,0.9152305419556797,None,,,,,,,,318485,001,2024-12-08_15h57.42.876,Test,2024.2.4,None,2024-12-08 15h57.48.472654 +0100,
59,150,120,7,None,12,12,0,True,,,,left,0.9321998340310529,None,,,,,,,,,,,,,0,12,12,12,515.9916882090038,,,,,,,,,,,,,,,,,,,,,,,,,,,,,,,,,,,,,,,,,,,,,,,,,,,,,,,,,,,,,,,,,,,,,,515.9851323749754,515.9916882090038,516.9898099590209,517.9754631670075,517.9754631670075,517.9754631670075,,,,518.9099531249958,left,0.9321998340310529,None,,,,,,,,318485,001,2024-12-08_15h57.42.876,Test,2024.2.4,None,2024-12-08 15h57.48.472654 +0100,
37,150,0,25,None,13,13,0,True,,,,left,1.873239582986571,None,,,,,,,,,,,,,0,13,13,13,518.9251289590029,,,,,,,,,,,,,,,,,,,,,,,,,,,,,,,,,,,,,,,,,,,,,,,,,,,,,,,,,,,,,,,,,,,,,,518.9188579589827,518.9251289590029,519.9228260840173,520.9079447499826,520.9079447499826,520.9079447499826,,,,522.7865494589787,left,1.873239582986571,None,,,,,,,,318485,001,2024-12-08_15h57.42.876,Test,2024.2.4,None,2024-12-08 15h57.48.472654 +0100,
36,150,0,3,None,14,14,0,True,,,,left,1.5837788750068285,None,,,,,,,,,,,,,0,14,14,14,522.8017826669966,,,,,,,,,,,,,,,,,,,,,,,,,,,,,,,,,,,,,,,,,,,,,,,,,,,,,,,,,,,,,,,,,,,,,,522.7948206670117,522.8017826669966,523.7898972089752,524.7844950840226,524.7844950840226,524.7844950840226,,,,526.3707161250059,left,1.5837788750068285,None,,,,,,,,318485,001,2024-12-08_15h57.42.876,Test,2024.2.4,None,2024-12-08 15h57.48.472654 +0100,
41,150,30,50,None,15,15,0,True,,,,left,1.0947095419978723,None,,,,,,,,,,,,,0,15,15,15,526.3845921250177,,,,,,,,,,,,,,,,,,,,,,,,,,,,,,,,,,,,,,,,,,,,,,,,,,,,,,,,,,,,,,,,,,,,,,526.3787475419813,526.3845921250177,527.3730995419901,528.3678476670175,528.3678476670175,528.3678476670175,,,,529.4698532089824,left,1.0947095419978723,None,,,,,,,,318485,001,2024-12-08_15h57.42.876,Test,2024.2.4,None,2024-12-08 15h57.48.472654 +0100,
68,150,180,27,None,16,16,0,True,,,,right,1.1884539580205455,None,,,,,,,,,,,,,0,16,16,16,529.4854986249702,,,,,,,,,,,,,,,,,,,,,,,,,,,,,,,,,,,,,,,,,,,,,,,,,,,,,,,,,,,,,,,,,,,,,,529.479007625021,529.4854986249702,530.4844292919734,531.4679861670011,531.4679861670011,531.4679861670011,,,,532.6599846669706,right,1.1884539580205455,None,,,,,,,,318485,001,2024-12-08_15h57.42.876,Test,2024.2.4,None,2024-12-08 15h57.48.472654 +0100,
56,150,120,22,None,17,17,0,True,,,,right,1.3270867500104941,None,,,,,,,,,,,,,0,17,17,17,532.6747425419744,,,,,,,,,,,,,,,,,,,,,,,,,,,,,,,,,,,,,,,,,,,,,,,,,,,,,,,,,,,,,,,,,,,,,,532.6688052499667,532.6747425419744,533.6723869590205,534.6584001249867,534.6584001249867,534.6584001249867,,,,535.9925105840084,right,1.3270867500104941,None,,,,,,,,318485,001,2024-12-08_15h57.42.876,Test,2024.2.4,None,2024-12-08 15h57.48.472654 +0100,
17,150,90,38,None,18,18,0,False,,,,right,1.0118159999838099,None,,,,,,,,,,,,,0,18,18,18,536.0077352499939,,,,,,,,,,,,,,,,,,,,,,,,,,,,,,,,,,,,,,,,,,,,,,,,,,,,,,,,,,,,,,,,,,,,,,536.0015012919903,536.0077352499939,537.0011462920229,537.991505583981,537.991505583981,537.991505583981,,,,539.0098242089734,right,1.0118159999838099,None,,,,,,,,318485,001,2024-12-08_15h57.42.876,Test,2024.2.4,None,2024-12-08 15h57.48.472654 +0100,
11,150,60,45,None,19,19,0,False,,,,right,1.1519921249710023,None,,,,,,,,,,,,,0,19,19,19,539.0248299170053,,,,,,,,,,,,,,,,,,,,,,,,,,,,,,,,,,,,,,,,,,,,,,,,,,,,,,,,,,,,,,,,,,,,,,539.0188288339996,539.0248299170053,540.0231477089692,541.0087964999839,541.0087964999839,541.0087964999839,,,,542.1700017090188,right,1.1519921249710023,None,,,,,,,,318485,001,2024-12-08_15h57.42.876,Test,2024.2.4,None,2024-12-08 15h57.48.472654 +0100,
49,150,60,67,None,20,20,0,True,,,,left,0.881293167010881,None,,,,,,,,,,,,,0,20,20,20,542.1851527920226,,,,,,,,,,,,,,,,,,,,,,,,,,,,,,,,,,,,,,,,,,,,,,,,,,,,,,,,,,,,,,,,,,,,,,542.1782706250087,542.1851527920226,543.1729640419944,544.1678895839723,544.1678895839723,544.1678895839723,,,,545.0532427500002,left,0.881293167010881,None,,,,,,,,318485,001,2024-12-08_15h57.42.876,Test,2024.2.4,None,2024-12-08 15h57.48.472654 +0100,
53,150,90,41,None,21,21,0,True,,,,right,1.3754029999836348,None,,,,,,,,,,,,,0,21,21,21,545.0678102090023,,,,,,,,,,,,,,,,,,,,,,,,,,,,,,,,,,,,,,,,,,,,,,,,,,,,,,,,,,,,,,,,,,,,,,545.0618350419682,545.0678102090023,546.056295834016,547.0512744169682,547.0512744169682,547.0512744169682,,,,548.4368563339813,right,1.3754029999836348,None,,,,,,,,318485,001,2024-12-08_15h57.42.876,Test,2024.2.4,None,2024-12-08 15h57.48.472654 +0100,
67,150,180,13,None,22,22,0,True,,,,right,0.9834473329829052,None,,,,,,,,,,,,,0,22,22,22,548.4513937919983,,,,,,,,,,,,,,,,,,,,,,,,,,,,,,,,,,,,,,,,,,,,,,,,,,,,,,,,,,,,,,,,,,,,,,548.4447982920101,548.4513937919983,549.4398504169658,550.4345327090123,550.4345327090123,550.4345327090123,,,,551.4210082499776,right,0.9834473329829052,None,,,,,,,,318485,001,2024-12-08_15h57.42.876,Test,2024.2.4,None,2024-12-08 15h57.48.472654 +0100,
25,150,120,35,None,23,23,0,False,,,,right,0.7222315829712898,None,,,,,,,,,,,,,0,23,23,23,551.436435333977,,,,,,,,,,,,,,,,,,,,,,,,,,,,,,,,,,,,,,,,,,,,,,,,,,,,,,,,,,,,,,,,,,,,,,551.4298683750094,551.436435333977,552.4344780839747,553.4178194999695,553.4178194999695,553.4178194999695,,,,554.1424487499753,right,0.7222315829712898,None,,,,,,,,318485,001,2024-12-08_15h57.42.876,Test,2024.2.4,None,2024-12-08 15h57.48.472654 +0100,
40,150,0,16,None,24,24,0,True,,,,left,1.1546809580177069,None,,,,,,,,,,,,,0,24,24,24,554.1576227499754,,,,,,,,,,,,,,,,,,,,,,,,,,,,,,,,,,,,,,,,,,,,,,,,,,,,,,,,,,,,,,,,,,,,,,554.1514140000218,554.1576227499754,555.1510097499704,556.1417176669929,556.1417176669929,556.1417176669929,,,,557.3030837089755,left,1.1546809580177069,None,,,,,,,,318485,001,2024-12-08_15h57.42.876,Test,2024.2.4,None,2024-12-08 15h57.48.472654 +0100,
22,150,120,69,None,25,25,0,False,,,,right,1.1249543749727309,None,,,,,,,,,,,,,0,25,25,25,557.3171630839934,,,,,,,,,,,,,,,,,,,,,,,,,,,,,,,,,,,,,,,,,,,,,,,,,,,,,,,,,,,,,,,,,,,,,,557.3109676250024,557.3171630839934,558.3055321249994,559.3012591250008,559.3012591250008,559.3012591250008,,,,560.4364713340183,right,1.1249543749727309,None,,,,,,,,318485,001,2024-12-08_15h57.42.876,Test,2024.2.4,None,2024-12-08 15h57.48.472654 +0100,
46,150,60,64,None,26,26,0,True,,,,right,1.2922141249873675,None,,,,,,,,,,,,,0,26,26,26,560.4519653749885,,,,,,,,,,,,,,,,,,,,,,,,,,,,,,,,,,,,,,,,,,,,,,,,,,,,,,,,,,,,,,,,,,,,,,560.4453085840214,560.4519653749885,561.4397576249903,562.4344584589708,562.4344584589708,562.4344584589708,,,,563.7364913339843,right,1.2922141249873675,None,,,,,,,,318485,001,2024-12-08_15h57.42.876,Test,2024.2.4,None,2024-12-08 15h57.48.472654 +0100,
30,150,150,19,None,27,27,0,False,,,,right,1.1337139999959618,None,,,,,,,,,,,,,0,27,27,27,563.7519446249935,,,,,,,,,,,,,,,,,,,,,,,,,,,,,,,,,,,,,,,,,,,,,,,,,,,,,,,,,,,,,,,,,,,,,,563.7450085419696,563.7519446249935,564.7397556669894,565.7346766670235,565.7346766670235,565.7346766670235,,,,566.8714983339887,right,1.1337139999959618,None,,,,,,,,318485,001,2024-12-08_15h57.42.876,Test,2024.2.4,None,2024-12-08 15h57.48.472654 +0100,
43,150,30,40,None,28,28,0,True,,,,left,2.4185844999738038,None,,,,,,,,,,,,,0,28,28,28,566.8867588749854,,,,,,,,,,,,,,,,,,,,,,,,,,,,,,,,,,,,,,,,,,,,,,,,,,,,,,,,,,,,,,,,,,,,,,566.8802770000184,566.8867588749854,567.8845336249797,568.8679589590174,568.8679589590174,568.8679589590174,,,,571.2931691249833,left,2.4185844999738038,None,,,,,,,,318485,001,2024-12-08_15h57.42.876,Test,2024.2.4,None,2024-12-08 15h57.48.472654 +0100,
47,150,60,57,None,29,29,0,True,,,,left,1.2283122090157121,None,,,,,,,,,,,,,0,29,29,29,571.3079330839682,,,,,,,,,,,,,,,,,,,,,,,,,,,,,,,,,,,,,,,,,,,,,,,,,,,,,,,,,,,,,,,,,,,,,,571.3018804999883,571.3079330839682,572.3011498749838,573.291468749987,573.291468749987,573.291468749987,,,,574.526136874978,left,1.2283122090157121,None,,,,,,,,318485,001,2024-12-08_15h57.42.876,Test,2024.2.4,None,2024-12-08 15h57.48.472654 +0100,
19,150,90,48,None,30,30,0,False,,,,right,1.5622215840267017,None,,,,,,,,,,,,,0,30,30,30,574.5412581249839,,,,,,,,,,,,,,,,,,,,,,,,,,,,,,,,,,,,,,,,,,,,,,,,,,,,,,,,,,,,,,,,,,,,,,574.5352037919802,574.5412581249839,575.5344708340126,576.5247910839971,576.5247910839971,576.5247910839971,,,,578.0932940000203,right,1.5622215840267017,None,,,,,,,,318485,001,2024-12-08_15h57.42.876,Test,2024.2.4,None,2024-12-08 15h57.48.472654 +0100,
26,150,150,61,None,31,31,0,False,,,,left,0.9264352080062963,None,,,,,,,,,,,,,0,31,31,31,578.1084286249825,,,,,,,,,,,,,,,,,,,,,,,,,,,,,,,,,,,,,,,,,,,,,,,,,,,,,,,,,,,,,,,,,,,,,,578.1021792920073,578.1084286249825,579.1058640839765,580.0917249589693,580.0917249589693,580.0917249589693,,,,581.0208357090014,left,0.9264352080062963,None,,,,,,,,318485,001,2024-12-08_15h57.42.876,Test,2024.2.4,None,2024-12-08 15h57.48.472654 +0100,
7,150,30,63,None,32,32,0,False,,,,left,1.236032874963712,None,,,,,,,,,,,,,0,32,32,32,581.0355369169847,,,,,,,,,,,,,,,,,,,,,,,,,,,,,,,,,,,,,,,,,,,,,,,,,,,,,,,,,,,,,,,,,,,,,,581.0292733340175,581.0355369169847,582.0346621670178,583.018050291983,583.018050291983,583.018050291983,,,,584.2596931249718,left,1.236032874963712,None,,,,,,,,318485,001,2024-12-08_15h57.42.876,Test,2024.2.4,None,2024-12-08 15h57.48.472654 +0100,
65,150,150,34,None,33,33,0,True,,,,left,0.9633677499950863,None,,,,,,,,,,,,,0,33,33,33,584.2738285419764,,,,,,,,,,,,,,,,,,,,,,,,,,,,,,,,,,,,,,,,,,,,,,,,,,,,,,,,,,,,,,,,,,,,,,584.267829584016,584.2738285419764,585.26792183402,586.257882750011,586.257882750011,586.257882750011,,,,587.2262751670205,left,0.9633677499950863,None,,,,,,,,318485,001,2024-12-08_15h57.42.876,Test,2024.2.4,None,2024-12-08 15h57.48.472654 +0100,
57,150,120,31,None,34,34,0,True,,,,left,1.2384127500117756,None,,,,,,,,,,,,,0,34,34,34,587.239306250005,,,,,,,,,,,,,,,,,,,,,,,,,,,,,,,,,,,,,,,,,,,,,,,,,,,,,,,,,,,,,,,,,,,,,,587.2337678750046,587.239306250005,588.2343900419655,589.2254489170155,589.2254489170155,589.2254489170155,,,,590.4699313750025,left,1.2384127500117756,None,,,,,,,,318485,001,2024-12-08_15h57.42.876,Test,2024.2.4,None,2024-12-08 15h57.48.472654 +0100,
5,150,0,4,None,35,35,0,False,,,,right,2.5291907499777153,None,,,,,,,,,,,,,0,35,35,35,590.4842949999729,,,,,,,,,,,,,,,,,,,,,,,,,,,,,,,,,,,,,,,,,,,,,,,,,,,,,,,,,,,,,,,,,,,,,,590.4783085419913,590.4842949999729,591.4730042089941,592.4679357089917,592.4679357089917,592.4679357089917,,,,595.0035325000063,right,2.5291907499777153,None,,,,,,,,318485,001,2024-12-08_15h57.42.876,Test,2024.2.4,None,2024-12-08 15h57.48.472654 +0100,
9,150,30,26,None,36,36,0,False,,,,right,1.0086219160002656,None,,,,,,,,,,,,,0,36,36,36,595.0181490840041,,,,,,,,,,,,,,,,,,,,,,,,,,,,,,,,,,,,,,,,,,,,,,,,,,,,,,,,,,,,,,,,,,,,,,595.0118016669876,595.0181490840041,596.0061488340143,597.001300208969,597.001300208969,597.001300208969,,,,598.0199632499716,right,1.0086219160002656,None,,,,,,,,318485,001,2024-12-08_15h57.42.876,Test,2024.2.4,None,2024-12-08 15h57.48.472654 +0100,
42,150,30,36,None,37,37,0,True,,,,left,2.2838074999745004,None,,,,,,,,,,,,,0,37,37,37,598.035047375015,,,,,,,,,,,,,,,,,,,,,,,,,,,,,,,,,,,,,,,,,,,,,,,,,,,,,,,,,,,,,,,,,,,,,,598.0286339999875,598.035047375015,599.0234704170143,600.0179655419779,600.0179655419779,600.0179655419779,,,,602.3126418339671,left,2.2838074999745004,None,,,,,,,,318485,001,2024-12-08_15h57.42.876,Test,2024.2.4,None,2024-12-08 15h57.48.472654 +0100,
61,150,150,54,None,38,38,0,True,,,,left,1.6896053749951534,None,,,,,,,,,,,,,0,38,38,38,602.3249347090023,,,,,,,,,,,,,,,,,,,,,,,,,,,,,,,,,,,,,,,,,,,,,,,,,,,,,,,,,,,,,,,,,,,,,,602.3200506250141,602.3249347090023,603.3234090000042,604.3092393340194,604.3092393340194,604.3092393340194,,,,606.0031453340198,left,1.6896053749951534,None,,,,,,,,318485,001,2024-12-08_15h57.42.876,Test,2024.2.4,None,2024-12-08 15h57.48.472654 +0100,
10,150,30,43,None,39,39,0,False,,,,right,0.7545848750160076,None,,,,,,,,,,,,,0,39,39,39,606.0179141670233,,,,,,,,,,,,,,,,,,,,,,,,,,,,,,,,,,,,,,,,,,,,,,,,,,,,,,,,,,,,,,,,,,,,,,606.0115080419928,606.0179141670233,607.0064130839892,608.001332291984,608.001332291984,608.001332291984,,,,608.7598190419958,right,0.7545848750160076,None,,,,,,,,318485,001,2024-12-08_15h57.42.876,Test,2024.2.4,None,2024-12-08 15h57.48.472654 +0100,
51,150,90,5,None,40,40,0,True,,,,right,1.8652022919850424,None,,,,,,,,,,,,,0,40,40,40,608.7747452500043,,,,,,,,,,,,,,,,,,,,,,,,,,,,,,,,,,,,,,,,,,,,,,,,,,,,,,,,,,,,,,,,,,,,,,608.7687561669736,608.7747452500043,609.7730966249947,610.7584337919834,610.7584337919834,610.7584337919834,,,,612.6260737499688,right,1.8652022919850424,None,,,,,,,,318485,001,2024-12-08_15h57.42.876,Test,2024.2.4,None,2024-12-08 15h57.48.472654 +0100,
39,150,0,15,None,41,41,0,True,,,,left,1.166800958046224,None,,,,,,,,,,,,,0,41,41,41,612.6402620419976,,,,,,,,,,,,,,,,,,,,,,,,,,,,,,,,,,,,,,,,,,,,,,,,,,,,,,,,,,,,,,,,,,,,,,612.6339299589745,612.6402620419976,613.6345675839693,614.6253277090145,614.6253277090145,614.6253277090145,,,,615.803250166995,left,1.166800958046224,None,,,,,,,,318485,001,2024-12-08_15h57.42.876,Test,2024.2.4,None,2024-12-08 15h57.48.472654 +0100,
70,150,180,29,None,42,42,0,True,,,,left,0.8834616669919342,None,,,,,,,,,,,,,0,42,42,42,615.8183024589671,,,,,,,,,,,,,,,,,,,,,,,,,,,,,,,,,,,,,,,,,,,,,,,,,,,,,,,,,,,,,,,,,,,,,,615.8120863750228,615.8183024589671,616.8064087500097,617.801172958978,617.801172958978,617.801172958978,,,,618.6869816249819,left,0.8834616669919342,None,,,,,,,,318485,001,2024-12-08_15h57.42.876,Test,2024.2.4,None,2024-12-08 15h57.48.472654 +0100,
14,150,60,55,None,43,43,0,False,,,,right,1.3019404580118135,None,,,,,,,,,,,,,0,43,43,43,618.7022767919698,,,,,,,,,,,,,,,,,,,,,,,,,,,,,,,,,,,,,,,,,,,,,,,,,,,,,,,,,,,,,,,,,,,,,,618.6959648340126,618.7022767919698,619.7011812499841,620.6845905000228,620.6845905000228,620.6845905000228,,,,621.9932949590147,right,1.3019404580118135,None,,,,,,,,318485,001,2024-12-08_15h57.42.876,Test,2024.2.4,None,2024-12-08 15h57.48.472654 +0100,
64,150,150,12,None,44,44,0,True,,,,left,0.8360699170152657,None,,,,,,,,,,,,,0,44,44,44,622.0078184169834,,,,,,,,,,,,,,,,,,,,,,,,,,,,,,,,,,,,,,,,,,,,,,,,,,,,,,,,,,,,,,,,,,,,,,622.0019270000048,622.0078184169834,623.0011907499866,623.9917064170004,623.9917064170004,623.9917064170004,,,,624.8365173339844,left,0.8360699170152657,None,,,,,,,,318485,001,2024-12-08_15h57.42.876,Test,2024.2.4,None,2024-12-08 15h57.48.472654 +0100,
20,150,90,47,None,45,45,0,False,,,,left,0.9230229579843581,None,,,,,,,,,,,,,0,45,45,45,624.8515506670228,,,,,,,,,,,,,,,,,,,,,,,,,,,,,,,,,,,,,,,,,,,,,,,,,,,,,,,,,,,,,,,,,,,,,,624.8453404169995,624.8515506670228,625.839833416976,626.8345011670026,626.8345011670026,626.8345011670026,,,,627.7597087500035,left,0.9230229579843581,None,,,,,,,,318485,001,2024-12-08_15h57.42.876,Test,2024.2.4,None,2024-12-08 15h57.48.472654 +0100,
50,150,60,28,None,46,46,0,True,,,,left,2.8032754590385593,None,,,,,,,,,,,,,0,46,46,46,627.7749318340211,,,,,,,,,,,,,,,,,,,,,,,,,,,,,,,,,,,,,,,,,,,,,,,,,,,,,,,,,,,,,,,,,,,,,,627.768822958984,627.7749318340211,628.7733470000094,629.7582679169718,629.7582679169718,629.7582679169718,,,,632.5700176249957,left,2.8032754590385593,None,,,,,,,,318485,001,2024-12-08_15h57.42.876,Test,2024.2.4,None,2024-12-08 15h57.48.472654 +0100,
16,150,90,30,None,47,47,0,False,,,,right,1.4468158750096336,None,,,,,,,,,,,,,0,47,47,47,632.5843684999854,,,,,,,,,,,,,,,,,,,,,,,,,,,,,,,,,,,,,,,,,,,,,,,,,,,,,,,,,,,,,,,,,,,,,,632.5781687499839,632.5843684999854,633.5723028749926,634.5679313750006,634.5679313750006,634.5679313750006,,,,636.0202532919939,right,1.4468158750096336,None,,,,,,,,318485,001,2024-12-08_15h57.42.876,Test,2024.2.4,None,2024-12-08 15h57.48.472654 +0100,
32,150,180,65,None,48,48,0,False,,,,left,0.8103866250021383,None,,,,,,,,,,,,,0,48,48,48,636.0347986670095,,,,,,,,,,,,,,,,,,,,,,,,,,,,,,,,,,,,,,,,,,,,,,,,,,,,,,,,,,,,,,,,,,,,,,636.0282569589908,636.0347986670095,637.0230057499721,638.0179648749763,638.0179648749763,638.0179648749763,,,,638.8366470839828,left,0.8103866250021383,None,,,,,,,,318485,001,2024-12-08_15h57.42.876,Test,2024.2.4,None,2024-12-08 15h57.48.472654 +0100,
33,150,180,6,None,49,49,0,False,,,,left,2.111549000022933,None,,,,,,,,,,,,,0,49,49,49,638.8523249590071,,,,,,,,,,,,,,,,,,,,,,,,,,,,,,,,,,,,,,,,,,,,,,,,,,,,,,,,,,,,,,,,,,,,,,638.8454964170232,638.8523249590071,639.8510600419831,640.8346285420121,640.8346285420121,640.8346285420121,,,,642.9532402919722,left,2.111549000022933,None,,,,,,,,318485,001,2024-12-08_15h57.42.876,Test,2024.2.4,None,2024-12-08 15h57.48.472654 +0100,
27,150,150,62,None,50,50,0,False,,,,right,0.9014802500023507,None,,,,,,,,,,,,,0,50,50,50,642.9740550839924,,,,,,,,,,,,,,,,,,,,,,,,,,,,,,,,,,,,,,,,,,,,,,,,,,,,,,,,,,,,,,,,,,,,,,642.9680882089888,642.9740550839924,643.967935334018,644.9511008749832,644.9511008749832,644.9511008749832,,,,645.860098583973,right,0.9014802500023507,None,,,,,,,,318485,001,2024-12-08_15h57.42.876,Test,2024.2.4,None,2024-12-08 15h57.48.472654 +0100,
23,150,120,39,None,51,51,0,False,,,,right,2.1266771249938756,None,,,,,,,,,,,,,0,51,51,51,645.8759441669681,,,,,,,,,,,,,,,,,,,,,,,,,,,,,,,,,,,,,,,,,,,,,,,,,,,,,,,,,,,,,,,,,,,,,,645.8696562499972,645.8759441669681,646.8730567090097,647.8582050839905,647.8582050839905,647.8582050839905,,,,649.9874888340128,right,2.1266771249938756,None,,,,,,,,318485,001,2024-12-08_15h57.42.876,Test,2024.2.4,None,2024-12-08 15h57.48.472654 +0100,
18,150,90,32,None,52,52,0,False,,,,left,1.4143007090315223,None,,,,,,,,,,,,,0,52,52,52,650.001897374983,,,,,,,,,,,,,,,,,,,,,,,,,,,,,,,,,,,,,,,,,,,,,,,,,,,,,,,,,,,,,,,,,,,,,,649.9957357500098,650.001897374983,650.9897570839967,651.9846282500075,651.9846282500075,651.9846282500075,,,,653.4031314169988,left,1.4143007090315223,None,,,,,,,,318485,001,2024-12-08_15h57.42.876,Test,2024.2.4,None,2024-12-08 15h57.48.472654 +0100,
24,150,120,11,None,53,53,0,False,,,,left,0.8590843330021016,None,,,,,,,,,,,,,0,53,53,53,653.4211305839708,,,,,,,,,,,,,,,,,,,,,,,,,,,,,,,,,,,,,,,,,,,,,,,,,,,,,,,,,,,,,,,,,,,,,,653.4152614999912,653.4211305839708,654.4179627089761,655.4001859590062,655.4001859590062,655.4001859590062,,,,656.2699570839759,left,0.8590843330021016,None,,,,,,,,318485,001,2024-12-08_15h57.42.876,Test,2024.2.4,None,2024-12-08 15h57.48.472654 +0100,
48,150,60,58,None,54,54,0,True,,,,right,1.7259721250156872,None,,,,,,,,,,,,,0,54,54,54,656.2860854169703,,,,,,,,,,,,,,,,,,,,,,,,,,,,,,,,,,,,,,,,,,,,,,,,,,,,,,,,,,,,,,,,,,,,,,656.2797332089976,656.2860854169703,657.284520583984,658.2678792920196,658.2678792920196,658.2678792920196,,,,660.0033176669967,right,1.7259721250156872,None,,,,,,,,318485,001,2024-12-08_15h57.42.876,Test,2024.2.4,None,2024-12-08 15h57.48.472654 +0100,
55,150,90,49,None,55,55,0,True,,,,left,0.8717550419969484,None,,,,,,,,,,,,,0,55,55,55,660.0189280419727,,,,,,,,,,,,,,,,,,,,,,,,,,,,,,,,,,,,,,,,,,,,,,,,,,,,,,,,,,,,,,,,,,,,,,660.0124783340143,660.0189280419727,661.0178020839812,662.0011831250158,662.0011831250158,662.0011831250158,,,,662.8763014170108,left,0.8717550419969484,None,,,,,,,,318485,001,2024-12-08_15h57.42.876,Test,2024.2.4,None,2024-12-08 15h57.48.472654 +0100,
62,150,150,2,None,56,56,0,True,,,,right,1.031914166000206,None,,,,,,,,,,,,,0,56,56,56,662.8911085840082,,,,,,,,,,,,,,,,,,,,,,,,,,,,,,,,,,,,,,,,,,,,,,,,,,,,,,,,,,,,,,,,,,,,,,662.8851906249765,662.8911085840082,663.8903250839794,664.8752648750087,664.8752648750087,664.8752648750087,,,,665.910257667012,right,1.031914166000206,None,,,,,,,,318485,001,2024-12-08_15h57.42.876,Test,2024.2.4,None,2024-12-08 15h57.48.472654 +0100,
1,150,0,21,None,57,57,0,False,,,,right,1.1359926669974811,None,,,,,,,,,,,,,0,57,57,57,665.9246534170234,,,,,,,,,,,,,,,,,,,,,,,,,,,,,,,,,,,,,,,,,,,,,,,,,,,,,,,,,,,,,,,,,,,,,,665.9187745419913,665.9246534170234,666.9178471249761,667.9087818340049,667.9087818340049,667.9087818340049,,,,669.053337291989,right,1.1359926669974811,None,,,,,,,,318485,001,2024-12-08_15h57.42.876,Test,2024.2.4,None,2024-12-08 15h57.48.472654 +0100,
38,150,0,23,None,58,58,0,True,,,,left,0.834013415966183,None,,,,,,,,,,,,,0,58,58,58,669.0687666669837,,,,,,,,,,,,,,,,,,,,,,,,,,,,,,,,,,,,,,,,,,,,,,,,,,,,,,,,,,,,,,,,,,,,,,669.0623837920139,669.0687666669837,670.0678843340138,671.0512560839998,671.0512560839998,671.0512560839998,,,,671.8961607919773,left,0.834013415966183,None,,,,,,,,318485,001,2024-12-08_15h57.42.876,Test,2024.2.4,None,2024-12-08 15h57.48.472654 +0100,
58,150,120,52,None,59,59,0,True,,,,right,1.4861267920350656,None,,,,,,,,,,,,,0,59,59,59,671.9084742499981,,,,,,,,,,,,,,,,,,,,,,,,,,,,,,,,,,,,,,,,,,,,,,,,,,,,,,,,,,,,,,,,,,,,,,671.9038140000193,671.9084742499981,672.9065418749815,673.8926638750127,673.8926638750127,673.8926638750127,,,,675.3866070419899,right,1.4861267920350656,None,,,,,,,,318485,001,2024-12-08_15h57.42.876,Test,2024.2.4,None,2024-12-08 15h57.48.472654 +0100,
35,150,180,14,None,60,60,0,False,,,,right,1.4293307500192896,None,,,,,,,,,,,,,0,60,60,60,675.4023431669921,,,,,,,,,,,,,,,,,,,,,,,,,,,,,,,,,,,,,,,,,,,,,,,,,,,,,,,,,,,,,,,,,,,,,,675.3955828339676,675.4023431669921,676.4011906249798,677.3846537920181,677.3846537920181,677.3846537920181,,,,678.8202009999659,right,1.4293307500192896,None,,,,,,,,318485,001,2024-12-08_15h57.42.876,Test,2024.2.4,None,2024-12-08 15h57.48.472654 +0100,
4,150,0,24,None,61,61,0,False,,,,right,1.0595312499790452,None,,,,,,,,,,,,,0,61,61,61,678.8357062920113,,,,,,,,,,,,,,,,,,,,,,,,,,,,,,,,,,,,,,,,,,,,,,,,,,,,,,,,,,,,,,,,,,,,,,678.8287910419749,678.8357062920113,679.8345120419981,680.8180949590169,680.8180949590169,680.8180949590169,,,,681.8865993749932,right,1.0595312499790452,None,,,,,,,,318485,001,2024-12-08_15h57.42.876,Test,2024.2.4,None,2024-12-08 15h57.48.472654 +0100,
63,150,150,68,None,62,62,0,True,,,,left,0.9121774999657646,None,,,,,,,,,,,,,0,62,62,62,681.9020195839694,,,,,,,,,,,,,,,,,,,,,,,,,,,,,,,,,,,,,,,,,,,,,,,,,,,,,,,,,,,,,,,,,,,,,,681.89509812498,681.9020195839694,682.8898599590175,683.884481584013,683.884481584013,683.884481584013,,,,684.803214250016,left,0.9121774999657646,None,,,,,,,,318485,001,2024-12-08_15h57.42.876,Test,2024.2.4,None,2024-12-08 15h57.48.472654 +0100,
66,150,180,8,None,63,63,0,True,,,,right,2.8676693749730475,None,,,,,,,,,,,,,0,63,63,63,684.8176782919909,,,,,,,,,,,,,,,,,,,,,,,,,,,,,,,,,,,,,,,,,,,,,,,,,,,,,,,,,,,,,,,,,,,,,,684.8116116250167,684.8176782919909,685.8059013750171,686.8012959170155,686.8012959170155,686.8012959170155,,,,689.6759843750042,right,2.8676693749730475,None,,,,,,,,318485,001,2024-12-08_15h57.42.876,Test,2024.2.4,None,2024-12-08 15h57.48.472654 +0100,
6,150,30,10,None,64,64,0,False,,,,right,1.1211576249916106,None,,,,,,,,,,,,,0,64,64,64,689.6904900419759,,,,,,,,,,,,,,,,,,,,,,,,,,,,,,,,,,,,,,,,,,,,,,,,,,,,,,,,,,,,,,,,,,,,,,689.6842345420155,689.6904900419759,690.6898132089991,691.6750868340023,691.6750868340023,691.6750868340023,,,,692.8032121669967,right,1.1211576249916106,None,,,,,,,,318485,001,2024-12-08_15h57.42.876,Test,2024.2.4,None,2024-12-08 15h57.48.472654 +0100,
2,150,0,53,None,65,65,0,False,,,,right,2.1167161249904893,None,,,,,,,,,,,,,0,65,65,65,692.8185128339683,,,,,,,,,,,,,,,,,,,,,,,,,,,,,,,,,,,,,,,,,,,,,,,,,,,,,,,,,,,,,,,,,,,,,,692.8119126670063,692.8185128339683,693.8068156249938,694.8014780419762,694.8014780419762,694.8014780419762,,,,696.9211904170224,right,2.1167161249904893,None,,,,,,,,318485,001,2024-12-08_15h57.42.876,Test,2024.2.4,None,2024-12-08 15h57.48.472654 +0100,
54,150,90,51,None,66,66,0,True,,,,left,1.0386517079896294,None,,,,,,,,,,,,,0,66,66,66,696.9363544170046,,,,,,,,,,,,,,,,,,,,,,,,,,,,,,,,,,,,,,,,,,,,,,,,,,,,,,,,,,,,,,,,,,,,,,696.9299010420218,696.9363544170046,697.9343859169749,698.9179775000084,698.9179775000084,698.9179775000084,,,,699.9604586670175,left,1.0386517079896294,None,,,,,,,,318485,001,2024-12-08_15h57.42.876,Test,2024.2.4,None,2024-12-08 15h57.48.472654 +0100,
21,150,120,1,None,67,67,0,False,,,,left,2.1431595000321977,None,,,,,,,,,,,,,0,67,67,67,699.9750994999777,,,,,,,,,,,,,,,,,,,,,,,,,,,,,,,,,,,,,,,,,,,,,,,,,,,,,,,,,,,,,,,,,,,,,,699.9690674589947,699.9750994999777,700.9724137089797,701.9584674999933,701.9584674999933,701.9584674999933,,,,704.1047253750148,left,2.1431595000321977,None,,,,,,,,318485,001,2024-12-08_15h57.42.876,Test,2024.2.4,None,2024-12-08 15h57.48.472654 +0100,
13,150,60,56,None,68,68,0,False,,,,right,1.9586334170307964,None,,,,,,,,,,,,,0,68,68,68,704.1195903749904,,,,,,,,,,,,,,,,,,,,,,,,,,,,,,,,,,,,,,,,,,,,,,,,,,,,,,,,,,,,,,,,,,,,,,704.1130792499753,704.1195903749904,705.1178430420114,706.10142666701,706.10142666701,706.10142666701,,,,708.0702076670132,right,1.9586334170307964,None,,,,,,,,318485,001,2024-12-08_15h57.42.876,Test,2024.2.4,None,2024-12-08 15h57.48.472654 +0100,
29,150,150,44,None,69,69,0,False,,,,right,1.1547461669542827,None,,,,,,,,,,,,,0,69,69,69,708.0852558750194,,,,,,,,,,,,,,,,,,,,,,,,,,,,,,,,,,,,,,,,,,,,,,,,,,,,,,,,,,,,,,,,,,,,,,708.0789693749975,708.0852558750194,709.072304375004,710.0679565420141,710.0679565420141,710.0679565420141,,,,711.2259768749936,right,1.1547461669542827,None,,,,,,,,318485,001,2024-12-08_15h57.42.876,Test,2024.2.4,None,2024-12-08 15h57.48.472654 +0100,
,,,,,,,,,,,,,,,,,,,,,,,,,,,,,,,,,,,,,,,,,,,,,,,,,,,,,,,,,,,,,,,,,,,,,,,,,,,,,,,,,,,,,,,,,,,,,,,,,,,,,,,,,,,,,,,,,,711.2262628750177,711.2358368749847,711.2358368749847,716.0256505419966,space,4.784737791982479,None,318485,001,2024-12-08_15h57.42.876,Test,2024.2.4,None,2024-12-08 15h57.48.472654 +0100,
