Trial_Number,Exposure_Duration,Displacement_Angle,Stimulus,Response,thisN,thisTrialN,thisRepN,Is_Distractor,key_resp_3.keys,key_resp_3.rt,key_resp_3.duration,key_resp_7.keys,key_resp_7.rt,key_resp_7.duration,trials.thisRepN,trials.thisTrialN,trials.thisN,trials.thisIndex,trials_2.thisRepN,trials_2.thisTrialN,trials_2.thisN,trials_2.thisIndex,trials_3.thisRepN,trials_3.thisTrialN,trials_3.thisN,trials_3.thisIndex,trials_4.thisRepN,trials_4.thisTrialN,trials_4.thisN,trials_4.thisIndex,thisRow.t,notes,Intro_to_experiment.started,important1_2.started,key_resp_8.started,Intro_to_experiment.stopped,key_resp_8.keys,key_resp_8.rt,key_resp_8.duration,important.started,important1.started,key_resp_4.started,important.stopped,key_resp_4.keys,key_resp_4.rt,key_resp_4.duration,training_instruction.started,key_resp_9.started,important1_3.started,training_instruction.stopped,key_resp_9.keys,key_resp_9.rt,key_resp_9.duration,training_trial.started,cross.started,image.started,aperture.started,cross.stopped,image.stopped,aperture.stopped,training_trial.stopped,New_instruction.started,text.started,key_resp_2.started,New_instruction.stopped,key_resp_2.keys,key_resp_2.rt,key_resp_2.duration,test_trial.started,cross2.started,cross2.stopped,image_2.started,key_resp_3.started,aperture_2.started,test_trial.stopped,trials_2.key_resp_3.keys,trials_2.key_resp_3.rt,trials_2.key_resp_3.duration,image_2.stopped,aperture_2.stopped,text_3.started,start_blok_2.started,key_resp_5.started,text_4.started,start_blok_2.stopped,key_resp_5.keys,key_resp_5.rt,key_resp_5.duration,training_2.started,cross_2.started,image_3.started,aperture_3.started,cross_2.stopped,image_3.stopped,aperture_3.stopped,training_2.stopped,nyeste_instruks.started,text_5.started,key_resp_6.started,nyeste_instruks.stopped,key_resp_6.keys,key_resp_6.rt,key_resp_6.duration,test_2.started,cross2_2.started,cross2_2.stopped,image_4.started,key_resp_7.started,aperture_4.started,test_2.stopped,trials_4.key_resp_7.keys,trials_4.key_resp_7.rt,trials_4.key_resp_7.duration,Instruction.started,Instruktion.started,key_resp.started,Instruction.stopped,key_resp.keys,key_resp.rt,key_resp.duration,participant,session,date,expName,psychopyVersion,frameRate,expStart,
,,,,,,,,,,,,,,,,,,,,,,,,,,,,,,,,,0.008037291991058737,0.04007270798319951,0.04007270798319951,89.79946862498764,space,89.75086520798504,None,,,,,,,,,,,,,,,,,,,,,,,,,,,,,,,,,,,,,,,,,,,,,,,,,,,,,,,,,,,,,,,,,,,,,,,,,,,,,,,,,,326577,001,2024-12-05_12h38.22.987,Test,2024.2.4,None,2024-12-05 12h38.32.361698 +0100,
,,,,,,,,,,,,,,,,,,,,,,,,,,,,,,,,,,,,,,,,89.79989816702437,89.82646629202645,89.82646629202645,103.20035987498704,space,13.362715499999467,None,,,,,,,,,,,,,,,,,,,,,,,,,,,,,,,,,,,,,,,,,,,,,,,,,,,,,,,,,,,,,,,,,,,,,,,,,,,326577,001,2024-12-05_12h38.22.987,Test,2024.2.4,None,2024-12-05 12h38.32.361698 +0100,
,,,,,,,,,,,,,,,,,,,,,,,,,,,,,,,,,,,,,,,,,,,,,,,103.20055395801319,103.2161184999859,103.2161184999859,110.88711587502621,space,7.66594349994557,None,,,,,,,,,,,,,,,,,,,,,,,,,,,,,,,,,,,,,,,,,,,,,,,,,,,,,,,,,,,,,,,,,,,,326577,001,2024-12-05_12h38.22.987,Test,2024.2.4,None,2024-12-05 12h38.32.361698 +0100,
13,150,60,41,None,0,0,0,,,,,,,,0,0,0,12,,,,,,,,,,,,,110.95597466698382,,,,,,,,,,,,,,,,,,,,,,,110.94948200002545,110.95597466698382,111.08880199998384,111.08880199998384,111.15118174999952,112.79769033298362,112.79769033298362,112.78200979199028,,,,,,,,,,,,,,,,,,,,,,,,,,,,,,,,,,,,,,,,,,,,,,,,,,,,,,,,,,,,326577,001,2024-12-05_12h38.22.987,Test,2024.2.4,None,2024-12-05 12h38.32.361698 +0100,
16,150,90,37,None,1,1,0,,,,,,,,0,1,1,15,,,,,,,,,,,,,112.79769033298362,,,,,,,,,,,,,,,,,,,,,,,112.79282979201525,112.79769033298362,112.9868568329839,112.9868568329839,112.9868568329839,114.6856522919843,114.6856522919843,114.67101962503511,,,,,,,,,,,,,,,,,,,,,,,,,,,,,,,,,,,,,,,,,,,,,,,,,,,,,,,,,,,,326577,001,2024-12-05_12h38.22.987,Test,2024.2.4,None,2024-12-05 12h38.32.361698 +0100,
21,150,120,62,None,2,2,0,,,,,,,,0,2,2,20,,,,,,,,,,,,,114.6856522919843,,,,,,,,,,,,,,,,,,,,,,,114.68047399999341,114.6856522919843,114.88736716698622,114.88736716698622,114.88736716698622,116.58578262501396,116.58578262501396,116.57083095802227,,,,,,,,,,,,,,,,,,,,,,,,,,,,,,,,,,,,,,,,,,,,,,,,,,,,,,,,,,,,326577,001,2024-12-05_12h38.22.987,Test,2024.2.4,None,2024-12-05 12h38.32.361698 +0100,
15,150,60,39,None,3,3,0,,,,,,,,0,3,3,14,,,,,,,,,,,,,116.58578262501396,,,,,,,,,,,,,,,,,,,,,,,116.5805028330069,116.58578262501396,116.7812482920126,116.7812482920126,116.7812482920126,118.48062358301831,118.48062358301831,118.46537012502085,,,,,,,,,,,,,,,,,,,,,,,,,,,,,,,,,,,,,,,,,,,,,,,,,,,,,,,,,,,,326577,001,2024-12-05_12h38.22.987,Test,2024.2.4,None,2024-12-05 12h38.32.361698 +0100,
12,150,60,25,None,4,4,0,,,,,,,,0,4,4,11,,,,,,,,,,,,,118.48062358301831,,,,,,,,,,,,,,,,,,,,,,,118.4756209999905,118.4847327080206,118.6873539169901,118.6873539169901,118.68097758298973,120.38407266698778,120.38407266698778,120.3705595000065,,,,,,,,,,,,,,,,,,,,,,,,,,,,,,,,,,,,,,,,,,,,,,,,,,,,,,,,,,,,326577,001,2024-12-05_12h38.22.987,Test,2024.2.4,None,2024-12-05 12h38.32.361698 +0100,
4,150,0,50,None,5,5,0,,,,,,,,0,5,5,3,,,,,,,,,,,,,120.38407266698778,,,,,,,,,,,,,,,,,,,,,,,120.37909787503304,120.38407266698778,120.58106116700219,120.58106116700219,120.58106116700219,122.27904891700018,122.27904891700018,122.26514437503647,,,,,,,,,,,,,,,,,,,,,,,,,,,,,,,,,,,,,,,,,,,,,,,,,,,,,,,,,,,,326577,001,2024-12-05_12h38.22.987,Test,2024.2.4,None,2024-12-05 12h38.32.361698 +0100,
28,150,150,63,None,6,6,0,,,,,,,,0,6,6,27,,,,,,,,,,,,,122.27904891700018,,,,,,,,,,,,,,,,,,,,,,,122.27394254202954,122.28297908301465,122.48112245800439,122.48112245800439,122.48112245800439,124.17911516700406,124.17911516700406,124.16506616701372,,,,,,,,,,,,,,,,,,,,,,,,,,,,,,,,,,,,,,,,,,,,,,,,,,,,,,,,,,,,326577,001,2024-12-05_12h38.22.987,Test,2024.2.4,None,2024-12-05 12h38.32.361698 +0100,
30,150,150,36,None,7,7,0,,,,,,,,0,7,7,29,,,,,,,,,,,,,124.17911516700406,,,,,,,,,,,,,,,,,,,,,,,124.17417137499433,124.1836304999888,124.38737058301922,124.38737058301922,124.38083450001432,126.08415070798947,126.08415070798947,126.07135620800545,,,,,,,,,,,,,,,,,,,,,,,,,,,,,,,,,,,,,,,,,,,,,,,,,,,,,,,,,,,,326577,001,2024-12-05_12h38.22.987,Test,2024.2.4,None,2024-12-05 12h38.32.361698 +0100,
6,150,30,56,None,8,8,0,,,,,,,,0,8,8,5,,,,,,,,,,,,,126.08415070798947,,,,,,,,,,,,,,,,,,,,,,,126.07920741703128,126.08415070798947,126.2810163749964,126.2810163749964,126.2810163749964,127.9972962079919,127.9972962079919,127.96574733301532,,,,,,,,,,,,,,,,,,,,,,,,,,,,,,,,,,,,,,,,,,,,,,,,,,,,,,,,,,,,326577,001,2024-12-05_12h38.22.987,Test,2024.2.4,None,2024-12-05 12h38.32.361698 +0100,
18,150,90,11,None,9,9,0,,,,,,,,0,9,9,17,,,,,,,,,,,,,127.9972962079919,,,,,,,,,,,,,,,,,,,,,,,127.97596687503392,128.01444316701964,128.18017645803047,128.18017645803047,128.20401395799126,129.89751479198458,129.89751479198458,129.86568954202812,,,,,,,,,,,,,,,,,,,,,,,,,,,,,,,,,,,,,,,,,,,,,,,,,,,,,,,,,,,,326577,001,2024-12-05_12h38.22.987,Test,2024.2.4,None,2024-12-05 12h38.32.361698 +0100,
10,150,30,34,None,10,10,0,,,,,,,,0,10,10,9,,,,,,,,,,,,,129.89751479198458,,,,,,,,,,,,,,,,,,,,,,,129.892473416985,129.89751479198458,130.08083954203175,130.08083954203175,130.08501475001685,131.77675841702148,131.77675841702148,131.7642140830285,,,,,,,,,,,,,,,,,,,,,,,,,,,,,,,,,,,,,,,,,,,,,,,,,,,,,,,,,,,,326577,001,2024-12-05_12h38.22.987,Test,2024.2.4,None,2024-12-05 12h38.32.361698 +0100,
19,150,90,31,None,11,11,0,,,,,,,,0,11,11,18,,,,,,,,,,,,,131.77675841702148,,,,,,,,,,,,,,,,,,,,,,,131.77245841699187,131.78184308303753,131.98768037499394,131.98768037499394,131.96927108301315,133.68619145802222,133.68619145802222,133.67163662501844,,,,,,,,,,,,,,,,,,,,,,,,,,,,,,,,,,,,,,,,,,,,,,,,,,,,,,,,,,,,326577,001,2024-12-05_12h38.22.987,Test,2024.2.4,None,2024-12-05 12h38.32.361698 +0100,
32,150,180,7,None,12,12,0,,,,,,,,0,12,12,31,,,,,,,,,,,,,133.68619145802222,,,,,,,,,,,,,,,,,,,,,,,133.68041274999268,133.68619145802222,133.88112874998478,133.88112874998478,133.88112874998478,135.58038325002417,135.58038325002417,135.56524620798882,,,,,,,,,,,,,,,,,,,,,,,,,,,,,,,,,,,,,,,,,,,,,,,,,,,,,,,,,,,,326577,001,2024-12-05_12h38.22.987,Test,2024.2.4,None,2024-12-05 12h38.32.361698 +0100,
3,150,0,26,None,13,13,0,,,,,,,,0,13,13,2,,,,,,,,,,,,,135.58038325002417,,,,,,,,,,,,,,,,,,,,,,,135.5751963329967,135.58463262498844,135.78102950000903,135.78102950000903,135.78102950000903,137.47929820802528,137.47929820802528,137.46519412501948,,,,,,,,,,,,,,,,,,,,,,,,,,,,,,,,,,,,,,,,,,,,,,,,,,,,,,,,,,,,326577,001,2024-12-05_12h38.22.987,Test,2024.2.4,None,2024-12-05 12h38.32.361698 +0100,
31,150,180,22,None,14,14,0,,,,,,,,0,14,14,30,,,,,,,,,,,,,137.47929820802528,,,,,,,,,,,,,,,,,,,,,,,137.47400783299236,137.48364279203815,137.68112804199336,137.68112804199336,137.68112804199336,139.37948562501697,139.37948562501697,139.36542329203803,,,,,,,,,,,,,,,,,,,,,,,,,,,,,,,,,,,,,,,,,,,,,,,,,,,,,,,,,,,,326577,001,2024-12-05_12h38.22.987,Test,2024.2.4,None,2024-12-05 12h38.32.361698 +0100,
7,150,30,61,None,15,15,0,,,,,,,,0,15,15,6,,,,,,,,,,,,,139.37948562501697,,,,,,,,,,,,,,,,,,,,,,,139.37459841702366,139.38373354199575,139.58120091701858,139.58120091701858,139.58120091701858,141.2795486249961,141.2795486249961,141.2653332920163,,,,,,,,,,,,,,,,,,,,,,,,,,,,,,,,,,,,,,,,,,,,,,,,,,,,,,,,,,,,326577,001,2024-12-05_12h38.22.987,Test,2024.2.4,None,2024-12-05 12h38.32.361698 +0100,
2,150,0,58,None,16,16,0,,,,,,,,0,16,16,1,,,,,,,,,,,,,141.2795486249961,,,,,,,,,,,,,,,,,,,,,,,141.27462445799029,141.28362524998374,141.48138466698583,141.48138466698583,141.48138466698583,143.1795900830184,143.1795900830184,143.16546874999767,,,,,,,,,,,,,,,,,,,,,,,,,,,,,,,,,,,,,,,,,,,,,,,,,,,,,,,,,,,,326577,001,2024-12-05_12h38.22.987,Test,2024.2.4,None,2024-12-05 12h38.32.361698 +0100,
8,150,30,9,None,17,17,0,,,,,,,,0,17,17,7,,,,,,,,,,,,,143.1795900830184,,,,,,,,,,,,,,,,,,,,,,,143.17459291702835,143.1834182080347,143.38111537502846,143.38111537502846,143.38111537502846,145.07970966701396,145.07970966701396,145.06524354201974,,,,,,,,,,,,,,,,,,,,,,,,,,,,,,,,,,,,,,,,,,,,,,,,,,,,,,,,,,,,326577,001,2024-12-05_12h38.22.987,Test,2024.2.4,None,2024-12-05 12h38.32.361698 +0100,
27,150,150,51,None,18,18,0,,,,,,,,0,18,18,26,,,,,,,,,,,,,145.07970966701396,,,,,,,,,,,,,,,,,,,,,,,145.07464450004045,145.0837482920033,145.2810427499935,145.2810427499935,145.2810427499935,146.97981658298522,146.97981658298522,146.96531549998326,,,,,,,,,,,,,,,,,,,,,,,,,,,,,,,,,,,,,,,,,,,,,,,,,,,,,,,,,,,,326577,001,2024-12-05_12h38.22.987,Test,2024.2.4,None,2024-12-05 12h38.32.361698 +0100,
5,150,0,12,None,19,19,0,,,,,,,,0,19,19,4,,,,,,,,,,,,,146.97981658298522,,,,,,,,,,,,,,,,,,,,,,,146.97487887501484,146.98385512502864,147.18110341700958,147.18110341700958,147.18110341700958,148.87956308299908,148.87956308299908,148.86531604203628,,,,,,,,,,,,,,,,,,,,,,,,,,,,,,,,,,,,,,,,,,,,,,,,,,,,,,,,,,,,326577,001,2024-12-05_12h38.22.987,Test,2024.2.4,None,2024-12-05 12h38.32.361698 +0100,
11,150,60,64,None,20,20,0,,,,,,,,0,20,20,10,,,,,,,,,,,,,148.87956308299908,,,,,,,,,,,,,,,,,,,,,,,148.87458800000604,148.88381658302387,149.08115854201606,149.08115854201606,149.08115854201606,150.78035166702466,150.78035166702466,150.76530462503433,,,,,,,,,,,,,,,,,,,,,,,,,,,,,,,,,,,,,,,,,,,,,,,,,,,,,,,,,,,,326577,001,2024-12-05_12h38.22.987,Test,2024.2.4,None,2024-12-05 12h38.32.361698 +0100,
34,150,180,49,None,21,21,0,,,,,,,,0,21,21,33,,,,,,,,,,,,,150.78035166702466,,,,,,,,,,,,,,,,,,,,,,,150.77548837498762,150.78413166699465,150.98099925002316,150.98099925002316,150.98099925002316,152.680182082986,152.680182082986,152.66519058303675,,,,,,,,,,,,,,,,,,,,,,,,,,,,,,,,,,,,,,,,,,,,,,,,,,,,,,,,,,,,326577,001,2024-12-05_12h38.22.987,Test,2024.2.4,None,2024-12-05 12h38.32.361698 +0100,
25,150,120,30,None,22,22,0,,,,,,,,0,22,22,24,,,,,,,,,,,,,152.680182082986,,,,,,,,,,,,,,,,,,,,,,,152.67491587501718,152.68440745800035,152.88113887503278,152.88113887503278,152.88113887503278,154.58024708303856,154.58024708303856,154.56520708301105,,,,,,,,,,,,,,,,,,,,,,,,,,,,,,,,,,,,,,,,,,,,,,,,,,,,,,,,,,,,326577,001,2024-12-05_12h38.22.987,Test,2024.2.4,None,2024-12-05 12h38.32.361698 +0100,
29,150,150,44,None,23,23,0,,,,,,,,0,23,23,28,,,,,,,,,,,,,154.58024708303856,,,,,,,,,,,,,,,,,,,,,,,154.5752224579919,154.58407937502488,154.78095554199535,154.78095554199535,154.78095554199535,156.47948412504047,156.47948412504047,156.46518587501487,,,,,,,,,,,,,,,,,,,,,,,,,,,,,,,,,,,,,,,,,,,,,,,,,,,,,,,,,,,,326577,001,2024-12-05_12h38.22.987,Test,2024.2.4,None,2024-12-05 12h38.32.361698 +0100,
24,150,120,42,None,24,24,0,,,,,,,,0,24,24,23,,,,,,,,,,,,,156.47948412504047,,,,,,,,,,,,,,,,,,,,,,,156.474537083006,156.48341520800022,156.68104875000427,156.68104875000427,156.68104875000427,158.37997533299495,158.37997533299495,158.36531633301638,,,,,,,,,,,,,,,,,,,,,,,,,,,,,,,,,,,,,,,,,,,,,,,,,,,,,,,,,,,,326577,001,2024-12-05_12h38.22.987,Test,2024.2.4,None,2024-12-05 12h38.32.361698 +0100,
9,150,30,29,None,25,25,0,,,,,,,,0,25,25,8,,,,,,,,,,,,,158.37997533299495,,,,,,,,,,,,,,,,,,,,,,,158.3749874579953,158.38371570798336,158.5811038329848,158.5811038329848,158.5811038329848,160.27995670802193,160.27995670802193,160.2653933329857,,,,,,,,,,,,,,,,,,,,,,,,,,,,,,,,,,,,,,,,,,,,,,,,,,,,,,,,,,,,326577,001,2024-12-05_12h38.22.987,Test,2024.2.4,None,2024-12-05 12h38.32.361698 +0100,
22,150,120,2,None,26,26,0,,,,,,,,0,26,26,21,,,,,,,,,,,,,160.27995670802193,,,,,,,,,,,,,,,,,,,,,,,160.27461883303476,160.2850774580147,160.48132600000827,160.48132600000827,160.48132600000827,162.18029654200654,162.18029654200654,162.1654666250106,,,,,,,,,,,,,,,,,,,,,,,,,,,,,,,,,,,,,,,,,,,,,,,,,,,,,,,,,,,,326577,001,2024-12-05_12h38.22.987,Test,2024.2.4,None,2024-12-05 12h38.32.361698 +0100,
35,150,180,20,None,27,27,0,,,,,,,,0,27,27,34,,,,,,,,,,,,,162.18029654200654,,,,,,,,,,,,,,,,,,,,,,,162.1751894580084,162.18505662499228,162.38111345801735,162.38111345801735,162.38111345801735,164.08048079203581,164.08048079203581,164.06519408302847,,,,,,,,,,,,,,,,,,,,,,,,,,,,,,,,,,,,,,,,,,,,,,,,,,,,,,,,,,,,326577,001,2024-12-05_12h38.22.987,Test,2024.2.4,None,2024-12-05 12h38.32.361698 +0100,
1,150,0,27,None,28,28,0,,,,,,,,0,28,28,0,,,,,,,,,,,,,164.08048079203581,,,,,,,,,,,,,,,,,,,,,,,164.07590820803307,164.08459616702748,164.28118591703242,164.28118591703242,164.28118591703242,165.97951904201182,165.97951904201182,165.96536487503909,,,,,,,,,,,,,,,,,,,,,,,,,,,,,,,,,,,,,,,,,,,,,,,,,,,,,,,,,,,,326577,001,2024-12-05_12h38.22.987,Test,2024.2.4,None,2024-12-05 12h38.32.361698 +0100,
26,150,150,3,None,29,29,0,,,,,,,,0,29,29,25,,,,,,,,,,,,,165.97951904201182,,,,,,,,,,,,,,,,,,,,,,,165.9744833750301,165.98362854198785,166.18111662502633,166.18111662502633,166.18111662502633,167.87871316703968,167.87871316703968,167.86505383299664,,,,,,,,,,,,,,,,,,,,,,,,,,,,,,,,,,,,,,,,,,,,,,,,,,,,,,,,,,,,326577,001,2024-12-05_12h38.22.987,Test,2024.2.4,None,2024-12-05 12h38.32.361698 +0100,
17,150,90,45,None,30,30,0,,,,,,,,0,30,30,16,,,,,,,,,,,,,167.87871316703968,,,,,,,,,,,,,,,,,,,,,,,167.87377045798348,167.883495667018,168.08804204198532,168.08804204198532,168.08105145802256,169.78537433303427,169.78537433303427,169.77159879199462,,,,,,,,,,,,,,,,,,,,,,,,,,,,,,,,,,,,,,,,,,,,,,,,,,,,,,,,,,,,326577,001,2024-12-05_12h38.22.987,Test,2024.2.4,None,2024-12-05 12h38.32.361698 +0100,
20,150,90,15,None,31,31,0,,,,,,,,0,31,31,19,,,,,,,,,,,,,169.78537433303427,,,,,,,,,,,,,,,,,,,,,,,169.7800484999898,169.78537433303427,169.98102629202185,169.98102629202185,169.98102629202185,171.6800050000311,171.6800050000311,171.66551245801384,,,,,,,,,,,,,,,,,,,,,,,,,,,,,,,,,,,,,,,,,,,,,,,,,,,,,,,,,,,,326577,001,2024-12-05_12h38.22.987,Test,2024.2.4,None,2024-12-05 12h38.32.361698 +0100,
33,150,180,1,None,32,32,0,,,,,,,,0,32,32,32,,,,,,,,,,,,,171.6800050000311,,,,,,,,,,,,,,,,,,,,,,,171.67414841701975,171.68401341699064,171.88113512500422,171.88113512500422,171.88113512500422,173.5789545000298,173.5789545000298,173.56521870801225,,,,,,,,,,,,,,,,,,,,,,,,,,,,,,,,,,,,,,,,,,,,,,,,,,,,,,,,,,,,326577,001,2024-12-05_12h38.22.987,Test,2024.2.4,None,2024-12-05 12h38.32.361698 +0100,
23,150,120,53,None,33,33,0,,,,,,,,0,33,33,22,,,,,,,,,,,,,173.5789545000298,,,,,,,,,,,,,,,,,,,,,,,173.57393304200377,173.58295754203573,173.7812185829971,173.7812185829971,173.7812185829971,175.47804237500532,175.47804237500532,175.4651489169919,,,,,,,,,,,,,,,,,,,,,,,,,,,,,,,,,,,,,,,,,,,,,,,,,,,,,,,,,,,,326577,001,2024-12-05_12h38.22.987,Test,2024.2.4,None,2024-12-05 12h38.32.361698 +0100,
14,150,60,18,None,34,34,0,,,,,,,,0,34,34,13,,,,,,,,,,,,,175.47804237500532,,,,,,,,,,,,,,,,,,,,,,,175.47304404200986,175.48323912499472,175.68110266700387,175.68110266700387,175.68110266700387,177.37040895799873,177.37040895799873,177.36522283300292,,,,,,,,,,,,,,,,,,,,,,,,,,,,,,,,,,,,,,,,,,,,,,,,,,,,,,,,,,,,326577,001,2024-12-05_12h38.22.987,Test,2024.2.4,None,2024-12-05 12h38.32.361698 +0100,
,,,,,,,,,,,,,,,,,,,,,,,,,,,,,,,,,,,,,,,,,,,,,,,,,,,,,,,,,,,,,,177.36551766702905,177.37952279200545,177.37952279200545,186.05079462501453,space,8.659511042002123,None,,,,,,,,,,,,,,,,,,,,,,,,,,,,,,,,,,,,,,,,,,,,,,,,,,,,,326577,001,2024-12-05_12h38.22.987,Test,2024.2.4,None,2024-12-05 12h38.32.361698 +0100,
36,150,0,55,None,0,0,0,True,right,1.2605177920195274,None,,,,,,,,0,0,0,0,,,,,,,,,186.10035366698867,,,,,,,,,,,,,,,,,,,,,,,,,,,,,,,,,,,,,,186.07848208298674,186.10035366698867,187.09788708301494,188.0477772920276,188.0477772920276,188.0477772920276,189.31511779199354,right,1.2605177920195274,None,,,,,,,,,,,,,,,,,,,,,,,,,,,,,,,,,,,,,,,,,,,326577,001,2024-12-05_12h38.22.987,Test,2024.2.4,None,2024-12-05 12h38.32.361698 +0100,
16,150,90,37,None,1,1,0,False,left,1.088414708035998,None,,,,,,,,0,1,1,1,,,,,,,,,189.40523354202742,,,,,,,,,,,,,,,,,,,,,,,,,,,,,,,,,,,,,,189.31883812503656,189.40523354202742,190.4029744170257,191.30490570800612,191.30490570800612,191.30490570800612,192.39996854198398,left,1.088414708035998,None,,,,,,,,,,,,,,,,,,,,,,,,,,,,,,,,,,,,,,,,,,,326577,001,2024-12-05_12h38.22.987,Test,2024.2.4,None,2024-12-05 12h38.32.361698 +0100,
54,150,90,17,None,2,2,0,True,right,0.9245056670042686,None,,,,,,,,0,2,2,2,,,,,,,,,192.41797004203545,,,,,,,,,,,,,,,,,,,,,,,,,,,,,,,,,,,,,,192.41082887502853,192.41797004203545,193.4143532080343,194.39779287501005,194.39779287501005,194.39779287501005,195.33294291701168,right,0.9245056670042686,None,,,,,,,,,,,,,,,,,,,,,,,,,,,,,,,,,,,,,,,,,,,326577,001,2024-12-05_12h38.22.987,Test,2024.2.4,None,2024-12-05 12h38.32.361698 +0100,
59,150,120,69,None,3,3,0,True,right,3.0837573329918087,None,,,,,,,,0,3,3,3,,,,,,,,,195.3493365420145,,,,,,,,,,,,,,,,,,,,,,,,,,,,,,,,,,,,,,195.34283645800315,195.3493365420145,196.34756904200185,197.3311173330294,197.3311173330294,197.3311173330294,200.42322587501258,right,3.0837573329918087,None,200.31964674999472,200.31964674999472,200.32940829201834,,,,,,,,,,,,,,,,,,,,,,,,,,,,,,,,,,,,,,,,326577,001,2024-12-05_12h38.22.987,Test,2024.2.4,None,2024-12-05 12h38.32.361698 +0100,
45,150,30,4,None,4,4,0,True,right,0.9163757920032367,None,,,,,,,,0,4,4,4,,,,,,,,,200.4335056670243,,,,,,,,,,,,,,,,,,,,,,,,,,,,,,,,,,,,,,200.4291100000264,200.4335056670243,201.4310940420255,202.42103762499755,202.42103762499755,202.42103762499755,203.33989616698818,right,0.9163757920032367,None,,,,,,,,,,,,,,,,,,,,,,,,,,,,,,,,,,,,,,,,,,,326577,001,2024-12-05_12h38.22.987,Test,2024.2.4,None,2024-12-05 12h38.32.361698 +0100,
66,150,180,21,None,5,5,0,True,left,1.3491483749821782,None,,,,,,,,0,5,5,5,,,,,,,,,203.35526454198407,,,,,,,,,,,,,,,,,,,,,,,,,,,,,,,,,,,,,,203.34904912504135,203.35526454198407,204.35303016699618,205.3384584999876,205.3384584999876,205.3384584999876,206.68994954199297,left,1.3491483749821782,None,,,,,,,,,,,,,,,,,,,,,,,,,,,,,,,,,,,,,,,,,,,326577,001,2024-12-05_12h38.22.987,Test,2024.2.4,None,2024-12-05 12h38.32.361698 +0100,
2,150,0,58,None,6,6,0,False,left,0.8843567920266651,None,,,,,,,,0,6,6,6,,,,,,,,,206.7070598329883,,,,,,,,,,,,,,,,,,,,,,,,,,,,,,,,,,,,,,206.701043417037,206.7070598329883,207.69962645799387,208.6883092080243,208.6883092080243,208.6883092080243,209.58302212500712,left,0.8843567920266651,None,,,,,,,,,,,,,,,,,,,,,,,,,,,,,,,,,,,,,,,,,,,326577,001,2024-12-05_12h38.22.987,Test,2024.2.4,None,2024-12-05 12h38.32.361698 +0100,
28,150,150,63,None,7,7,0,False,left,1.1937458330066875,None,,,,,,,,0,7,7,7,,,,,,,,,209.60043895803392,,,,,,,,,,,,,,,,,,,,,,,,,,,,,,,,,,,,,,209.5939952500048,209.60043895803392,210.59774316701805,211.58108025003457,211.58108025003457,211.58108025003457,212.7830932920333,left,1.1937458330066875,None,,,,,,,,,,,,,,,,,,,,,,,,,,,,,,,,,,,,,,,,,,,326577,001,2024-12-05_12h38.22.987,Test,2024.2.4,None,2024-12-05 12h38.32.361698 +0100,
9,150,30,29,None,8,8,0,False,right,0.8096893330221064,None,,,,,,,,0,8,8,8,,,,,,,,,212.7988078329945,,,,,,,,,,,,,,,,,,,,,,,,,,,,,,,,,,,,,,212.7928661670303,212.7988078329945,213.78681220801082,214.78145395801403,214.78145395801403,214.78145395801403,215.6002113330178,right,0.8096893330221064,None,,,,,,,,,,,,,,,,,,,,,,,,,,,,,,,,,,,,,,,,,,,326577,001,2024-12-05_12h38.22.987,Test,2024.2.4,None,2024-12-05 12h38.32.361698 +0100,
12,150,60,25,None,9,9,0,False,right,1.1452414999948815,None,,,,,,,,0,9,9,9,,,,,,,,,215.61636920802994,,,,,,,,,,,,,,,,,,,,,,,,,,,,,,,,,,,,,,215.60897391702747,215.61636920802994,216.6143494580174,217.5976632499951,217.5976632499951,217.5976632499951,218.74976283300202,right,1.1452414999948815,None,,,,,,,,,,,,,,,,,,,,,,,,,,,,,,,,,,,,,,,,,,,326577,001,2024-12-05_12h38.22.987,Test,2024.2.4,None,2024-12-05 12h38.32.361698 +0100,
30,150,150,36,None,10,10,0,False,right,0.8176766249816865,None,,,,,,,,0,10,10,10,,,,,,,,,218.7661352920113,,,,,,,,,,,,,,,,,,,,,,,,,,,,,,,,,,,,,,218.75983104202896,218.7661352920113,219.76443695800845,220.74794787500286,220.74794787500286,220.74794787500286,221.58062062499812,right,0.8176766249816865,None,,,,,,,,,,,,,,,,,,,,,,,,,,,,,,,,,,,,,,,,,,,326577,001,2024-12-05_12h38.22.987,Test,2024.2.4,None,2024-12-05 12h38.32.361698 +0100,
19,150,90,31,None,11,11,0,False,left,0.9159188340418041,None,,,,,,,,0,11,11,11,,,,,,,,,221.59288837498752,,,,,,,,,,,,,,,,,,,,,,,,,,,,,,,,,,,,,,221.58844362501986,221.59288837498752,222.58601304201875,223.57132566702785,223.57132566702785,223.57132566702785,224.49002283299342,left,0.9159188340418041,None,,,,,,,,,,,,,,,,,,,,,,,,,,,,,,,,,,,,,,,,,,,326577,001,2024-12-05_12h38.22.987,Test,2024.2.4,None,2024-12-05 12h38.32.361698 +0100,
58,150,120,70,None,12,12,0,True,left,1.0266148750088178,None,,,,,,,,0,12,12,12,,,,,,,,,224.50585683301324,,,,,,,,,,,,,,,,,,,,,,,,,,,,,,,,,,,,,,224.49911862501176,224.50585683301324,225.50246445799712,226.48905604198808,226.48905604198808,226.48905604198808,227.52270004199818,left,1.0266148750088178,None,,,,,,,,,,,,,,,,,,,,,,,,,,,,,,,,,,,,,,,,,,,326577,001,2024-12-05_12h38.22.987,Test,2024.2.4,None,2024-12-05 12h38.32.361698 +0100,
6,150,30,56,None,13,13,0,False,right,0.8148829590063542,None,,,,,,,,0,13,13,13,,,,,,,,,227.53783745801775,,,,,,,,,,,,,,,,,,,,,,,,,,,,,,,,,,,,,,227.5316710830084,227.53783745801775,228.53651458298555,229.52174929203466,229.52174929203466,229.52174929203466,230.33984583301935,right,0.8148829590063542,None,,,,,,,,,,,,,,,,,,,,,,,,,,,,,,,,,,,,,,,,,,,326577,001,2024-12-05_12h38.22.987,Test,2024.2.4,None,2024-12-05 12h38.32.361698 +0100,
3,150,0,26,None,14,14,0,False,left,0.9823482920182869,None,,,,,,,,0,14,14,14,,,,,,,,,230.35534691700013,,,,,,,,,,,,,,,,,,,,,,,,,,,,,,,,,,,,,,230.3491627080366,230.35534691700013,231.35272775002522,232.33814829203766,232.33814829203766,232.33814829203766,233.32295450003585,left,0.9823482920182869,None,,,,,,,,,,,,,,,,,,,,,,,,,,,,,,,,,,,,,,,,,,,326577,001,2024-12-05_12h38.22.987,Test,2024.2.4,None,2024-12-05 12h38.32.361698 +0100,
67,150,180,66,None,15,15,0,True,left,1.0320006249821745,None,,,,,,,,0,15,15,15,,,,,,,,,233.33825520798564,,,,,,,,,,,,,,,,,,,,,,,,,,,,,,,,,,,,,,233.3323628330254,233.33825520798564,234.3363442500122,235.32138883299194,235.32138883299194,235.32138883299194,236.35550537501695,left,1.0320006249821745,None,,,,,,,,,,,,,,,,,,,,,,,,,,,,,,,,,,,,,,,,,,,326577,001,2024-12-05_12h38.22.987,Test,2024.2.4,None,2024-12-05 12h38.32.361698 +0100,
55,150,90,6,None,16,16,0,True,left,0.9604202079935931,None,,,,,,,,0,16,16,16,,,,,,,,,236.3685977080022,,,,,,,,,,,,,,,,,,,,,,,,,,,,,,,,,,,,,,236.36301149998326,236.3685977080022,237.36442408303265,238.3547108329949,238.3547108329949,238.3547108329949,239.32741150003858,left,0.9604202079935931,None,,,,,,,,,,,,,,,,,,,,,,,,,,,,,,,,,,,,,,,,,,,326577,001,2024-12-05_12h38.22.987,Test,2024.2.4,None,2024-12-05 12h38.32.361698 +0100,
24,150,120,42,None,17,17,0,False,right,0.6810450839693658,None,,,,,,,,0,17,17,17,,,,,,,,,239.34095958300168,,,,,,,,,,,,,,,,,,,,,,,,,,,,,,,,,,,,,,239.33595762500772,239.34095958300168,240.33633154199924,241.3214351250208,241.3214351250208,241.3214351250208,242.00621195801068,right,0.6810450839693658,None,,,,,,,,,,,,,,,,,,,,,,,,,,,,,,,,,,,,,,,,,,,326577,001,2024-12-05_12h38.22.987,Test,2024.2.4,None,2024-12-05 12h38.32.361698 +0100,
56,150,120,10,None,18,18,0,True,right,1.0533862080192193,None,,,,,,,,0,18,18,18,,,,,,,,,242.02144241699716,,,,,,,,,,,,,,,,,,,,,,,,,,,,,,,,,,,,,,242.0151082079974,242.02144241699716,243.01422533299774,244.00496191700222,244.00496191700222,244.00496191700222,245.0673929580371,right,1.0533862080192193,None,,,,,,,,,,,,,,,,,,,,,,,,,,,,,,,,,,,,,,,,,,,326577,001,2024-12-05_12h38.22.987,Test,2024.2.4,None,2024-12-05 12h38.32.361698 +0100,
51,150,90,52,None,19,19,0,True,right,1.058543874998577,None,,,,,,,,0,19,19,19,,,,,,,,,245.0832339579938,,,,,,,,,,,,,,,,,,,,,,,,,,,,,,,,,,,,,,245.0767696670373,245.0832339579938,246.08107675000792,247.0644913330325,247.0644913330325,247.0644913330325,248.1331437919871,right,1.058543874998577,None,,,,,,,,,,,,,,,,,,,,,,,,,,,,,,,,,,,,,,,,,,,326577,001,2024-12-05_12h38.22.987,Test,2024.2.4,None,2024-12-05 12h38.32.361698 +0100,
10,150,30,34,None,20,20,0,False,left,0.8721942909760401,None,,,,,,,,0,20,20,20,,,,,,,,,248.15519987500738,,,,,,,,,,,,,,,,,,,,,,,,,,,,,,,,,,,,,,248.1490122920368,248.15519987500738,249.1498038750142,250.12963204202242,250.12963204202242,250.12963204202242,251.0067863750155,left,0.8721942909760401,None,,,,,,,,,,,,,,,,,,,,,,,,,,,,,,,,,,,,,,,,,,,326577,001,2024-12-05_12h38.22.987,Test,2024.2.4,None,2024-12-05 12h38.32.361698 +0100,
8,150,30,9,None,21,21,0,False,right,1.319565333018545,None,,,,,,,,0,21,21,21,,,,,,,,,251.02483333303826,,,,,,,,,,,,,,,,,,,,,,,,,,,,,,,,,,,,,,251.01813262503128,251.02483333303826,252.02000362501713,253.00578533299267,253.00578533299267,253.00578533299267,254.333230542019,right,1.319565333018545,None,,,,,,,,,,,,,,,,,,,,,,,,,,,,,,,,,,,,,,,,,,,326577,001,2024-12-05_12h38.22.987,Test,2024.2.4,None,2024-12-05 12h38.32.361698 +0100,
1,150,0,27,None,22,22,0,False,right,0.8578493749955669,None,,,,,,,,0,22,22,22,,,,,,,,,254.35023662500316,,,,,,,,,,,,,,,,,,,,,,,,,,,,,,,,,,,,,,254.34359554201365,254.35023662500316,255.34776954201516,256.3311100000283,256.3311100000283,256.3311100000283,257.19982158299536,right,0.8578493749955669,None,,,,,,,,,,,,,,,,,,,,,,,,,,,,,,,,,,,,,,,,,,,326577,001,2024-12-05_12h38.22.987,Test,2024.2.4,None,2024-12-05 12h38.32.361698 +0100,
5,150,0,12,None,23,23,0,False,left,1.0400836669723503,None,,,,,,,,0,23,23,23,,,,,,,,,257.2162464170251,,,,,,,,,,,,,,,,,,,,,,,,,,,,,,,,,,,,,,257.21039058302995,257.2162464170251,258.214473250031,259.1978102920111,259.1978102920111,259.1978102920111,260.2497905420023,left,1.0400836669723503,None,,,,,,,,,,,,,,,,,,,,,,,,,,,,,,,,,,,,,,,,,,,326577,001,2024-12-05_12h38.22.987,Test,2024.2.4,None,2024-12-05 12h38.32.361698 +0100,
61,150,150,57,None,24,24,0,True,left,1.111213291005697,None,,,,,,,,0,24,24,24,,,,,,,,,260.26640841702465,,,,,,,,,,,,,,,,,,,,,,,,,,,,,,,,,,,,,,260.2605895830202,260.26640841702465,261.26435520802625,262.2477557500242,262.2477557500242,262.2477557500242,263.3666072500055,left,1.111213291005697,None,,,,,,,,,,,,,,,,,,,,,,,,,,,,,,,,,,,,,,,,,,,326577,001,2024-12-05_12h38.22.987,Test,2024.2.4,None,2024-12-05 12h38.32.361698 +0100,
46,150,60,38,None,25,25,0,True,right,0.8720310420030728,None,,,,,,,,0,25,25,25,,,,,,,,,263.38206412503496,,,,,,,,,,,,,,,,,,,,,,,,,,,,,,,,,,,,,,263.37589062500047,263.38206412503496,264.3809912080178,265.36437329201726,265.36437329201726,265.36437329201726,266.239211542008,right,0.8720310420030728,None,,,,,,,,,,,,,,,,,,,,,,,,,,,,,,,,,,,,,,,,,,,326577,001,2024-12-05_12h38.22.987,Test,2024.2.4,None,2024-12-05 12h38.32.361698 +0100,
29,150,150,44,None,26,26,0,False,right,1.1261610420187935,None,,,,,,,,0,26,26,26,,,,,,,,,266.2540847079945,,,,,,,,,,,,,,,,,,,,,,,,,,,,,,,,,,,,,,266.2481137079885,266.2540847079945,267.2477287920192,268.2387594580068,268.2387594580068,268.2387594580068,269.36812404199736,right,1.1261610420187935,None,,,,,,,,,,,,,,,,,,,,,,,,,,,,,,,,,,,,,,,,,,,326577,001,2024-12-05_12h38.22.987,Test,2024.2.4,None,2024-12-05 12h38.32.361698 +0100,
41,150,30,47,None,27,27,0,True,left,0.854629167006351,None,,,,,,,,0,27,27,27,,,,,,,,,269.3838615830173,,,,,,,,,,,,,,,,,,,,,,,,,,,,,,,,,,,,,,269.3777320419904,269.3838615830173,270.3813790419954,271.3645200000028,271.3645200000028,271.3645200000028,272.2225027080276,left,0.854629167006351,None,,,,,,,,,,,,,,,,,,,,,,,,,,,,,,,,,,,,,,,,,,,326577,001,2024-12-05_12h38.22.987,Test,2024.2.4,None,2024-12-05 12h38.32.361698 +0100,
47,150,60,68,None,28,28,0,True,right,0.9275011249701492,None,,,,,,,,0,28,28,28,,,,,,,,,272.2378834580304,,,,,,,,,,,,,,,,,,,,,,,,,,,,,,,,,,,,,,272.23131408303743,272.2378834580304,273.23111824999796,274.2224225830287,274.2224225830287,274.2224225830287,275.1573805420194,right,0.9275011249701492,None,,,,,,,,,,,,,,,,,,,,,,,,,,,,,,,,,,,,,,,,,,,326577,001,2024-12-05_12h38.22.987,Test,2024.2.4,None,2024-12-05 12h38.32.361698 +0100,
13,150,60,41,None,29,29,0,False,left,0.7897602089797147,None,,,,,,,,0,29,29,29,,,,,,,,,275.1744792080135,,,,,,,,,,,,,,,,,,,,,,,,,,,,,,,,,,,,,,275.16737495799316,275.1744792080135,276.17014737502905,277.15433491702424,277.15433491702424,277.15433491702424,277.9505117080407,left,0.7897602089797147,None,,,,,,,,,,,,,,,,,,,,,,,,,,,,,,,,,,,,,,,,,,,326577,001,2024-12-05_12h38.22.987,Test,2024.2.4,None,2024-12-05 12h38.32.361698 +0100,
69,150,180,65,None,30,30,0,True,left,1.0284497499815188,None,,,,,,,,0,30,30,30,,,,,,,,,277.96636891702656,,,,,,,,,,,,,,,,,,,,,,,,,,,,,,,,,,,,,,277.95976104203146,277.96636891702656,278.9643102079863,279.9469481250271,279.9469481250271,279.9469481250271,280.9832993330201,left,1.0284497499815188,None,,,,,,,,,,,,,,,,,,,,,,,,,,,,,,,,,,,,,,,,,,,326577,001,2024-12-05_12h38.22.987,Test,2024.2.4,None,2024-12-05 12h38.32.361698 +0100,
40,150,0,32,None,31,31,0,True,right,0.9914294159971178,None,,,,,,,,0,31,31,31,,,,,,,,,281.0005520830164,,,,,,,,,,,,,,,,,,,,,,,,,,,,,,,,,,,,,,280.9937437500339,281.0005520830164,281.9976502080099,282.9810554580181,282.9810554580181,282.9810554580181,283.983422291989,right,0.9914294159971178,None,,,,,,,,,,,,,,,,,,,,,,,,,,,,,,,,,,,,,,,,,,,326577,001,2024-12-05_12h38.22.987,Test,2024.2.4,None,2024-12-05 12h38.32.361698 +0100,
62,150,150,48,None,32,32,0,True,left,1.0347147499560378,None,,,,,,,,0,32,32,32,,,,,,,,,284.00066833302844,,,,,,,,,,,,,,,,,,,,,,,,,,,,,,,,,,,,,,283.99397487501847,284.00066833302844,284.9976246249862,285.9853805830353,285.9853805830353,285.9853805830353,287.02247362502385,left,1.0347147499560378,None,,,,,,,,,,,,,,,,,,,,,,,,,,,,,,,,,,,,,,,,,,,326577,001,2024-12-05_12h38.22.987,Test,2024.2.4,None,2024-12-05 12h38.32.361698 +0100,
44,150,30,24,None,33,33,0,True,right,0.8030312079936266,None,,,,,,,,0,33,33,33,,,,,,,,,287.03936712502036,,,,,,,,,,,,,,,,,,,,,,,,,,,,,,,,,,,,,,287.0327910420019,287.03936712502036,288.0359818750294,289.02182762499433,289.02182762499433,289.02182762499433,289.83331379201263,right,0.8030312079936266,None,,,,,,,,,,,,,,,,,,,,,,,,,,,,,,,,,,,,,,,,,,,326577,001,2024-12-05_12h38.22.987,Test,2024.2.4,None,2024-12-05 12h38.32.361698 +0100,
27,150,150,51,None,34,34,0,False,right,1.467814375006128,None,,,,,,,,0,34,34,34,,,,,,,,,289.85133987502195,,,,,,,,,,,,,,,,,,,,,,,,,,,,,,,,,,,,,,289.8446189170354,289.85133987502195,290.8470327500254,291.83086254203226,291.83086254203226,291.83086254203226,293.3063368750154,right,1.467814375006128,None,,,,,,,,,,,,,,,,,,,,,,,,,,,,,,,,,,,,,,,,,,,326577,001,2024-12-05_12h38.22.987,Test,2024.2.4,None,2024-12-05 12h38.32.361698 +0100,
4,150,0,50,None,35,35,0,False,left,0.9556673339684494,None,,,,,,,,0,35,35,35,,,,,,,,,293.32404958299594,,,,,,,,,,,,,,,,,,,,,,,,,,,,,,,,,,,,,,293.3168407920166,293.32404958299594,294.3199349170318,295.3055114999879,295.3055114999879,295.3055114999879,296.26656037499197,left,0.9556673339684494,None,,,,,,,,,,,,,,,,,,,,,,,,,,,,,,,,,,,,,,,,,,,326577,001,2024-12-05_12h38.22.987,Test,2024.2.4,None,2024-12-05 12h38.32.361698 +0100,
43,150,30,16,None,36,36,0,True,right,1.1457417499623261,None,,,,,,,,0,36,36,36,,,,,,,,,296.282755458029,,,,,,,,,,,,,,,,,,,,,,,,,,,,,,,,,,,,,,296.27547470800346,296.282755458029,297.28097875003004,298.2645004169899,298.2645004169899,298.2645004169899,299.41667287499877,right,1.1457417499623261,None,,,,,,,,,,,,,,,,,,,,,,,,,,,,,,,,,,,,,,,,,,,326577,001,2024-12-05_12h38.22.987,Test,2024.2.4,None,2024-12-05 12h38.32.361698 +0100,
65,150,150,54,None,37,37,0,True,right,1.0164387499680743,None,,,,,,,,0,37,37,37,,,,,,,,,299.43273320799926,,,,,,,,,,,,,,,,,,,,,,,,,,,,,,,,,,,,,,299.42632862500614,299.43273320799926,300.4310012080241,301.41462833300466,301.41462833300466,301.41462833300466,302.433557500015,right,1.0164387499680743,None,,,,,,,,,,,,,,,,,,,,,,,,,,,,,,,,,,,,,,,,,,,326577,001,2024-12-05_12h38.22.987,Test,2024.2.4,None,2024-12-05 12h38.32.361698 +0100,
39,150,0,28,None,38,38,0,True,left,1.0206026250380091,None,,,,,,,,0,38,38,38,,,,,,,,,302.4490816670004,,,,,,,,,,,,,,,,,,,,,,,,,,,,,,,,,,,,,,302.4426512499922,302.4490816670004,303.4479112920235,304.43101483304054,304.43101483304054,304.43101483304054,305.4565521670156,left,1.0206026250380091,None,,,,,,,,,,,,,,,,,,,,,,,,,,,,,,,,,,,,,,,,,,,326577,001,2024-12-05_12h38.22.987,Test,2024.2.4,None,2024-12-05 12h38.32.361698 +0100,
50,150,60,60,None,39,39,0,True,left,1.002665915992111,None,,,,,,,,0,39,39,39,,,,,,,,,305.4732166249887,,,,,,,,,,,,,,,,,,,,,,,,,,,,,,,,,,,,,,305.46659608301707,305.4732166249887,306.4697418329888,307.4557683329913,307.4557683329913,307.4557683329913,308.46644024999114,left,1.002665915992111,None,,,,,,,,,,,,,,,,,,,,,,,,,,,,,,,,,,,,,,,,,,,326577,001,2024-12-05_12h38.22.987,Test,2024.2.4,None,2024-12-05 12h38.32.361698 +0100,
52,150,90,8,None,40,40,0,True,right,0.9950217920122668,None,,,,,,,,0,40,40,40,,,,,,,,,308.4820419999887,,,,,,,,,,,,,,,,,,,,,,,,,,,,,,,,,,,,,,308.47593212500215,308.4820419999887,309.4802269170177,310.46445979201235,310.46445979201235,310.46445979201235,311.467056124995,right,0.9950217920122668,None,,,,,,,,,,,,,,,,,,,,,,,,,,,,,,,,,,,,,,,,,,,326577,001,2024-12-05_12h38.22.987,Test,2024.2.4,None,2024-12-05 12h38.32.361698 +0100,
17,150,90,45,None,41,41,0,False,left,0.9673802920151502,None,,,,,,,,0,41,41,41,,,,,,,,,311.484801292012,,,,,,,,,,,,,,,,,,,,,,,,,,,,,,,,,,,,,,311.47814020799706,311.484801292012,312.48103237501346,313.4643624580349,313.4643624580349,313.4643624580349,314.443194499996,left,0.9673802920151502,None,,,,,,,,,,,,,,,,,,,,,,,,,,,,,,,,,,,,,,,,,,,326577,001,2024-12-05_12h38.22.987,Test,2024.2.4,None,2024-12-05 12h38.32.361698 +0100,
64,150,150,35,None,42,42,0,True,right,0.9373326249769889,None,,,,,,,,0,42,42,42,,,,,,,,,314.4590364579926,,,,,,,,,,,,,,,,,,,,,,,,,,,,,,,,,,,,,,314.4540113750263,314.4590364579926,315.4529898749897,316.4363245420391,316.4363245420391,316.4363245420391,317.38281891698716,right,0.9373326249769889,None,,,,,,,,,,,,,,,,,,,,,,,,,,,,,,,,,,,,,,,,,,,326577,001,2024-12-05_12h38.22.987,Test,2024.2.4,None,2024-12-05 12h38.32.361698 +0100,
38,150,0,43,None,43,43,0,True,right,0.7938687080168165,None,,,,,,,,0,43,43,43,,,,,,,,,317.39707508299034,,,,,,,,,,,,,,,,,,,,,,,,,,,,,,,,,,,,,,317.3906532920082,317.39707508299034,318.3855387500371,319.38109841698315,319.38109841698315,319.38109841698315,320.18281941703754,right,0.7938687080168165,None,,,,,,,,,,,,,,,,,,,,,,,,,,,,,,,,,,,,,,,,,,,326577,001,2024-12-05_12h38.22.987,Test,2024.2.4,None,2024-12-05 12h38.32.361698 +0100,
63,150,150,46,None,44,44,0,True,left,1.2176675419905223,None,,,,,,,,0,44,44,44,,,,,,,,,320.1959087920259,,,,,,,,,,,,,,,,,,,,,,,,,,,,,,,,,,,,,,320.18984425003873,320.1959087920259,321.18562487501185,322.1808976249886,322.1808976249886,322.1808976249886,323.4124399999855,left,1.2176675419905223,None,,,,,,,,,,,,,,,,,,,,,,,,,,,,,,,,,,,,,,,,,,,326577,001,2024-12-05_12h38.22.987,Test,2024.2.4,None,2024-12-05 12h38.32.361698 +0100,
7,150,30,61,None,45,45,0,False,right,0.916662291972898,None,,,,,,,,0,45,45,45,,,,,,,,,323.42578350001713,,,,,,,,,,,,,,,,,,,,,,,,,,,,,,,,,,,,,,323.4207203750266,323.42578350001713,324.41984170803335,325.40520512498915,325.40520512498915,325.40520512498915,326.3330777499941,right,0.916662291972898,None,,,,,,,,,,,,,,,,,,,,,,,,,,,,,,,,,,,,,,,,,,,326577,001,2024-12-05_12h38.22.987,Test,2024.2.4,None,2024-12-05 12h38.32.361698 +0100,
34,150,180,49,None,46,46,0,False,left,1.0497555829933845,None,,,,,,,,0,46,46,46,,,,,,,,,326.3485713750124,,,,,,,,,,,,,,,,,,,,,,,,,,,,,,,,,,,,,,326.3421475000214,326.3485713750124,327.33631300000707,328.33124925004086,328.33124925004086,328.33124925004086,329.383461792022,left,1.0497555829933845,None,,,,,,,,,,,,,,,,,,,,,,,,,,,,,,,,,,,,,,,,,,,326577,001,2024-12-05_12h38.22.987,Test,2024.2.4,None,2024-12-05 12h38.32.361698 +0100,
26,150,150,3,None,47,47,0,False,left,0.9860319999861531,None,,,,,,,,0,47,47,47,,,,,,,,,329.3975067079882,,,,,,,,,,,,,,,,,,,,,,,,,,,,,,,,,,,,,,329.3912734169862,329.3975067079882,330.3865652080276,331.38120725000044,331.38120725000044,331.38120725000044,332.37312058301177,left,0.9860319999861531,None,,,,,,,,,,,,,,,,,,,,,,,,,,,,,,,,,,,,,,,,,,,326577,001,2024-12-05_12h38.22.987,Test,2024.2.4,None,2024-12-05 12h38.32.361698 +0100,
53,150,90,40,None,48,48,0,True,right,1.0771912920172326,None,,,,,,,,0,48,48,48,,,,,,,,,332.3868810000131,,,,,,,,,,,,,,,,,,,,,,,,,,,,,,,,,,,,,,332.3808714580373,332.3868810000131,333.3810317500029,334.3715072920313,334.3715072920313,334.3715072920313,335.456239000021,right,1.0771912920172326,None,,,,,,,,,,,,,,,,,,,,,,,,,,,,,,,,,,,,,,,,,,,326577,001,2024-12-05_12h38.22.987,Test,2024.2.4,None,2024-12-05 12h38.32.361698 +0100,
60,150,120,14,None,49,49,0,True,left,1.0046190420398489,None,,,,,,,,0,49,49,49,,,,,,,,,335.47326066700043,,,,,,,,,,,,,,,,,,,,,,,,,,,,,,,,,,,,,,335.46666037500836,335.47326066700043,336.46995275001973,337.45463637501234,337.45463637501234,337.45463637501234,338.4664520830265,left,1.0046190420398489,None,,,,,,,,,,,,,,,,,,,,,,,,,,,,,,,,,,,,,,,,,,,326577,001,2024-12-05_12h38.22.987,Test,2024.2.4,None,2024-12-05 12h38.32.361698 +0100,
37,150,0,67,None,50,50,0,True,right,0.8639662499772385,None,,,,,,,,0,50,50,50,,,,,,,,,338.482213374984,,,,,,,,,,,,,,,,,,,,,,,,,,,,,,,,,,,,,,338.4752040419844,338.482213374984,339.48021733300993,340.4641574579873,340.4641574579873,340.4641574579873,341.3394834169885,right,0.8639662499772385,None,,,,,,,,,,,,,,,,,,,,,,,,,,,,,,,,,,,,,,,,,,,326577,001,2024-12-05_12h38.22.987,Test,2024.2.4,None,2024-12-05 12h38.32.361698 +0100,
70,150,180,19,None,51,51,0,True,left,1.3094769169692881,None,,,,,,,,0,51,51,51,,,,,,,,,341.35705729201436,,,,,,,,,,,,,,,,,,,,,,,,,,,,,,,,,,,,,,341.34953354200115,341.35705729201436,342.3529790000175,343.33884479198605,343.33884479198605,343.33884479198605,344.65141933300765,left,1.3094769169692881,None,,,,,,,,,,,,,,,,,,,,,,,,,,,,,,,,,,,,,,,,,,,326577,001,2024-12-05_12h38.22.987,Test,2024.2.4,None,2024-12-05 12h38.32.361698 +0100,
15,150,60,39,None,52,52,0,False,right,0.977308458997868,None,,,,,,,,0,52,52,52,,,,,,,,,344.66885325004114,,,,,,,,,,,,,,,,,,,,,,,,,,,,,,,,,,,,,,344.661707375024,344.66885325004114,345.66427179198945,346.6478980000247,346.6478980000247,346.6478980000247,347.6333329170011,right,0.977308458997868,None,,,,,,,,,,,,,,,,,,,,,,,,,,,,,,,,,,,,,,,,,,,326577,001,2024-12-05_12h38.22.987,Test,2024.2.4,None,2024-12-05 12h38.32.361698 +0100,
42,150,30,23,None,53,53,0,True,right,1.0632463750080206,None,,,,,,,,0,53,53,53,,,,,,,,,347.64820229203906,,,,,,,,,,,,,,,,,,,,,,,,,,,,,,,,,,,,,,347.6414435420302,347.64820229203906,348.63575150002725,349.63116620801156,349.63116620801156,349.63116620801156,350.7000424580183,right,1.0632463750080206,None,,,,,,,,,,,,,,,,,,,,,,,,,,,,,,,,,,,,,,,,,,,326577,001,2024-12-05_12h38.22.987,Test,2024.2.4,None,2024-12-05 12h38.32.361698 +0100,
35,150,180,20,None,54,54,0,False,left,1.403810124960728,None,,,,,,,,0,54,54,54,,,,,,,,,350.717313708039,,,,,,,,,,,,,,,,,,,,,,,,,,,,,,,,,,,,,,350.7109633749933,350.717313708039,351.7143724170164,352.69789337500697,352.69789337500697,352.69789337500697,354.106326750014,left,1.403810124960728,None,,,,,,,,,,,,,,,,,,,,,,,,,,,,,,,,,,,,,,,,,,,326577,001,2024-12-05_12h38.22.987,Test,2024.2.4,None,2024-12-05 12h38.32.361698 +0100,
22,150,120,2,None,55,55,0,False,right,1.1109321670373902,None,,,,,,,,0,55,55,55,,,,,,,,,354.1230759170139,,,,,,,,,,,,,,,,,,,,,,,,,,,,,,,,,,,,,,354.1168665830046,354.1230759170139,355.1189126250101,356.10448408301454,356.10448408301454,356.10448408301454,357.22678100003395,right,1.1109321670373902,None,,,,,,,,,,,,,,,,,,,,,,,,,,,,,,,,,,,,,,,,,,,326577,001,2024-12-05_12h38.22.987,Test,2024.2.4,None,2024-12-05 12h38.32.361698 +0100,
33,150,180,1,None,56,56,0,False,left,1.2966034580022097,None,,,,,,,,0,56,56,56,,,,,,,,,357.2387389999931,,,,,,,,,,,,,,,,,,,,,,,,,,,,,,,,,,,,,,357.23408249998465,357.2387389999931,358.23573616700014,359.23150416702265,359.23150416702265,359.23150416702265,360.53316091699526,left,1.2966034580022097,None,,,,,,,,,,,,,,,,,,,,,,,,,,,,,,,,,,,,,,,,,,,326577,001,2024-12-05_12h38.22.987,Test,2024.2.4,None,2024-12-05 12h38.32.361698 +0100,
23,150,120,53,None,57,57,0,False,right,1.1283634579740465,None,,,,,,,,0,57,57,57,,,,,,,,,360.5499282919918,,,,,,,,,,,,,,,,,,,,,,,,,,,,,,,,,,,,,,360.5426835420076,360.5499282919918,361.5476600420079,362.53140687500127,362.53140687500127,362.53140687500127,363.6661124579841,right,1.1283634579740465,None,,,,,,,,,,,,,,,,,,,,,,,,,,,,,,,,,,,,,,,,,,,326577,001,2024-12-05_12h38.22.987,Test,2024.2.4,None,2024-12-05 12h38.32.361698 +0100,
57,150,120,13,None,58,58,0,True,right,1.0585441250004806,None,,,,,,,,0,58,58,58,,,,,,,,,363.677749583032,,,,,,,,,,,,,,,,,,,,,,,,,,,,,,,,,,,,,,363.6721400829847,363.677749583032,364.6695170830353,365.6645645420067,365.6645645420067,365.6645645420067,366.73325604200363,right,1.0585441250004806,None,,,,,,,,,,,,,,,,,,,,,,,,,,,,,,,,,,,,,,,,,,,326577,001,2024-12-05_12h38.22.987,Test,2024.2.4,None,2024-12-05 12h38.32.361698 +0100,
20,150,90,15,None,59,59,0,False,right,0.9006978330435231,None,,,,,,,,0,59,59,59,,,,,,,,,366.74986008298583,,,,,,,,,,,,,,,,,,,,,,,,,,,,,,,,,,,,,,366.7429103750037,366.74986008298583,367.7477002500091,368.73118637502193,368.73118637502193,368.73118637502193,369.6386822499917,right,0.9006978330435231,None,,,,,,,,,,,,,,,,,,,,,,,,,,,,,,,,,,,,,,,,,,,326577,001,2024-12-05_12h38.22.987,Test,2024.2.4,None,2024-12-05 12h38.32.361698 +0100,
68,150,180,59,None,60,60,0,True,left,0.9439215830061585,None,,,,,,,,0,60,60,60,,,,,,,,,369.67537487501977,,,,,,,,,,,,,,,,,,,,,,,,,,,,,,,,,,,,,,369.66693616699195,369.67537487501977,370.6698097080225,371.6391505000065,371.6391505000065,371.6391505000065,372.58960225002375,left,0.9439215830061585,None,,,,,,,,,,,,,,,,,,,,,,,,,,,,,,,,,,,,,,,,,,,326577,001,2024-12-05_12h38.22.987,Test,2024.2.4,None,2024-12-05 12h38.32.361698 +0100,
31,150,180,22,None,61,61,0,False,left,1.2351835829904303,None,,,,,,,,0,61,61,61,,,,,,,,,372.6048557080212,,,,,,,,,,,,,,,,,,,,,,,,,,,,,,,,,,,,,,372.5985300830216,372.6048557080212,373.6029180419864,374.5883702500141,374.5883702500141,374.5883702500141,375.833020207996,left,1.2351835829904303,None,,,,,,,,,,,,,,,,,,,,,,,,,,,,,,,,,,,,,,,,,,,326577,001,2024-12-05_12h38.22.987,Test,2024.2.4,None,2024-12-05 12h38.32.361698 +0100,
21,150,120,62,None,62,62,0,False,right,1.102805584028829,None,,,,,,,,0,62,62,62,,,,,,,,,375.8488446670235,,,,,,,,,,,,,,,,,,,,,,,,,,,,,,,,,,,,,,375.84203908301424,375.8488446670235,376.84764012502274,377.8299152920372,377.8299152920372,377.8299152920372,378.93948566704057,right,1.102805584028829,None,,,,,,,,,,,,,,,,,,,,,,,,,,,,,,,,,,,,,,,,,,,326577,001,2024-12-05_12h38.22.987,Test,2024.2.4,None,2024-12-05 12h38.32.361698 +0100,
25,150,120,30,None,63,63,0,False,right,0.9630235829972662,None,,,,,,,,0,63,63,63,,,,,,,,,378.95524083299097,,,,,,,,,,,,,,,,,,,,,,,,,,,,,,,,,,,,,,378.9492007920053,378.95524083299097,379.95231424999656,380.93837654200615,380.93837654200615,380.93837654200615,381.9056011670036,right,0.9630235829972662,None,,,,,,,,,,,,,,,,,,,,,,,,,,,,,,,,,,,,,,,,,,,326577,001,2024-12-05_12h38.22.987,Test,2024.2.4,None,2024-12-05 12h38.32.361698 +0100,
14,150,60,18,None,64,64,0,False,left,1.0122197910095565,None,,,,,,,,0,64,64,64,,,,,,,,,381.9192976669874,,,,,,,,,,,,,,,,,,,,,,,,,,,,,,,,,,,,,,381.91320666699903,381.9192976669874,382.9142119580065,383.9057467079838,383.9057467079838,383.9057467079838,384.9225328330067,left,1.0122197910095565,None,,,,,,,,,,,,,,,,,,,,,,,,,,,,,,,,,,,,,,,,,,,326577,001,2024-12-05_12h38.22.987,Test,2024.2.4,None,2024-12-05 12h38.32.361698 +0100,
49,150,60,33,None,65,65,0,True,left,0.8857189580448903,None,,,,,,,,0,65,65,65,,,,,,,,,384.93790020799497,,,,,,,,,,,,,,,,,,,,,,,,,,,,,,,,,,,,,,384.9311985829845,384.93790020799497,385.93626037501963,386.92167995800264,386.92167995800264,386.92167995800264,387.81627237499924,left,0.8857189580448903,None,,,,,,,,,,,,,,,,,,,,,,,,,,,,,,,,,,,,,,,,,,,326577,001,2024-12-05_12h38.22.987,Test,2024.2.4,None,2024-12-05 12h38.32.361698 +0100,
32,150,180,7,None,66,66,0,False,right,1.2083865830209106,None,,,,,,,,0,66,66,66,,,,,,,,,387.83066400000826,,,,,,,,,,,,,,,,,,,,,,,,,,,,,,,,,,,,,,387.82419466698775,387.83066400000826,388.8200614579837,389.8144532080041,389.8144532080041,389.8144532080041,391.0331735420041,right,1.2083865830209106,None,,,,,,,,,,,,,,,,,,,,,,,,,,,,,,,,,,,,,,,,,,,326577,001,2024-12-05_12h38.22.987,Test,2024.2.4,None,2024-12-05 12h38.32.361698 +0100,
11,150,60,64,None,67,67,0,False,right,0.9341226669494063,None,,,,,,,,0,67,67,67,,,,,,,,,391.04899487498915,,,,,,,,,,,,,,,,,,,,,,,,,,,,,,,,,,,,,,391.0418212499935,391.04899487498915,392.0479558330262,393.0311709170346,393.0311709170346,393.0311709170346,393.97719329199754,right,0.9341226669494063,None,,,,,,,,,,,,,,,,,,,,,,,,,,,,,,,,,,,,,,,,,,,326577,001,2024-12-05_12h38.22.987,Test,2024.2.4,None,2024-12-05 12h38.32.361698 +0100,
18,150,90,11,None,68,68,0,False,left,0.9502272499958053,None,,,,,,,,0,68,68,68,,,,,,,,,393.99103600002127,,,,,,,,,,,,,,,,,,,,,,,,,,,,,,,,,,,,,,393.98631833301624,393.99103600002127,394.9865893329843,395.9718392500072,395.9718392500072,395.9718392500072,396.9328773749876,left,0.9502272499958053,None,,,,,,,,,,,,,,,,,,,,,,,,,,,,,,,,,,,,,,,,,,,326577,001,2024-12-05_12h38.22.987,Test,2024.2.4,None,2024-12-05 12h38.32.361698 +0100,
48,150,60,5,None,69,69,0,True,left,1.0341451250133105,None,,,,,,,,0,69,69,69,,,,,,,,,396.94682604202535,,,,,,,,,,,,,,,,,,,,,,,,,,,,,,,,,,,,,,396.94033908302663,396.94682604202535,397.9365466670133,398.9312447080156,398.9312447080156,398.9312447080156,399.9819137920276,left,1.0341451250133105,None,,,,,,,,,,,,,,,,,,,,,,,,,,,,,,,,,,,,,,,,,,,326577,001,2024-12-05_12h38.22.987,Test,2024.2.4,None,2024-12-05 12h38.32.361698 +0100,
,,,,,,,,,,,,,,,,,,,,,,,,,,,,,,,,,,,,,,,,,,,,,,,,,,,,,,,,,,,,,,,,,,,,,,,,,,,,,,,,,,399.9825812500203,399.9913222080213,399.9913222080213,402.18273216701346,space,2.1802855000132695,None,,,,,,,,,,,,,,,,,,,,,,,,,,,,,,,,,326577,001,2024-12-05_12h38.22.987,Test,2024.2.4,None,2024-12-05 12h38.32.361698 +0100,
27,150,150,51,None,0,0,0,,,,,,,,,,,,,,,,0,0,0,26,,,,,402.21801083302125,,,,,,,,,,,,,,,,,,,,,,,,,,,,,,,,,,,,,,,,,,,,,,,,,,,,,,,,,,402.2071143750218,402.21801083302125,402.380930208019,402.380930208019,402.414448000025,404.0820252500125,404.0820252500125,404.06540804199176,,,,,,,,,,,,,,,,,,,,,,,,,326577,001,2024-12-05_12h38.22.987,Test,2024.2.4,None,2024-12-05 12h38.32.361698 +0100,
2,150,0,58,None,1,1,0,,,,,,,,,,,,,,,,0,1,1,1,,,,,404.0820252500125,,,,,,,,,,,,,,,,,,,,,,,,,,,,,,,,,,,,,,,,,,,,,,,,,,,,,,,,,,404.0768876670045,404.097567083023,404.2809880829882,404.2809880829882,404.2869108750019,405.98002625000663,405.98002625000663,405.96568575000856,,,,,,,,,,,,,,,,,,,,,,,,,326577,001,2024-12-05_12h38.22.987,Test,2024.2.4,None,2024-12-05 12h38.32.361698 +0100,
20,150,90,15,None,2,2,0,,,,,,,,,,,,,,,,0,2,2,19,,,,,405.98002625000663,,,,,,,,,,,,,,,,,,,,,,,,,,,,,,,,,,,,,,,,,,,,,,,,,,,,,,,,,,405.97519550001016,405.9848369170213,406.1811255830107,406.1811255830107,406.1811255830107,407.8730650420184,407.8730650420184,407.86452562501654,,,,,,,,,,,,,,,,,,,,,,,,,326577,001,2024-12-05_12h38.22.987,Test,2024.2.4,None,2024-12-05 12h38.32.361698 +0100,
5,150,0,12,None,3,3,0,,,,,,,,,,,,,,,,0,3,3,4,,,,,407.8730650420184,,,,,,,,,,,,,,,,,,,,,,,,,,,,,,,,,,,,,,,,,,,,,,,,,,,,,,,,,,407.8689362499863,407.8807677500299,408.0810386670055,408.0810386670055,408.0691555829835,409.7805314169964,409.7805314169964,409.7653072079993,,,,,,,,,,,,,,,,,,,,,,,,,326577,001,2024-12-05_12h38.22.987,Test,2024.2.4,None,2024-12-05 12h38.32.361698 +0100,
22,150,120,2,None,4,4,0,,,,,,,,,,,,,,,,0,4,4,21,,,,,409.7805314169964,,,,,,,,,,,,,,,,,,,,,,,,,,,,,,,,,,,,,,,,,,,,,,,,,,,,,,,,,,409.7757640830241,409.7846512499964,409.98110958299367,409.98110958299367,409.98110958299367,411.6810573330149,411.6810573330149,411.66547375003574,,,,,,,,,,,,,,,,,,,,,,,,,326577,001,2024-12-05_12h38.22.987,Test,2024.2.4,None,2024-12-05 12h38.32.361698 +0100,
23,150,120,53,None,5,5,0,,,,,,,,,,,,,,,,0,5,5,22,,,,,411.6810573330149,,,,,,,,,,,,,,,,,,,,,,,,,,,,,,,,,,,,,,,,,,,,,,,,,,,,,,,,,,411.6760801250348,411.6852073750342,411.88098087499384,411.88098087499384,411.88098087499384,413.57909316703444,413.57909316703444,413.5651945830323,,,,,,,,,,,,,,,,,,,,,,,,,326577,001,2024-12-05_12h38.22.987,Test,2024.2.4,None,2024-12-05 12h38.32.361698 +0100,
30,150,150,36,None,6,6,0,,,,,,,,,,,,,,,,0,6,6,29,,,,,413.57909316703444,,,,,,,,,,,,,,,,,,,,,,,,,,,,,,,,,,,,,,,,,,,,,,,,,,,,,,,,,,413.57425300002797,413.58320237504086,413.78047262498876,413.78047262498876,413.78047262498876,415.4772638750146,415.4772638750146,415.4654332920327,,,,,,,,,,,,,,,,,,,,,,,,,326577,001,2024-12-05_12h38.22.987,Test,2024.2.4,None,2024-12-05 12h38.32.361698 +0100,
6,150,30,56,None,7,7,0,,,,,,,,,,,,,,,,0,7,7,5,,,,,415.4772638750146,,,,,,,,,,,,,,,,,,,,,,,,,,,,,,,,,,,,,,,,,,,,,,,,,,,,,,,,,,415.47262833302375,415.4813918329892,415.6797251669923,415.6797251669923,415.6797251669923,417.38039295800263,417.38039295800263,417.36535879201256,,,,,,,,,,,,,,,,,,,,,,,,,326577,001,2024-12-05_12h38.22.987,Test,2024.2.4,None,2024-12-05 12h38.32.361698 +0100,
8,150,30,9,None,8,8,0,,,,,,,,,,,,,,,,0,8,8,7,,,,,417.38039295800263,,,,,,,,,,,,,,,,,,,,,,,,,,,,,,,,,,,,,,,,,,,,,,,,,,,,,,,,,,417.37548937503016,417.38472920801723,417.58127249998506,417.58127249998506,417.58127249998506,419.27928712498397,419.27928712498397,419.2654584579868,,,,,,,,,,,,,,,,,,,,,,,,,326577,001,2024-12-05_12h38.22.987,Test,2024.2.4,None,2024-12-05 12h38.32.361698 +0100,
35,150,180,20,None,9,9,0,,,,,,,,,,,,,,,,0,9,9,34,,,,,419.27928712498397,,,,,,,,,,,,,,,,,,,,,,,,,,,,,,,,,,,,,,,,,,,,,,,,,,,,,,,,,,419.27430529199773,419.28380416700384,419.4814807079965,419.4814807079965,419.4814807079965,421.1802909169928,421.1802909169928,421.16559812502237,,,,,,,,,,,,,,,,,,,,,,,,,326577,001,2024-12-05_12h38.22.987,Test,2024.2.4,None,2024-12-05 12h38.32.361698 +0100,
33,150,180,1,None,10,10,0,,,,,,,,,,,,,,,,0,10,10,32,,,,,421.1802909169928,,,,,,,,,,,,,,,,,,,,,,,,,,,,,,,,,,,,,,,,,,,,,,,,,,,,,,,,,,421.17520579200936,421.18436562502757,421.38107062503695,421.38107062503695,421.38107062503695,423.08068091701716,423.08068091701716,423.0653942920035,,,,,,,,,,,,,,,,,,,,,,,,,326577,001,2024-12-05_12h38.22.987,Test,2024.2.4,None,2024-12-05 12h38.32.361698 +0100,
17,150,90,45,None,11,11,0,,,,,,,,,,,,,,,,0,11,11,16,,,,,423.08068091701716,,,,,,,,,,,,,,,,,,,,,,,,,,,,,,,,,,,,,,,,,,,,,,,,,,,,,,,,,,423.07560941699194,423.085848333023,423.28108587500174,423.28108587500174,423.28108587500174,424.9796122920234,424.9796122920234,424.96508158301003,,,,,,,,,,,,,,,,,,,,,,,,,326577,001,2024-12-05_12h38.22.987,Test,2024.2.4,None,2024-12-05 12h38.32.361698 +0100,
12,150,60,25,None,12,12,0,,,,,,,,,,,,,,,,0,12,12,11,,,,,424.9796122920234,,,,,,,,,,,,,,,,,,,,,,,,,,,,,,,,,,,,,,,,,,,,,,,,,,,,,,,,,,424.97451129200635,424.9836603330332,425.18114470801083,425.18114470801083,425.18114470801083,426.87942775001284,426.87942775001284,426.86548237502575,,,,,,,,,,,,,,,,,,,,,,,,,326577,001,2024-12-05_12h38.22.987,Test,2024.2.4,None,2024-12-05 12h38.32.361698 +0100,
28,150,150,63,None,13,13,0,,,,,,,,,,,,,,,,0,13,13,27,,,,,426.87942775001284,,,,,,,,,,,,,,,,,,,,,,,,,,,,,,,,,,,,,,,,,,,,,,,,,,,,,,,,,,426.87433195800986,426.88348083302844,427.08131408301415,427.08131408301415,427.08131408301415,428.7795708330232,428.7795708330232,428.76531741704093,,,,,,,,,,,,,,,,,,,,,,,,,326577,001,2024-12-05_12h38.22.987,Test,2024.2.4,None,2024-12-05 12h38.32.361698 +0100,
29,150,150,44,None,14,14,0,,,,,,,,,,,,,,,,0,14,14,28,,,,,428.7795708330232,,,,,,,,,,,,,,,,,,,,,,,,,,,,,,,,,,,,,,,,,,,,,,,,,,,,,,,,,,428.7746234170045,428.78331616701325,428.98141691699857,428.98141691699857,428.98141691699857,430.67891758301994,430.67891758301994,430.66546699998435,,,,,,,,,,,,,,,,,,,,,,,,,326577,001,2024-12-05_12h38.22.987,Test,2024.2.4,None,2024-12-05 12h38.32.361698 +0100,
9,150,30,29,None,15,15,0,,,,,,,,,,,,,,,,0,15,15,8,,,,,430.67891758301994,,,,,,,,,,,,,,,,,,,,,,,,,,,,,,,,,,,,,,,,,,,,,,,,,,,,,,,,,,430.67443233303493,430.6826875419938,430.8810547920293,430.8810547920293,430.8810547920293,432.57763391704066,432.57763391704066,432.5650760830031,,,,,,,,,,,,,,,,,,,,,,,,,326577,001,2024-12-05_12h38.22.987,Test,2024.2.4,None,2024-12-05 12h38.32.361698 +0100,
25,150,120,30,None,16,16,0,,,,,,,,,,,,,,,,0,16,16,24,,,,,432.57763391704066,,,,,,,,,,,,,,,,,,,,,,,,,,,,,,,,,,,,,,,,,,,,,,,,,,,,,,,,,,432.5733040419873,432.5815992919961,432.78108420799254,432.78108420799254,432.7693469580263,434.4798300419934,434.4798300419934,434.4656536250259,,,,,,,,,,,,,,,,,,,,,,,,,326577,001,2024-12-05_12h38.22.987,Test,2024.2.4,None,2024-12-05 12h38.32.361698 +0100,
15,150,60,39,None,17,17,0,,,,,,,,,,,,,,,,0,17,17,14,,,,,434.4798300419934,,,,,,,,,,,,,,,,,,,,,,,,,,,,,,,,,,,,,,,,,,,,,,,,,,,,,,,,,,434.4758494999842,434.4836672919919,434.6809238329879,434.6809238329879,434.6809238329879,436.37952887499705,436.37952887499705,436.3653168749879,,,,,,,,,,,,,,,,,,,,,,,,,326577,001,2024-12-05_12h38.22.987,Test,2024.2.4,None,2024-12-05 12h38.32.361698 +0100,
4,150,0,50,None,18,18,0,,,,,,,,,,,,,,,,0,18,18,3,,,,,436.37952887499705,,,,,,,,,,,,,,,,,,,,,,,,,,,,,,,,,,,,,,,,,,,,,,,,,,,,,,,,,,436.3745794169954,436.38364912499674,436.5809516669833,436.5809516669833,436.5809516669833,438.28128712502075,438.28128712502075,438.2654765000334,,,,,,,,,,,,,,,,,,,,,,,,,326577,001,2024-12-05_12h38.22.987,Test,2024.2.4,None,2024-12-05 12h38.32.361698 +0100,
26,150,150,3,None,19,19,0,,,,,,,,,,,,,,,,0,19,19,25,,,,,438.28128712502075,,,,,,,,,,,,,,,,,,,,,,,,,,,,,,,,,,,,,,,,,,,,,,,,,,,,,,,,,,438.27673687500646,438.297755083011,438.48110883298796,438.48110883298796,438.4872829579981,440.1849022079841,440.1849022079841,440.1653488749871,,,,,,,,,,,,,,,,,,,,,,,,,326577,001,2024-12-05_12h38.22.987,Test,2024.2.4,None,2024-12-05 12h38.32.361698 +0100,
18,150,90,11,None,20,20,0,,,,,,,,,,,,,,,,0,20,20,17,,,,,440.1849022079841,,,,,,,,,,,,,,,,,,,,,,,,,,,,,,,,,,,,,,,,,,,,,,,,,,,,,,,,,,440.18037037499016,440.1976155830198,440.3801355829928,440.3801355829928,440.3859392500017,442.08066004200373,442.08066004200373,442.06561479199445,,,,,,,,,,,,,,,,,,,,,,,,,326577,001,2024-12-05_12h38.22.987,Test,2024.2.4,None,2024-12-05 12h38.32.361698 +0100,
11,150,60,64,None,21,21,0,,,,,,,,,,,,,,,,0,21,21,10,,,,,442.08066004200373,,,,,,,,,,,,,,,,,,,,,,,,,,,,,,,,,,,,,,,,,,,,,,,,,,,,,,,,,,442.0753807920264,442.0849942500354,442.28100270801224,442.28100270801224,442.28100270801224,443.9709324170253,443.9709324170253,443.9636679579853,,,,,,,,,,,,,,,,,,,,,,,,,326577,001,2024-12-05_12h38.22.987,Test,2024.2.4,None,2024-12-05 12h38.32.361698 +0100,
13,150,60,41,None,22,22,0,,,,,,,,,,,,,,,,0,22,22,12,,,,,443.9709324170253,,,,,,,,,,,,,,,,,,,,,,,,,,,,,,,,,,,,,,,,,,,,,,,,,,,,,,,,,,443.9679599580122,443.97981300001265,444.1804359580274,444.1804359580274,444.167701917002,445.87469729199074,445.87469729199074,445.8648040420376,,,,,,,,,,,,,,,,,,,,,,,,,326577,001,2024-12-05_12h38.22.987,Test,2024.2.4,None,2024-12-05 12h38.32.361698 +0100,
10,150,30,34,None,23,23,0,,,,,,,,,,,,,,,,0,23,23,9,,,,,445.87469729199074,,,,,,,,,,,,,,,,,,,,,,,,,,,,,,,,,,,,,,,,,,,,,,,,,,,,,,,,,,445.8711871249834,445.87941858300474,446.0809698330122,446.0809698330122,446.0692619580077,447.78386512503494,447.78386512503494,447.76515358302277,,,,,,,,,,,,,,,,,,,,,,,,,326577,001,2024-12-05_12h38.22.987,Test,2024.2.4,None,2024-12-05 12h38.32.361698 +0100,
24,150,120,42,None,24,24,0,,,,,,,,,,,,,,,,0,24,24,23,,,,,447.78386512503494,,,,,,,,,,,,,,,,,,,,,,,,,,,,,,,,,,,,,,,,,,,,,,,,,,,,,,,,,,447.77980533300433,447.79759537498467,447.98061420803424,447.98061420803424,447.9860357079888,449.68145575001836,449.68145575001836,449.6656221669982,,,,,,,,,,,,,,,,,,,,,,,,,326577,001,2024-12-05_12h38.22.987,Test,2024.2.4,None,2024-12-05 12h38.32.361698 +0100,
3,150,0,26,None,25,25,0,,,,,,,,,,,,,,,,0,25,25,2,,,,,449.68145575001836,,,,,,,,,,,,,,,,,,,,,,,,,,,,,,,,,,,,,,,,,,,,,,,,,,,,,,,,,,449.67702829203336,449.6976677500061,449.8798312500003,449.8798312500003,449.89773741702083,451.58038562501315,451.58038562501315,451.56520754203666,,,,,,,,,,,,,,,,,,,,,,,,,326577,001,2024-12-05_12h38.22.987,Test,2024.2.4,None,2024-12-05 12h38.32.361698 +0100,
19,150,90,31,None,26,26,0,,,,,,,,,,,,,,,,0,26,26,18,,,,,451.58038562501315,,,,,,,,,,,,,,,,,,,,,,,,,,,,,,,,,,,,,,,,,,,,,,,,,,,,,,,,,,451.5754842919996,451.58438354200916,451.78109733300516,451.78109733300516,451.78109733300516,453.482499042002,453.482499042002,453.46461245801765,,,,,,,,,,,,,,,,,,,,,,,,,326577,001,2024-12-05_12h38.22.987,Test,2024.2.4,None,2024-12-05 12h38.32.361698 +0100,
34,150,180,49,None,27,27,0,,,,,,,,,,,,,,,,0,27,27,33,,,,,453.482499042002,,,,,,,,,,,,,,,,,,,,,,,,,,,,,,,,,,,,,,,,,,,,,,,,,,,,,,,,,,453.47823179198895,453.49737637501676,453.6812196249957,453.6812196249957,453.69766045804136,455.38171466701897,455.38171466701897,455.36533900001086,,,,,,,,,,,,,,,,,,,,,,,,,326577,001,2024-12-05_12h38.22.987,Test,2024.2.4,None,2024-12-05 12h38.32.361698 +0100,
32,150,180,7,None,28,28,0,,,,,,,,,,,,,,,,0,28,28,31,,,,,455.38171466701897,,,,,,,,,,,,,,,,,,,,,,,,,,,,,,,,,,,,,,,,,,,,,,,,,,,,,,,,,,455.3775426670327,455.39767725003185,455.5800703749992,455.5800703749992,455.5860007919837,457.2823760000174,457.2823760000174,457.26561333303107,,,,,,,,,,,,,,,,,,,,,,,,,326577,001,2024-12-05_12h38.22.987,Test,2024.2.4,None,2024-12-05 12h38.32.361698 +0100,
7,150,30,61,None,29,29,0,,,,,,,,,,,,,,,,0,29,29,6,,,,,457.2823760000174,,,,,,,,,,,,,,,,,,,,,,,,,,,,,,,,,,,,,,,,,,,,,,,,,,,,,,,,,,457.27736754203215,457.29771195800276,457.4859440420405,457.4859440420405,457.49786462500924,459.1835514580016,459.1835514580016,459.17007041699253,,,,,,,,,,,,,,,,,,,,,,,,,326577,001,2024-12-05_12h38.22.987,Test,2024.2.4,None,2024-12-05 12h38.32.361698 +0100,
1,150,0,27,None,30,30,0,,,,,,,,,,,,,,,,0,30,30,0,,,,,459.1835514580016,,,,,,,,,,,,,,,,,,,,,,,,,,,,,,,,,,,,,,,,,,,,,,,,,,,,,,,,,,459.1794869170408,459.1835514580016,459.380023833015,459.380023833015,459.380023833015,461.0787007919862,461.0787007919862,461.06548087502597,,,,,,,,,,,,,,,,,,,,,,,,,326577,001,2024-12-05_12h38.22.987,Test,2024.2.4,None,2024-12-05 12h38.32.361698 +0100,
16,150,90,37,None,31,31,0,,,,,,,,,,,,,,,,0,31,31,15,,,,,461.0787007919862,,,,,,,,,,,,,,,,,,,,,,,,,,,,,,,,,,,,,,,,,,,,,,,,,,,,,,,,,,461.0739165000268,461.0828795420239,461.2810168750002,461.2810168750002,461.2810168750002,462.9799125830177,462.9799125830177,462.9652570000035,,,,,,,,,,,,,,,,,,,,,,,,,326577,001,2024-12-05_12h38.22.987,Test,2024.2.4,None,2024-12-05 12h38.32.361698 +0100,
31,150,180,22,None,32,32,0,,,,,,,,,,,,,,,,0,32,32,30,,,,,462.9799125830177,,,,,,,,,,,,,,,,,,,,,,,,,,,,,,,,,,,,,,,,,,,,,,,,,,,,,,,,,,462.974805750011,462.98521962499944,463.18104554200545,463.18104554200545,463.18104554200545,464.8887102500303,464.8887102500303,464.86518266703933,,,,,,,,,,,,,,,,,,,,,,,,,326577,001,2024-12-05_12h38.22.987,Test,2024.2.4,None,2024-12-05 12h38.32.361698 +0100,
21,150,120,62,None,33,33,0,,,,,,,,,,,,,,,,0,33,33,20,,,,,464.8887102500303,,,,,,,,,,,,,,,,,,,,,,,,,,,,,,,,,,,,,,,,,,,,,,,,,,,,,,,,,,464.8837704579928,464.8887102500303,465.0800821669982,465.0800821669982,465.0862055000034,466.7791077920119,466.7791077920119,466.76538837503176,,,,,,,,,,,,,,,,,,,,,,,,,326577,001,2024-12-05_12h38.22.987,Test,2024.2.4,None,2024-12-05 12h38.32.361698 +0100,
14,150,60,18,None,34,34,0,,,,,,,,,,,,,,,,0,34,34,13,,,,,466.7791077920119,,,,,,,,,,,,,,,,,,,,,,,,,,,,,,,,,,,,,,,,,,,,,,,,,,,,,,,,,,466.7740963330143,466.7828594170278,467.0442800830351,467.0442800830351,467.0442800830351,,,468.68704087502556,,,,,,,,,,,,,,,,,,,,,,,,,326577,001,2024-12-05_12h38.22.987,Test,2024.2.4,None,2024-12-05 12h38.32.361698 +0100,
,,,,,,,,,,,,,,,,,,,,,,,,,,,,,,,,,,,,,,,,,,,,,,,,,,,,,,,,,,,,,,,,,,,,,,,,,,,,,,,,,,,,,,,,,,,,,,,,,468.6873148329905,468.6962747920188,468.6962747920188,476.3071392920101,space,7.6029973340337165,None,,,,,,,,,,,,,,,,,,326577,001,2024-12-05_12h38.22.987,Test,2024.2.4,None,2024-12-05 12h38.32.361698 +0100,
36,150,0,55,None,0,0,0,True,,,,left,0.8606249159784056,None,,,,,,,,,,,,,0,0,0,0,476.33477850002237,,,,,,,,,,,,,,,,,,,,,,,,,,,,,,,,,,,,,,,,,,,,,,,,,,,,,,,,,,,,,,,,,,,,,,,,,476.32588562503224,476.33477850002237,477.3311900830013,478.3050734580029,478.3050734580029,478.3050734580029,479.17004291701596,left,0.8606249159784056,None,,,,,,,,326577,001,2024-12-05_12h38.22.987,Test,2024.2.4,None,2024-12-05 12h38.32.361698 +0100,
16,150,90,37,None,1,1,0,False,,,,right,0.9309186250320636,None,,,,,,,,,,,,,0,1,1,1,479.1810070000356,,,,,,,,,,,,,,,,,,,,,,,,,,,,,,,,,,,,,,,,,,,,,,,,,,,,,,,,,,,,,,,,,,,,,,,,,479.1764878749964,479.1810070000356,480.16970529203536,481.1642497080029,481.1642497080029,481.1642497080029,482.10045883303974,right,0.9309186250320636,None,,,,,,,,326577,001,2024-12-05_12h38.22.987,Test,2024.2.4,None,2024-12-05 12h38.32.361698 +0100,
54,150,90,17,None,2,2,0,True,,,,right,0.7937915829825215,None,,,,,,,,,,,,,0,2,2,2,482.12118791701505,,,,,,,,,,,,,,,,,,,,,,,,,,,,,,,,,,,,,,,,,,,,,,,,,,,,,,,,,,,,,,,,,,,,,,,,,482.10970987501787,482.12118791701505,483.1197231670376,484.09650587500073,484.09650587500073,484.09650587500073,484.9000478750095,right,0.7937915829825215,None,,,,,,,,326577,001,2024-12-05_12h38.22.987,Test,2024.2.4,None,2024-12-05 12h38.32.361698 +0100,
59,150,120,69,None,3,3,0,True,,,,left,0.6182378749945201,None,,,,,,,,,,,,,0,3,3,3,484.91582375002326,,,,,,,,,,,,,,,,,,,,,,,,,,,,,,,,,,,,,,,,,,,,,,,,,,,,,,,,,,,,,,,,,,,,,,,,,484.9085496250191,484.91582375002326,485.9146276669926,486.89753095799824,486.89753095799824,486.89753095799824,487.52341266704025,left,0.6182378749945201,None,,,,,,,,326577,001,2024-12-05_12h38.22.987,Test,2024.2.4,None,2024-12-05 12h38.32.361698 +0100,
45,150,30,4,None,4,4,0,True,,,,left,0.7845481659751385,None,,,,,,,,,,,,,0,4,4,4,487.54292579198955,,,,,,,,,,,,,,,,,,,,,,,,,,,,,,,,,,,,,,,,,,,,,,,,,,,,,,,,,,,,,,,,,,,,,,,,,487.5344772079843,487.54292579198955,488.5365579170175,489.5205549999955,489.5205549999955,489.5205549999955,490.3165815829998,left,0.7845481659751385,None,,,,,,,,326577,001,2024-12-05_12h38.22.987,Test,2024.2.4,None,2024-12-05 12h38.32.361698 +0100,
66,150,180,21,None,5,5,0,True,,,,right,0.7835760830203071,None,,,,,,,,,,,,,0,5,5,5,490.33426304202294,,,,,,,,,,,,,,,,,,,,,,,,,,,,,,,,,,,,,,,,,,,,,,,,,,,,,,,,,,,,,,,,,,,,,,,,,490.3266755830264,490.33426304202294,491.33104854199337,492.3146845829906,492.3146845829906,492.3146845829906,493.10044237499824,right,0.7835760830203071,None,,,,,,,,326577,001,2024-12-05_12h38.22.987,Test,2024.2.4,None,2024-12-05 12h38.32.361698 +0100,
2,150,0,58,None,6,6,0,False,,,,left,1.2396724169957452,None,,,,,,,,,,,,,0,6,6,6,493.11603795801057,,,,,,,,,,,,,,,,,,,,,,,,,,,,,,,,,,,,,,,,,,,,,,,,,,,,,,,,,,,,,,,,,,,,,,,,,493.10887450003065,493.11603795801057,494.11452054203255,495.09783487499226,495.09783487499226,495.09783487499226,496.34253504202934,left,1.2396724169957452,None,,,,,,,,326577,001,2024-12-05_12h38.22.987,Test,2024.2.4,None,2024-12-05 12h38.32.361698 +0100,
28,150,150,63,None,7,7,0,False,,,,left,0.6996850410359912,None,,,,,,,,,,,,,0,7,7,7,496.35803433303954,,,,,,,,,,,,,,,,,,,,,,,,,,,,,,,,,,,,,,,,,,,,,,,,,,,,,,,,,,,,,,,,,,,,,,,,,496.3516942500137,496.35803433303954,497.3532174580032,498.3385719170328,498.3385719170328,498.3385719170328,499.0517652920098,left,0.6996850410359912,None,,,,,,,,326577,001,2024-12-05_12h38.22.987,Test,2024.2.4,None,2024-12-05 12h38.32.361698 +0100,
9,150,30,29,None,8,8,0,False,,,,left,1.3683208329603076,None,,,,,,,,,,,,,0,8,8,8,499.0658133330289,,,,,,,,,,,,,,,,,,,,,,,,,,,,,,,,,,,,,,,,,,,,,,,,,,,,,,,,,,,,,,,,,,,,,,,,,499.0601810000371,499.0658133330289,500.0643045420293,501.04796825000085,501.04796825000085,501.04796825000085,502.42283491702983,left,1.3683208329603076,None,,,,,,,,326577,001,2024-12-05_12h38.22.987,Test,2024.2.4,None,2024-12-05 12h38.32.361698 +0100,
12,150,60,25,None,9,9,0,False,,,,right,0.6621044590137899,None,,,,,,,,,,,,,0,9,9,9,502.4385285830358,,,,,,,,,,,,,,,,,,,,,,,,,,,,,,,,,,,,,,,,,,,,,,,,,,,,,,,,,,,,,,,,,,,,,,,,,502.4322595830308,502.4385285830358,503.4363086670055,504.42167387501104,504.42167387501104,504.42167387501104,505.090081250004,right,0.6621044590137899,None,,,,,,,,326577,001,2024-12-05_12h38.22.987,Test,2024.2.4,None,2024-12-05 12h38.32.361698 +0100,
30,150,150,36,None,10,10,0,False,,,,right,2.037868332990911,None,,,,,,,,,,,,,0,10,10,10,505.1050762500381,,,,,,,,,,,,,,,,,,,,,,,,,,,,,,,,,,,,,,,,,,,,,,,,,,,,,,,,,,,,,,,,,,,,,,,,,505.0989379170351,505.1050762500381,506.10269516700646,507.08812820800813,507.08812820800813,507.08812820800813,509.1334767920198,right,2.037868332990911,None,,,,,,,,326577,001,2024-12-05_12h38.22.987,Test,2024.2.4,None,2024-12-05 12h38.32.361698 +0100,
19,150,90,31,None,11,11,0,False,,,,right,1.1151785419788212,None,,,,,,,,,,,,,0,11,11,11,509.1496662920108,,,,,,,,,,,,,,,,,,,,,,,,,,,,,,,,,,,,,,,,,,,,,,,,,,,,,,,,,,,,,,,,,,,,,,,,,509.1431771669886,509.1496662920108,510.14778612501686,511.13512316701235,511.13512316701235,511.13512316701235,512.2557634999976,right,1.1151785419788212,None,,,,,,,,326577,001,2024-12-05_12h38.22.987,Test,2024.2.4,None,2024-12-05 12h38.32.361698 +0100,
58,150,120,70,None,12,12,0,True,,,,left,0.7171082909917459,None,,,,,,,,,,,,,0,12,12,12,512.2724485830404,,,,,,,,,,,,,,,,,,,,,,,,,,,,,,,,,,,,,,,,,,,,,,,,,,,,,,,,,,,,,,,,,,,,,,,,,512.2656715420308,512.2724485830404,513.2698222080362,514.2552840830176,514.2552840830176,514.2552840830176,514.9831649999833,left,0.7171082909917459,None,,,,,,,,326577,001,2024-12-05_12h38.22.987,Test,2024.2.4,None,2024-12-05 12h38.32.361698 +0100,
6,150,30,56,None,13,13,0,False,,,,right,1.2068429170176387,None,,,,,,,,,,,,,0,13,13,13,514.9986946670106,,,,,,,,,,,,,,,,,,,,,,,,,,,,,,,,,,,,,,,,,,,,,,,,,,,,,,,,,,,,,,,,,,,,,,,,,514.992155999993,514.9986946670106,515.9976049580146,516.9812350000138,516.9812350000138,516.9812350000138,518.2154875830165,right,1.2068429170176387,None,,,,,,,,326577,001,2024-12-05_12h38.22.987,Test,2024.2.4,None,2024-12-05 12h38.32.361698 +0100,
3,150,0,26,None,14,14,0,False,,,,right,1.9054086249670945,None,,,,,,,,,,,,,0,14,14,14,518.2293812499847,,,,,,,,,,,,,,,,,,,,,,,,,,,,,,,,,,,,,,,,,,,,,,,,,,,,,,,,,,,,,,,,,,,,,,,,,518.2237937080208,518.2293812499847,519.217783125001,520.2129615829908,520.2129615829908,520.2129615829908,522.131182208017,right,1.9054086249670945,None,,,,,,,,326577,001,2024-12-05_12h38.22.987,Test,2024.2.4,None,2024-12-05 12h38.32.361698 +0100,
67,150,180,66,None,15,15,0,True,,,,left,0.7115297499694861,None,,,,,,,,,,,,,0,15,15,15,522.1392547499854,,,,,,,,,,,,,,,,,,,,,,,,,,,,,,,,,,,,,,,,,,,,,,,,,,,,,,,,,,,,,,,,,,,,,,,,,522.1355347080389,522.1392547499854,523.1357938330038,524.1215439580265,524.1215439580265,524.1215439580265,524.8391621669871,left,0.7115297499694861,None,,,,,,,,326577,001,2024-12-05_12h38.22.987,Test,2024.2.4,None,2024-12-05 12h38.32.361698 +0100,
55,150,90,6,None,16,16,0,True,,,,right,1.2502636249992065,None,,,,,,,,,,,,,0,16,16,16,524.8538980830344,,,,,,,,,,,,,,,,,,,,,,,,,,,,,,,,,,,,,,,,,,,,,,,,,,,,,,,,,,,,,,,,,,,,,,,,,524.84707454202,524.8538980830344,525.8522799999919,526.8383316670079,526.8383316670079,526.8383316670079,528.0985652499949,right,1.2502636249992065,None,,,,,,,,326577,001,2024-12-05_12h38.22.987,Test,2024.2.4,None,2024-12-05 12h38.32.361698 +0100,
24,150,120,42,None,17,17,0,False,,,,right,1.3366342500085011,None,,,,,,,,,,,,,0,17,17,17,528.1132456249907,,,,,,,,,,,,,,,,,,,,,,,,,,,,,,,,,,,,,,,,,,,,,,,,,,,,,,,,,,,,,,,,,,,,,,,,,528.1084249580163,528.1132456249907,529.1031345829833,530.0977595830336,530.0977595830336,530.0977595830336,531.4395153750083,right,1.3366342500085011,None,,,,,,,,326577,001,2024-12-05_12h38.22.987,Test,2024.2.4,None,2024-12-05 12h38.32.361698 +0100,
56,150,120,10,None,18,18,0,True,,,,right,1.2032994159962982,None,,,,,,,,,,,,,0,18,18,18,531.4555362919928,,,,,,,,,,,,,,,,,,,,,,,,,,,,,,,,,,,,,,,,,,,,,,,,,,,,,,,,,,,,,,,,,,,,,,,,,531.4492456250009,531.4555362919928,532.452984625008,533.4386038749944,533.4386038749944,533.4386038749944,534.6504325420246,right,1.2032994159962982,None,,,,,,,,326577,001,2024-12-05_12h38.22.987,Test,2024.2.4,None,2024-12-05 12h38.32.361698 +0100,
51,150,90,52,None,19,19,0,True,,,,left,0.9285940830013715,None,,,,,,,,,,,,,0,19,19,19,534.6651772499899,,,,,,,,,,,,,,,,,,,,,,,,,,,,,,,,,,,,,,,,,,,,,,,,,,,,,,,,,,,,,,,,,,,,,,,,,534.6589178750291,534.6651772499899,535.6529848329956,536.6481171250343,536.6481171250343,536.6481171250343,537.5832285000361,left,0.9285940830013715,None,,,,,,,,326577,001,2024-12-05_12h38.22.987,Test,2024.2.4,None,2024-12-05 12h38.32.361698 +0100,
10,150,30,34,None,20,20,0,False,,,,left,0.7956034999806434,None,,,,,,,,,,,,,0,20,20,20,537.5981503330404,,,,,,,,,,,,,,,,,,,,,,,,,,,,,,,,,,,,,,,,,,,,,,,,,,,,,,,,,,,,,,,,,,,,,,,,,537.5915904580033,537.5981503330404,538.5857908750186,539.5811554170214,539.5811554170214,539.5811554170214,540.3831779999891,left,0.7956034999806434,None,,,,,,,,326577,001,2024-12-05_12h38.22.987,Test,2024.2.4,None,2024-12-05 12h38.32.361698 +0100,
8,150,30,9,None,21,21,0,False,,,,right,0.9394404170452617,None,,,,,,,,,,,,,0,21,21,21,540.4000690000248,,,,,,,,,,,,,,,,,,,,,,,,,,,,,,,,,,,,,,,,,,,,,,,,,,,,,,,,,,,,,,,,,,,,,,,,,540.3942764170351,540.4000690000248,541.3978012920124,542.3813965420122,542.3813965420122,542.3813965420122,543.3232582500204,right,0.9394404170452617,None,,,,,,,,326577,001,2024-12-05_12h38.22.987,Test,2024.2.4,None,2024-12-05 12h38.32.361698 +0100,
1,150,0,27,None,22,22,0,False,,,,right,1.4665153750102036,None,,,,,,,,,,,,,0,22,22,22,543.3404911670368,,,,,,,,,,,,,,,,,,,,,,,,,,,,,,,,,,,,,,,,,,,,,,,,,,,,,,,,,,,,,,,,,,,,,,,,,543.3337367500062,543.3404911670368,544.3359325830243,545.321696958039,545.321696958039,545.321696958039,546.7989020000095,right,1.4665153750102036,None,,,,,,,,326577,001,2024-12-05_12h38.22.987,Test,2024.2.4,None,2024-12-05 12h38.32.361698 +0100,
5,150,0,12,None,23,23,0,False,,,,left,0.9760821670060977,None,,,,,,,,,,,,,0,23,23,23,546.8105194999953,,,,,,,,,,,,,,,,,,,,,,,,,,,,,,,,,,,,,,,,,,,,,,,,,,,,,,,,,,,,,,,,,,,,,,,,,546.8060047919862,546.8105194999953,547.8023154170369,548.797786250012,548.797786250012,548.797786250012,549.7836482499843,left,0.9760821670060977,None,,,,,,,,326577,001,2024-12-05_12h38.22.987,Test,2024.2.4,None,2024-12-05 12h38.32.361698 +0100,
61,150,150,57,None,24,24,0,True,,,,right,1.4866410420509055,None,,,,,,,,,,,,,0,24,24,24,549.7992877500365,,,,,,,,,,,,,,,,,,,,,,,,,,,,,,,,,,,,,,,,,,,,,,,,,,,,,,,,,,,,,,,,,,,,,,,,,549.7925798330107,549.7992877500365,550.7977326250402,551.7815032080398,551.7815032080398,551.7815032080398,553.27321033302,right,1.4866410420509055,None,,,,,,,,326577,001,2024-12-05_12h38.22.987,Test,2024.2.4,None,2024-12-05 12h38.32.361698 +0100,
46,150,60,38,None,25,25,0,True,,,,left,1.8824022090411745,None,,,,,,,,,,,,,0,25,25,25,553.2891025000135,,,,,,,,,,,,,,,,,,,,,,,,,,,,,,,,,,,,,,,,,,,,,,,,,,,,,,,,,,,,,,,,,,,,,,,,,553.2821255419985,553.2891025000135,554.2864945000038,555.271343750006,555.271343750006,555.271343750006,557.1565079580178,left,1.8824022090411745,None,,,,,,,,326577,001,2024-12-05_12h38.22.987,Test,2024.2.4,None,2024-12-05 12h38.32.361698 +0100,
29,150,150,44,None,26,26,0,False,,,,left,1.4278432090068236,None,,,,,,,,,,,,,0,26,26,26,557.1708463330287,,,,,,,,,,,,,,,,,,,,,,,,,,,,,,,,,,,,,,,,,,,,,,,,,,,,,,,,,,,,,,,,,,,,,,,,,557.1649676249945,557.1708463330287,558.1691185830277,559.1549111669883,559.1549111669883,559.1549111669883,560.590045000019,left,1.4278432090068236,None,,,,,,,,326577,001,2024-12-05_12h38.22.987,Test,2024.2.4,None,2024-12-05 12h38.32.361698 +0100,
41,150,30,47,None,27,27,0,True,,,,right,0.8782635420211591,None,,,,,,,,,,,,,0,27,27,27,560.6067686669994,,,,,,,,,,,,,,,,,,,,,,,,,,,,,,,,,,,,,,,,,,,,,,,,,,,,,,,,,,,,,,,,,,,,,,,,,560.5997803750215,560.6067686669994,561.6034701670287,562.5883064169902,562.5883064169902,562.5883064169902,563.4734134169994,right,0.8782635420211591,None,,,,,,,,326577,001,2024-12-05_12h38.22.987,Test,2024.2.4,None,2024-12-05 12h38.32.361698 +0100,
47,150,60,68,None,28,28,0,True,,,,left,0.8102352090063505,None,,,,,,,,,,,,,0,28,28,28,563.4895935420063,,,,,,,,,,,,,,,,,,,,,,,,,,,,,,,,,,,,,,,,,,,,,,,,,,,,,,,,,,,,,,,,,,,,,,,,,563.4827303750208,563.4895935420063,564.4863420000183,565.4725162920076,565.4725162920076,565.4725162920076,566.2893218329991,left,0.8102352090063505,None,,,,,,,,326577,001,2024-12-05_12h38.22.987,Test,2024.2.4,None,2024-12-05 12h38.32.361698 +0100,
13,150,60,41,None,29,29,0,False,,,,right,0.927388416021131,None,,,,,,,,,,,,,0,29,29,29,566.3033274580375,,,,,,,,,,,,,,,,,,,,,,,,,,,,,,,,,,,,,,,,,,,,,,,,,,,,,,,,,,,,,,,,,,,,,,,,,566.2973474580212,566.3033274580375,567.2976900000358,568.2891554579837,568.2891554579837,568.2891554579837,569.223239917017,right,0.927388416021131,None,,,,,,,,326577,001,2024-12-05_12h38.22.987,Test,2024.2.4,None,2024-12-05 12h38.32.361698 +0100,
69,150,180,65,None,30,30,0,True,,,,left,0.7325004590093158,None,,,,,,,,,,,,,0,30,30,30,569.2404096249957,,,,,,,,,,,,,,,,,,,,,,,,,,,,,,,,,,,,,,,,,,,,,,,,,,,,,,,,,,,,,,,,,,,,,,,,,569.2330811670399,569.2404096249957,570.2371709999861,571.2215766669833,571.2215766669833,571.2215766669833,571.9564180829911,left,0.7325004590093158,None,,,,,,,,326577,001,2024-12-05_12h38.22.987,Test,2024.2.4,None,2024-12-05 12h38.32.361698 +0100,
40,150,0,32,None,31,31,0,True,,,,left,1.8237936250516213,None,,,,,,,,,,,,,0,31,31,31,571.971955667017,,,,,,,,,,,,,,,,,,,,,,,,,,,,,,,,,,,,,,,,,,,,,,,,,,,,,,,,,,,,,,,,,,,,,,,,,571.9659547500196,571.971955667017,572.9691505000228,573.9542372919968,573.9542372919968,573.9542372919968,575.7839221250033,left,1.8237936250516213,None,,,,,,,,326577,001,2024-12-05_12h38.22.987,Test,2024.2.4,None,2024-12-05 12h38.32.361698 +0100,
62,150,150,48,None,32,32,0,True,,,,left,1.656835499976296,None,,,,,,,,,,,,,0,32,32,32,575.801294667006,,,,,,,,,,,,,,,,,,,,,,,,,,,,,,,,,,,,,,,,,,,,,,,,,,,,,,,,,,,,,,,,,,,,,,,,,575.7946032499894,575.801294667006,576.7976879170164,577.7810716250096,577.7810716250096,577.7810716250096,579.4490898330114,left,1.656835499976296,None,,,,,,,,326577,001,2024-12-05_12h38.22.987,Test,2024.2.4,None,2024-12-05 12h38.32.361698 +0100,
44,150,30,24,None,33,33,0,True,,,,right,0.9180074579780921,None,,,,,,,,,,,,,0,33,33,33,579.4628291670233,,,,,,,,,,,,,,,,,,,,,,,,,,,,,,,,,,,,,,,,,,,,,,,,,,,,,,,,,,,,,,,,,,,,,,,,,579.4574408330373,579.4628291670233,580.4533046249999,581.4479230000288,581.4479230000288,581.4479230000288,582.3731701670331,right,0.9180074579780921,None,,,,,,,,326577,001,2024-12-05_12h38.22.987,Test,2024.2.4,None,2024-12-05 12h38.32.361698 +0100,
27,150,150,51,None,34,34,0,False,,,,left,1.36685191700235,None,,,,,,,,,,,,,0,34,34,34,582.3893655830179,,,,,,,,,,,,,,,,,,,,,,,,,,,,,,,,,,,,,,,,,,,,,,,,,,,,,,,,,,,,,,,,,,,,,,,,,582.3826481670258,582.3893655830179,583.3867989170249,584.3716187920072,584.3716187920072,584.3716187920072,585.7500132499845,left,1.36685191700235,None,,,,,,,,326577,001,2024-12-05_12h38.22.987,Test,2024.2.4,None,2024-12-05 12h38.32.361698 +0100,
4,150,0,50,None,35,35,0,False,,,,right,1.3385213330038823,None,,,,,,,,,,,,,0,35,35,35,585.7631572079845,,,,,,,,,,,,,,,,,,,,,,,,,,,,,,,,,,,,,,,,,,,,,,,,,,,,,,,,,,,,,,,,,,,,,,,,,585.7564537500148,585.7631572079845,586.7531122500077,587.7477150830091,587.7477150830091,587.7477150830091,589.0894369169837,right,1.3385213330038823,None,,,,,,,,326577,001,2024-12-05_12h38.22.987,Test,2024.2.4,None,2024-12-05 12h38.32.361698 +0100,
43,150,30,16,None,36,36,0,True,,,,left,1.2205942499567755,None,,,,,,,,,,,,,0,36,36,36,589.104412375018,,,,,,,,,,,,,,,,,,,,,,,,,,,,,,,,,,,,,,,,,,,,,,,,,,,,,,,,,,,,,,,,,,,,,,,,,589.0979045419954,589.104412375018,590.0976813749876,591.0883716670214,591.0883716670214,591.0883716670214,592.317115666985,left,1.2205942499567755,None,,,,,,,,326577,001,2024-12-05_12h38.22.987,Test,2024.2.4,None,2024-12-05 12h38.32.361698 +0100,
65,150,150,54,None,37,37,0,True,,,,left,0.9513508749660105,None,,,,,,,,,,,,,0,37,37,37,592.334270249994,,,,,,,,,,,,,,,,,,,,,,,,,,,,,,,,,,,,,,,,,,,,,,,,,,,,,,,,,,,,,,,,,,,,,,,,,592.3275600000052,592.334270249994,593.3309612920275,594.3146735419868,594.3146735419868,594.3146735419868,595.2727102080244,left,0.9513508749660105,None,,,,,,,,326577,001,2024-12-05_12h38.22.987,Test,2024.2.4,None,2024-12-05 12h38.32.361698 +0100,
39,150,0,28,None,38,38,0,True,,,,left,1.1718261659843847,None,,,,,,,,,,,,,0,38,38,38,595.2891945830197,,,,,,,,,,,,,,,,,,,,,,,,,,,,,,,,,,,,,,,,,,,,,,,,,,,,,,,,,,,,,,,,,,,,,,,,,595.2824137079879,595.2891945830197,596.285854250018,597.2713522920385,597.2713522920385,597.2713522920385,598.4506572079845,left,1.1718261659843847,None,,,,,,,,326577,001,2024-12-05_12h38.22.987,Test,2024.2.4,None,2024-12-05 12h38.32.361698 +0100,
50,150,60,60,None,39,39,0,True,,,,right,1.512907374999486,None,,,,,,,,,,,,,0,39,39,39,598.4676669579931,,,,,,,,,,,,,,,,,,,,,,,,,,,,,,,,,,,,,,,,,,,,,,,,,,,,,,,,,,,,,,,,,,,,,,,,,598.4606407500105,598.4676669579931,599.4644782079849,600.4478942920105,600.4478942920105,600.4478942920105,601.9668006250286,right,1.512907374999486,None,,,,,,,,326577,001,2024-12-05_12h38.22.987,Test,2024.2.4,None,2024-12-05 12h38.32.361698 +0100,
52,150,90,8,None,40,40,0,True,,,,right,1.1171126660192385,None,,,,,,,,,,,,,0,40,40,40,601.9822182080243,,,,,,,,,,,,,,,,,,,,,,,,,,,,,,,,,,,,,,,,,,,,,,,,,,,,,,,,,,,,,,,,,,,,,,,,,601.9755637079943,601.9822182080243,602.9808868329856,603.9645595420152,603.9645595420152,603.9645595420152,605.0843059170293,right,1.1171126660192385,None,,,,,,,,326577,001,2024-12-05_12h38.22.987,Test,2024.2.4,None,2024-12-05 12h38.32.361698 +0100,
17,150,90,45,None,41,41,0,False,,,,right,1.1933052079984918,None,,,,,,,,,,,,,0,41,41,41,605.1006985420245,,,,,,,,,,,,,,,,,,,,,,,,,,,,,,,,,,,,,,,,,,,,,,,,,,,,,,,,,,,,,,,,,,,,,,,,,605.0942222080193,605.1006985420245,606.09776241699,607.0811825830024,607.0811825830024,607.0811825830024,608.2833097080002,right,1.1933052079984918,None,,,,,,,,326577,001,2024-12-05_12h38.22.987,Test,2024.2.4,None,2024-12-05 12h38.32.361698 +0100,
64,150,150,35,None,42,42,0,True,,,,right,1.1115609590196982,None,,,,,,,,,,,,,0,42,42,42,608.2996096250135,,,,,,,,,,,,,,,,,,,,,,,,,,,,,,,,,,,,,,,,,,,,,,,,,,,,,,,,,,,,,,,,,,,,,,,,,608.2930206669844,608.2996096250135,609.2963232499897,610.281096916995,610.281096916995,610.281096916995,611.4007822080166,right,1.1115609590196982,None,,,,,,,,326577,001,2024-12-05_12h38.22.987,Test,2024.2.4,None,2024-12-05 12h38.32.361698 +0100,
38,150,0,43,None,43,43,0,True,,,,left,1.2851519170217216,None,,,,,,,,,,,,,0,43,43,43,611.4178967080079,,,,,,,,,,,,,,,,,,,,,,,,,,,,,,,,,,,,,,,,,,,,,,,,,,,,,,,,,,,,,,,,,,,,,,,,,611.4105951670208,611.4178967080079,612.4144389579888,613.3978110000025,613.3978110000025,613.3978110000025,614.6899448750191,left,1.2851519170217216,None,,,,,,,,326577,001,2024-12-05_12h38.22.987,Test,2024.2.4,None,2024-12-05 12h38.32.361698 +0100,
63,150,150,46,None,44,44,0,True,,,,left,1.3338640829897486,None,,,,,,,,,,,,,0,44,44,44,614.705199500022,,,,,,,,,,,,,,,,,,,,,,,,,,,,,,,,,,,,,,,,,,,,,,,,,,,,,,,,,,,,,,,,,,,,,,,,,614.698879750038,614.705199500022,615.7030140419956,616.6864160830155,616.6864160830155,616.6864160830155,618.0322171250009,left,1.3338640829897486,None,,,,,,,,326577,001,2024-12-05_12h38.22.987,Test,2024.2.4,None,2024-12-05 12h38.32.361698 +0100,
7,150,30,61,None,45,45,0,False,,,,right,0.8028861670172773,None,,,,,,,,,,,,,0,45,45,45,618.042151917005,,,,,,,,,,,,,,,,,,,,,,,,,,,,,,,,,,,,,,,,,,,,,,,,,,,,,,,,,,,,,,,,,,,,,,,,,618.0375704999897,618.042151917005,619.0359596250346,620.0299363750382,620.0299363750382,620.0299363750382,620.8356063329848,right,0.8028861670172773,None,,,,,,,,326577,001,2024-12-05_12h38.22.987,Test,2024.2.4,None,2024-12-05 12h38.32.361698 +0100,
34,150,180,49,None,46,46,0,False,,,,left,1.3543301249737851,None,,,,,,,,,,,,,0,46,46,46,620.8630612500128,,,,,,,,,,,,,,,,,,,,,,,,,,,,,,,,,,,,,,,,,,,,,,,,,,,,,,,,,,,,,,,,,,,,,,,,,620.8418596250121,620.8630612500128,621.850891250011,622.8312002079911,622.8312002079911,622.8312002079911,624.1888495000312,left,1.3543301249737851,None,,,,,,,,326577,001,2024-12-05_12h38.22.987,Test,2024.2.4,None,2024-12-05 12h38.32.361698 +0100,
26,150,150,3,None,47,47,0,False,,,,right,1.6556086250348017,None,,,,,,,,,,,,,0,47,47,47,624.2022302920232,,,,,,,,,,,,,,,,,,,,,,,,,,,,,,,,,,,,,,,,,,,,,,,,,,,,,,,,,,,,,,,,,,,,,,,,,624.1962819580222,624.2022302920232,625.1976010419894,626.1980985000264,626.1980985000264,626.1980985000264,627.8554060420138,right,1.6556086250348017,None,,,,,,,,326577,001,2024-12-05_12h38.22.987,Test,2024.2.4,None,2024-12-05 12h38.32.361698 +0100,
53,150,90,40,None,48,48,0,True,,,,left,1.168597541982308,None,,,,,,,,,,,,,0,48,48,48,627.8709297080059,,,,,,,,,,,,,,,,,,,,,,,,,,,,,,,,,,,,,,,,,,,,,,,,,,,,,,,,,,,,,,,,,,,,,,,,,627.8660232080147,627.8709297080059,628.8648710420239,629.8552999999956,629.8552999999956,629.8552999999956,631.0341207919992,left,1.168597541982308,None,,,,,,,,326577,001,2024-12-05_12h38.22.987,Test,2024.2.4,None,2024-12-05 12h38.32.361698 +0100,
60,150,120,14,None,49,49,0,True,,,,right,0.7527105419430882,None,,,,,,,,,,,,,0,49,49,49,631.0523698329926,,,,,,,,,,,,,,,,,,,,,,,,,,,,,,,,,,,,,,,,,,,,,,,,,,,,,,,,,,,,,,,,,,,,,,,,,631.0448993330356,631.0523698329926,632.0477153329994,633.0311283330084,633.0311283330084,633.0311283330084,633.8008068749914,right,0.7527105419430882,None,,,,,,,,326577,001,2024-12-05_12h38.22.987,Test,2024.2.4,None,2024-12-05 12h38.32.361698 +0100,
37,150,0,67,None,50,50,0,True,,,,left,0.7709549160208553,None,,,,,,,,,,,,,0,50,50,50,633.8169615420047,,,,,,,,,,,,,,,,,,,,,,,,,,,,,,,,,,,,,,,,,,,,,,,,,,,,,,,,,,,,,,,,,,,,,,,,,633.8107164580142,633.8169615420047,634.8146626669914,635.7965420419932,635.7965420419932,635.7965420419932,636.570400333032,left,0.7709549160208553,None,,,,,,,,326577,001,2024-12-05_12h38.22.987,Test,2024.2.4,None,2024-12-05 12h38.32.361698 +0100,
70,150,180,19,None,51,51,0,True,,,,left,1.369599541008938,None,,,,,,,,,,,,,0,51,51,51,636.5823300420307,,,,,,,,,,,,,,,,,,,,,,,,,,,,,,,,,,,,,,,,,,,,,,,,,,,,,,,,,,,,,,,,,,,,,,,,,636.5770101670059,636.5823300420307,637.5813499580254,638.5644719580305,638.5644719580305,638.5644719580305,639.9401740829926,left,1.369599541008938,None,,,,,,,,326577,001,2024-12-05_12h38.22.987,Test,2024.2.4,None,2024-12-05 12h38.32.361698 +0100,
15,150,60,39,None,52,52,0,False,,,,right,1.413570582983084,None,,,,,,,,,,,,,0,52,52,52,639.9572137499927,,,,,,,,,,,,,,,,,,,,,,,,,,,,,,,,,,,,,,,,,,,,,,,,,,,,,,,,,,,,,,,,,,,,,,,,,639.950272792019,639.9572137499927,640.9532498330227,641.9390881250147,641.9390881250147,641.9390881250147,643.3558767500217,right,1.413570582983084,None,,,,,,,,326577,001,2024-12-05_12h38.22.987,Test,2024.2.4,None,2024-12-05 12h38.32.361698 +0100,
42,150,30,23,None,53,53,0,True,,,,left,0.778035249968525,None,,,,,,,,,,,,,0,53,53,53,643.3734359170194,,,,,,,,,,,,,,,,,,,,,,,,,,,,,,,,,,,,,,,,,,,,,,,,,,,,,,,,,,,,,,,,,,,,,,,,,643.3667370420299,643.3734359170194,644.369782667025,645.356058083009,645.356058083009,645.356058083009,646.139745958033,left,0.778035249968525,None,,,,,,,,326577,001,2024-12-05_12h38.22.987,Test,2024.2.4,None,2024-12-05 12h38.32.361698 +0100,
35,150,180,20,None,54,54,0,False,,,,left,1.0477165409829468,None,,,,,,,,,,,,,0,54,54,54,646.1562463330338,,,,,,,,,,,,,,,,,,,,,,,,,,,,,,,,,,,,,,,,,,,,,,,,,,,,,,,,,,,,,,,,,,,,,,,,,646.1495845000027,646.1562463330338,647.1534186670324,648.13859925,648.13859925,648.13859925,649.1891596250352,left,1.0477165409829468,None,,,,,,,,326577,001,2024-12-05_12h38.22.987,Test,2024.2.4,None,2024-12-05 12h38.32.361698 +0100,
22,150,120,2,None,55,55,0,False,,,,right,0.8689398330170661,None,,,,,,,,,,,,,0,55,55,55,649.206408041995,,,,,,,,,,,,,,,,,,,,,,,,,,,,,,,,,,,,,,,,,,,,,,,,,,,,,,,,,,,,,,,,,,,,,,,,,649.1994933750248,649.206408041995,650.2031575830188,651.1876685420284,651.1876685420284,651.1876685420284,652.0666527079884,right,0.8689398330170661,None,,,,,,,,326577,001,2024-12-05_12h38.22.987,Test,2024.2.4,None,2024-12-05 12h38.32.361698 +0100,
33,150,180,1,None,56,56,0,False,,,,right,1.0387202089768834,None,,,,,,,,,,,,,0,56,56,56,652.0825028329855,,,,,,,,,,,,,,,,,,,,,,,,,,,,,,,,,,,,,,,,,,,,,,,,,,,,,,,,,,,,,,,,,,,,,,,,,652.0761857500183,652.0825028329855,653.0810985420248,654.0644626250141,654.0644626250141,654.0644626250141,655.1057794170338,right,1.0387202089768834,None,,,,,,,,326577,001,2024-12-05_12h38.22.987,Test,2024.2.4,None,2024-12-05 12h38.32.361698 +0100,
23,150,120,53,None,57,57,0,False,,,,right,1.1103230000007898,None,,,,,,,,,,,,,0,57,57,57,655.1177107080002,,,,,,,,,,,,,,,,,,,,,,,,,,,,,,,,,,,,,,,,,,,,,,,,,,,,,,,,,,,,,,,,,,,,,,,,,655.1120785420062,655.1177107080002,656.1145331250154,657.1050214170245,657.1050214170245,657.1050214170245,658.2252885830239,right,1.1103230000007898,None,,,,,,,,326577,001,2024-12-05_12h38.22.987,Test,2024.2.4,None,2024-12-05 12h38.32.361698 +0100,
57,150,120,13,None,58,58,0,True,,,,left,1.1003124170238152,None,,,,,,,,,,,,,0,58,58,58,658.2385918750078,,,,,,,,,,,,,,,,,,,,,,,,,,,,,,,,,,,,,,,,,,,,,,,,,,,,,,,,,,,,,,,,,,,,,,,,,658.2337341250386,658.2385918750078,659.2355491250055,660.2217945830198,660.2217945830198,660.2217945830198,661.3330965419882,left,1.1003124170238152,None,,,,,,,,326577,001,2024-12-05_12h38.22.987,Test,2024.2.4,None,2024-12-05 12h38.32.361698 +0100,
20,150,90,15,None,59,59,0,False,,,,left,1.1519722910015844,None,,,,,,,,,,,,,0,59,59,59,661.349005917029,,,,,,,,,,,,,,,,,,,,,,,,,,,,,,,,,,,,,,,,,,,,,,,,,,,,,,,,,,,,,,,,,,,,,,,,,661.3420482079964,661.349005917029,662.3476202500169,663.3310462500085,663.3310462500085,663.3310462500085,664.4886237920146,left,1.1519722910015844,None,,,,,,,,326577,001,2024-12-05_12h38.22.987,Test,2024.2.4,None,2024-12-05 12h38.32.361698 +0100,
68,150,180,59,None,60,60,0,True,,,,right,1.1280852080089971,None,,,,,,,,,,,,,0,60,60,60,664.5011837499915,,,,,,,,,,,,,,,,,,,,,,,,,,,,,,,,,,,,,,,,,,,,,,,,,,,,,,,,,,,,,,,,,,,,,,,,,664.4958357500145,664.5011837499915,665.4976650419994,666.4879710000241,666.4879710000241,666.4879710000241,667.6233960830141,right,1.1280852080089971,None,,,,,,,,326577,001,2024-12-05_12h38.22.987,Test,2024.2.4,None,2024-12-05 12h38.32.361698 +0100,
31,150,180,22,None,61,61,0,False,,,,left,1.277917500003241,None,,,,,,,,,,,,,0,61,61,61,667.6395281250007,,,,,,,,,,,,,,,,,,,,,,,,,,,,,,,,,,,,,,,,,,,,,,,,,,,,,,,,,,,,,,,,,,,,,,,,,667.6333685829886,667.6395281250007,668.6364280420239,669.6224555830122,669.6224555830122,669.6224555830122,670.9059244579985,left,1.277917500003241,None,,,,,,,,326577,001,2024-12-05_12h38.22.987,Test,2024.2.4,None,2024-12-05 12h38.32.361698 +0100,
21,150,120,62,None,62,62,0,False,,,,left,1.1193284170003608,None,,,,,,,,,,,,,0,62,62,62,670.9432199170114,,,,,,,,,,,,,,,,,,,,,,,,,,,,,,,,,,,,,,,,,,,,,,,,,,,,,,,,,,,,,,,,,,,,,,,,,670.9356000000262,670.9432199170114,671.9359681250062,672.9074512500083,672.9074512500083,672.9074512500083,674.0333160000155,left,1.1193284170003608,None,,,,,,,,326577,001,2024-12-05_12h38.22.987,Test,2024.2.4,None,2024-12-05 12h38.32.361698 +0100,
25,150,120,30,None,63,63,0,False,,,,left,0.835217832995113,None,,,,,,,,,,,,,0,63,63,63,674.048421583022,,,,,,,,,,,,,,,,,,,,,,,,,,,,,,,,,,,,,,,,,,,,,,,,,,,,,,,,,,,,,,,,,,,,,,,,,674.0420847500209,674.048421583022,675.036104458035,676.0311130830087,676.0311130830087,676.0311130830087,676.8730179999839,left,0.835217832995113,None,,,,,,,,326577,001,2024-12-05_12h38.22.987,Test,2024.2.4,None,2024-12-05 12h38.32.361698 +0100,
14,150,60,18,None,64,64,0,False,,,,right,1.2347045000060461,None,,,,,,,,,,,,,0,64,64,64,676.8882833329844,,,,,,,,,,,,,,,,,,,,,,,,,,,,,,,,,,,,,,,,,,,,,,,,,,,,,,,,,,,,,,,,,,,,,,,,,676.881992916984,676.8882833329844,677.8981266249903,678.8718714170391,678.8718714170391,678.8718714170391,680.1163189170184,right,1.2347045000060461,None,,,,,,,,326577,001,2024-12-05_12h38.22.987,Test,2024.2.4,None,2024-12-05 12h38.32.361698 +0100,
49,150,60,33,None,65,65,0,True,,,,right,1.1514170409645885,None,,,,,,,,,,,,,0,65,65,65,680.1325556670199,,,,,,,,,,,,,,,,,,,,,,,,,,,,,,,,,,,,,,,,,,,,,,,,,,,,,,,,,,,,,,,,,,,,,,,,,680.1257542500389,680.1325556670199,681.1312562500243,682.1145831670146,682.1145831670146,682.1145831670146,683.2733657080098,right,1.1514170409645885,None,,,,,,,,326577,001,2024-12-05_12h38.22.987,Test,2024.2.4,None,2024-12-05 12h38.32.361698 +0100,
32,150,180,7,None,66,66,0,False,,,,right,0.7460603750078008,None,,,,,,,,,,,,,0,66,66,66,683.2899115830078,,,,,,,,,,,,,,,,,,,,,,,,,,,,,,,,,,,,,,,,,,,,,,,,,,,,,,,,,,,,,,,,,,,,,,,,,683.2830488749896,683.2899115830078,684.2856101249927,685.2724835000117,685.2724835000117,685.2724835000117,686.0232517920085,right,0.7460603750078008,None,,,,,,,,326577,001,2024-12-05_12h38.22.987,Test,2024.2.4,None,2024-12-05 12h38.32.361698 +0100,
11,150,60,64,None,67,67,0,False,,,,left,1.1828231670078821,None,,,,,,,,,,,,,0,67,67,67,686.0390795830172,,,,,,,,,,,,,,,,,,,,,,,,,,,,,,,,,,,,,,,,,,,,,,,,,,,,,,,,,,,,,,,,,,,,,,,,,686.0328575000167,686.0390795830172,687.0363512500189,688.0224730420159,688.0224730420159,688.0224730420159,689.2175993330311,left,1.1828231670078821,None,,,,,,,,326577,001,2024-12-05_12h38.22.987,Test,2024.2.4,None,2024-12-05 12h38.32.361698 +0100,
18,150,90,11,None,68,68,0,False,,,,right,0.8127439999952912,None,,,,,,,,,,,,,0,68,68,68,689.233490750019,,,,,,,,,,,,,,,,,,,,,,,,,,,,,,,,,,,,,,,,,,,,,,,,,,,,,,,,,,,,,,,,,,,,,,,,,689.2291854170035,689.233490750019,690.2312300830381,691.213532875001,691.213532875001,691.213532875001,692.0331897920114,right,0.8127439999952912,None,,,,,,,,326577,001,2024-12-05_12h38.22.987,Test,2024.2.4,None,2024-12-05 12h38.32.361698 +0100,
48,150,60,5,None,69,69,0,True,,,,left,1.2576229170081206,None,,,,,,,,,,,,,0,69,69,69,692.0510278749862,,,,,,,,,,,,,,,,,,,,,,,,,,,,,,,,,,,,,,,,,,,,,,,,,,,,,,,,,,,,,,,,,,,,,,,,,692.044713500014,692.0510278749862,693.0477317080367,694.0311839170172,694.0311839170172,694.0311839170172,695.2996581250336,left,1.2576229170081206,None,,,,,,,,326577,001,2024-12-05_12h38.22.987,Test,2024.2.4,None,2024-12-05 12h38.32.361698 +0100,
,,,,,,,,,,,,,,,,,,,,,,,,,,,,,,,,,,,,,,,,,,,,,,,,,,,,,,,,,,,,,,,,,,,,,,,,,,,,,,,,,,,,,,,,,,,,,,,,,,,,,,,,,,,,,,,,,,695.3001335000154,695.3165547500248,695.3165547500248,696.9658672499936,space,1.6381948329508305,None,326577,001,2024-12-05_12h38.22.987,Test,2024.2.4,None,2024-12-05 12h38.32.361698 +0100,
