Trial_Number,Exposure_Duration,Displacement_Angle,Stimulus,Response,thisN,thisTrialN,thisRepN,Is_Distractor,key_resp_3.keys,key_resp_3.rt,key_resp_3.duration,key_resp_7.keys,key_resp_7.rt,key_resp_7.duration,trials.thisRepN,trials.thisTrialN,trials.thisN,trials.thisIndex,trials_2.thisRepN,trials_2.thisTrialN,trials_2.thisN,trials_2.thisIndex,trials_3.thisRepN,trials_3.thisTrialN,trials_3.thisN,trials_3.thisIndex,trials_4.thisRepN,trials_4.thisTrialN,trials_4.thisN,trials_4.thisIndex,thisRow.t,notes,Intro_to_experiment.started,important1_2.started,key_resp_8.started,Intro_to_experiment.stopped,key_resp_8.keys,key_resp_8.rt,key_resp_8.duration,important.started,important1.started,key_resp_4.started,important.stopped,key_resp_4.keys,key_resp_4.rt,key_resp_4.duration,training_instruction.started,key_resp_9.started,important1_3.started,training_instruction.stopped,key_resp_9.keys,key_resp_9.rt,key_resp_9.duration,training_trial.started,cross.started,image.started,aperture.started,cross.stopped,image.stopped,aperture.stopped,training_trial.stopped,New_instruction.started,text.started,key_resp_2.started,New_instruction.stopped,key_resp_2.keys,key_resp_2.rt,key_resp_2.duration,test_trial.started,cross2.started,cross2.stopped,image_2.started,key_resp_3.started,aperture_2.started,test_trial.stopped,trials_2.key_resp_3.keys,trials_2.key_resp_3.rt,trials_2.key_resp_3.duration,image_2.stopped,aperture_2.stopped,text_3.started,start_blok_2.started,key_resp_5.started,text_4.started,start_blok_2.stopped,key_resp_5.keys,key_resp_5.rt,key_resp_5.duration,training_2.started,cross_2.started,image_3.started,aperture_3.started,cross_2.stopped,image_3.stopped,aperture_3.stopped,training_2.stopped,nyeste_instruks.started,text_5.started,key_resp_6.started,nyeste_instruks.stopped,key_resp_6.keys,key_resp_6.rt,key_resp_6.duration,test_2.started,cross2_2.started,cross2_2.stopped,image_4.started,key_resp_7.started,aperture_4.started,test_2.stopped,trials_4.key_resp_7.keys,trials_4.key_resp_7.rt,trials_4.key_resp_7.duration,image_4.stopped,aperture_4.stopped,text_6.started,Instruction.started,Instruktion.started,key_resp.started,Instruction.stopped,key_resp.keys,key_resp.rt,key_resp.duration,participant,session,date,expName,psychopyVersion,frameRate,expStart,
,,,,,,,,,,,,,,,,,,,,,,,,,,,,,,,,,0.01774799998383969,0.03695029200753197,0.03695029200753197,80.92946700000903,space,80.83164733299054,None,,,,,,,,,,,,,,,,,,,,,,,,,,,,,,,,,,,,,,,,,,,,,,,,,,,,,,,,,,,,,,,,,,,,,,,,,,,,,,,,,,,,,366288,001,2024-12-03_23h19.48.974,Test,2024.2.4,None,2024-12-03 23h19.57.492294 +0100,
,,,,,,,,,,,,,,,,,,,,,,,,,,,,,,,,,,,,,,,,80.92974183399929,80.93689445900964,80.93689445900964,103.26252774999011,space,22.3231919160462,None,,,,,,,,,,,,,,,,,,,,,,,,,,,,,,,,,,,,,,,,,,,,,,,,,,,,,,,,,,,,,,,,,,,,,,,,,,,,,,366288,001,2024-12-03_23h19.48.974,Test,2024.2.4,None,2024-12-03 23h19.57.492294 +0100,
,,,,,,,,,,,,,,,,,,,,,,,,,,,,,,,,,,,,,,,,,,,,,,,103.26262587500969,103.28644833399449,103.28644833399449,118.31145104201278,space,15.014054958999623,None,,,,,,,,,,,,,,,,,,,,,,,,,,,,,,,,,,,,,,,,,,,,,,,,,,,,,,,,,,,,,,,,,,,,,,,366288,001,2024-12-03_23h19.48.974,Test,2024.2.4,None,2024-12-03 23h19.57.492294 +0100,
17,150,90,15,None,0,0,0,,,,,,,,0,0,0,16,,,,,,,,,,,,,118.36752829200123,,,,,,,,,,,,,,,,,,,,,,,118.35993429197697,118.36752829200123,118.5098079169984,118.5098079169984,118.56345666700508,120.2096671249601,120.2096671249601,120.1940282919677,,,,,,,,,,,,,,,,,,,,,,,,,,,,,,,,,,,,,,,,,,,,,,,,,,,,,,,,,,,,,,,366288,001,2024-12-03_23h19.48.974,Test,2024.2.4,None,2024-12-03 23h19.57.492294 +0100,
29,150,150,4,None,1,1,0,,,,,,,,0,1,1,28,,,,,,,,,,,,,120.2096671249601,,,,,,,,,,,,,,,,,,,,,,,120.2051117499941,120.21314566698857,120.4101562089636,120.4101562089636,120.4101562089636,122.10878808400594,122.10878808400594,122.09398962499108,,,,,,,,,,,,,,,,,,,,,,,,,,,,,,,,,,,,,,,,,,,,,,,,,,,,,,,,,,,,,,,366288,001,2024-12-03_23h19.48.974,Test,2024.2.4,None,2024-12-03 23h19.57.492294 +0100,
1,150,0,55,None,2,2,0,,,,,,,,0,2,2,0,,,,,,,,,,,,,122.10878808400594,,,,,,,,,,,,,,,,,,,,,,,122.10397833399475,122.11268808395835,122.30914437497267,122.30914437497267,122.30914437497267,124.01057241699891,124.01057241699891,123.99445420899428,,,,,,,,,,,,,,,,,,,,,,,,,,,,,,,,,,,,,,,,,,,,,,,,,,,,,,,,,,,,,,,366288,001,2024-12-03_23h19.48.974,Test,2024.2.4,None,2024-12-03 23h19.57.492294 +0100,
31,150,180,3,None,3,3,0,,,,,,,,0,3,3,30,,,,,,,,,,,,,124.01057241699891,,,,,,,,,,,,,,,,,,,,,,,124.00567195896292,124.02653295896016,124.20986704196548,124.20986704196548,124.21632324997336,125.90900112496456,125.90900112496456,125.89389070897596,,,,,,,,,,,,,,,,,,,,,,,,,,,,,,,,,,,,,,,,,,,,,,,,,,,,,,,,,,,,,,,366288,001,2024-12-03_23h19.48.974,Test,2024.2.4,None,2024-12-03 23h19.57.492294 +0100,
25,150,120,45,None,4,4,0,,,,,,,,0,4,4,24,,,,,,,,,,,,,125.90900112496456,,,,,,,,,,,,,,,,,,,,,,,125.90394720900804,125.91308262496023,126.10991483397083,126.10991483397083,126.10991483397083,127.8086952919839,127.8086952919839,127.7942025839584,,,,,,,,,,,,,,,,,,,,,,,,,,,,,,,,,,,,,,,,,,,,,,,,,,,,,,,,,,,,,,,366288,001,2024-12-03_23h19.48.974,Test,2024.2.4,None,2024-12-03 23h19.57.492294 +0100,
5,150,0,14,None,5,5,0,,,,,,,,0,5,5,4,,,,,,,,,,,,,127.8086952919839,,,,,,,,,,,,,,,,,,,,,,,127.80397470900789,127.81272791698575,128.00986779195955,128.00986779195955,128.00986779195955,129.709378791973,129.709378791973,129.69414979196154,,,,,,,,,,,,,,,,,,,,,,,,,,,,,,,,,,,,,,,,,,,,,,,,,,,,,,,,,,,,,,,366288,001,2024-12-03_23h19.48.974,Test,2024.2.4,None,2024-12-03 23h19.57.492294 +0100,
24,150,120,5,None,6,6,0,,,,,,,,0,6,6,23,,,,,,,,,,,,,129.709378791973,,,,,,,,,,,,,,,,,,,,,,,129.7047051669797,129.71351829200285,129.90989704197273,129.90989704197273,129.90989704197273,131.6088155839825,131.6088155839825,131.5942269169609,,,,,,,,,,,,,,,,,,,,,,,,,,,,,,,,,,,,,,,,,,,,,,,,,,,,,,,,,,,,,,,366288,001,2024-12-03_23h19.48.974,Test,2024.2.4,None,2024-12-03 23h19.57.492294 +0100,
8,150,30,53,None,7,7,0,,,,,,,,0,7,7,7,,,,,,,,,,,,,131.6088155839825,,,,,,,,,,,,,,,,,,,,,,,131.60384337499272,131.61285016697366,131.80996612500167,131.80996612500167,131.80996612500167,133.5078453340102,133.5078453340102,133.49419979198137,,,,,,,,,,,,,,,,,,,,,,,,,,,,,,,,,,,,,,,,,,,,,,,,,,,,,,,,,,,,,,,366288,001,2024-12-03_23h19.48.974,Test,2024.2.4,None,2024-12-03 23h19.57.492294 +0100,
4,150,0,36,None,8,8,0,,,,,,,,0,8,8,3,,,,,,,,,,,,,133.5078453340102,,,,,,,,,,,,,,,,,,,,,,,133.50273258396192,133.5123562089866,133.7098917089752,133.7098917089752,133.7098917089752,135.40728995896643,135.40728995896643,135.39399016700918,,,,,,,,,,,,,,,,,,,,,,,,,,,,,,,,,,,,,,,,,,,,,,,,,,,,,,,,,,,,,,,366288,001,2024-12-03_23h19.48.974,Test,2024.2.4,None,2024-12-03 23h19.57.492294 +0100,
32,150,180,23,None,9,9,0,,,,,,,,0,9,9,31,,,,,,,,,,,,,135.40728995896643,,,,,,,,,,,,,,,,,,,,,,,135.40226841700496,135.41125474998262,135.60988004197134,135.60988004197134,135.60988004197134,137.30553708400112,137.30553708400112,137.29348808398936,,,,,,,,,,,,,,,,,,,,,,,,,,,,,,,,,,,,,,,,,,,,,,,,,,,,,,,,,,,,,,,366288,001,2024-12-03_23h19.48.974,Test,2024.2.4,None,2024-12-03 23h19.57.492294 +0100,
7,150,30,46,None,10,10,0,,,,,,,,0,10,10,6,,,,,,,,,,,,,137.30553708400112,,,,,,,,,,,,,,,,,,,,,,,137.30154637497617,137.31085558398627,137.50985662499443,137.50985662499443,137.50985662499443,139.2093364589964,139.2093364589964,139.19416604196886,,,,,,,,,,,,,,,,,,,,,,,,,,,,,,,,,,,,,,,,,,,,,,,,,,,,,,,,,,,,,,,366288,001,2024-12-03_23h19.48.974,Test,2024.2.4,None,2024-12-03 23h19.57.492294 +0100,
26,150,150,58,None,11,11,0,,,,,,,,0,11,11,25,,,,,,,,,,,,,139.2093364589964,,,,,,,,,,,,,,,,,,,,,,,139.20350654196227,139.21380874997703,139.40993820899166,139.40993820899166,139.40993820899166,141.10979562497232,141.10979562497232,141.0942759999889,,,,,,,,,,,,,,,,,,,,,,,,,,,,,,,,,,,,,,,,,,,,,,,,,,,,,,,,,,,,,,,366288,001,2024-12-03_23h19.48.974,Test,2024.2.4,None,2024-12-03 23h19.57.492294 +0100,
3,150,0,12,None,12,12,0,,,,,,,,0,12,12,2,,,,,,,,,,,,,141.10979562497232,,,,,,,,,,,,,,,,,,,,,,,141.10531741700834,141.11342304199934,141.30994570901385,141.30994570901385,141.30994570901385,143.00876616698224,143.00876616698224,142.99402895901585,,,,,,,,,,,,,,,,,,,,,,,,,,,,,,,,,,,,,,,,,,,,,,,,,,,,,,,,,,,,,,,366288,001,2024-12-03_23h19.48.974,Test,2024.2.4,None,2024-12-03 23h19.57.492294 +0100,
12,150,60,2,None,13,13,0,,,,,,,,0,13,13,11,,,,,,,,,,,,,143.00876616698224,,,,,,,,,,,,,,,,,,,,,,,143.00413079198916,143.01245591696352,143.21011429198552,143.21011429198552,143.21011429198552,144.90847249998478,144.90847249998478,144.89406958397012,,,,,,,,,,,,,,,,,,,,,,,,,,,,,,,,,,,,,,,,,,,,,,,,,,,,,,,,,,,,,,,366288,001,2024-12-03_23h19.48.974,Test,2024.2.4,None,2024-12-03 23h19.57.492294 +0100,
6,150,30,37,None,14,14,0,,,,,,,,0,14,14,5,,,,,,,,,,,,,144.90847249998478,,,,,,,,,,,,,,,,,,,,,,,144.9035471669631,144.91228654200677,145.10990779200802,145.10990779200802,145.10990779200802,146.80782916699536,146.80782916699536,146.79419741698075,,,,,,,,,,,,,,,,,,,,,,,,,,,,,,,,,,,,,,,,,,,,,,,,,,,,,,,,,,,,,,,366288,001,2024-12-03_23h19.48.974,Test,2024.2.4,None,2024-12-03 23h19.57.492294 +0100,
30,150,150,13,None,15,15,0,,,,,,,,0,15,15,29,,,,,,,,,,,,,146.80782916699536,,,,,,,,,,,,,,,,,,,,,,,146.80304437497398,146.81171933398582,147.00986554200063,147.00986554200063,147.00986554200063,148.7073240840109,148.7073240840109,148.6943792499951,,,,,,,,,,,,,,,,,,,,,,,,,,,,,,,,,,,,,,,,,,,,,,,,,,,,,,,,,,,,,,,366288,001,2024-12-03_23h19.48.974,Test,2024.2.4,None,2024-12-03 23h19.57.492294 +0100,
21,150,120,52,None,16,16,0,,,,,,,,0,16,16,20,,,,,,,,,,,,,148.7073240840109,,,,,,,,,,,,,,,,,,,,,,,148.70220533397514,148.71235045901267,148.9099339589593,148.9099339589593,148.9099339589593,150.60867783398135,150.60867783398135,150.5947253339691,,,,,,,,,,,,,,,,,,,,,,,,,,,,,,,,,,,,,,,,,,,,,,,,,,,,,,,,,,,,,,,366288,001,2024-12-03_23h19.48.974,Test,2024.2.4,None,2024-12-03 23h19.57.492294 +0100,
28,150,150,61,None,17,17,0,,,,,,,,0,17,17,27,,,,,,,,,,,,,150.60867783398135,,,,,,,,,,,,,,,,,,,,,,,150.59866404201603,150.60867783398135,150.80858874996193,150.80858874996193,150.7986609590007,152.50877416698495,152.50877416698495,152.49428104195977,,,,,,,,,,,,,,,,,,,,,,,,,,,,,,,,,,,,,,,,,,,,,,,,,,,,,,,,,,,,,,,366288,001,2024-12-03_23h19.48.974,Test,2024.2.4,None,2024-12-03 23h19.57.492294 +0100,
23,150,120,51,None,18,18,0,,,,,,,,0,18,18,22,,,,,,,,,,,,,152.50877416698495,,,,,,,,,,,,,,,,,,,,,,,152.5040225419798,152.5127151249908,152.70857508399058,152.70857508399058,152.70857508399058,154.40887970896438,154.40887970896438,154.39412279200042,,,,,,,,,,,,,,,,,,,,,,,,,,,,,,,,,,,,,,,,,,,,,,,,,,,,,,,,,,,,,,,366288,001,2024-12-03_23h19.48.974,Test,2024.2.4,None,2024-12-03 23h19.57.492294 +0100,
14,150,60,30,None,19,19,0,,,,,,,,0,19,19,13,,,,,,,,,,,,,154.40887970896438,,,,,,,,,,,,,,,,,,,,,,,154.4030600420083,154.4143060419592,154.60995512496447,154.60995512496447,154.60995512496447,156.31925674999366,156.31925674999366,156.29426320898347,,,,,,,,,,,,,,,,,,,,,,,,,,,,,,,,,,,,,,,,,,,,,,,,,,,,,,,,,,,,,,,366288,001,2024-12-03_23h19.48.974,Test,2024.2.4,None,2024-12-03 23h19.57.492294 +0100,
9,150,30,34,None,20,20,0,,,,,,,,0,20,20,8,,,,,,,,,,,,,156.31925674999366,,,,,,,,,,,,,,,,,,,,,,,156.31436904199654,156.31925674999366,156.50876883399906,156.50876883399906,156.51330437499564,158.20938012498664,158.20938012498664,158.19424104201607,,,,,,,,,,,,,,,,,,,,,,,,,,,,,,,,,,,,,,,,,,,,,,,,,,,,,,,,,,,,,,,366288,001,2024-12-03_23h19.48.974,Test,2024.2.4,None,2024-12-03 23h19.57.492294 +0100,
19,150,90,11,None,21,21,0,,,,,,,,0,21,21,18,,,,,,,,,,,,,158.20938012498664,,,,,,,,,,,,,,,,,,,,,,,158.2041276670061,158.2135310000158,158.40991395898163,158.40991395898163,158.40991395898163,160.10800729197217,160.10800729197217,160.09442295896588,,,,,,,,,,,,,,,,,,,,,,,,,,,,,,,,,,,,,,,,,,,,,,,,,,,,,,,,,,,,,,,366288,001,2024-12-03_23h19.48.974,Test,2024.2.4,None,2024-12-03 23h19.57.492294 +0100,
27,150,150,47,None,22,22,0,,,,,,,,0,22,22,26,,,,,,,,,,,,,160.10800729197217,,,,,,,,,,,,,,,,,,,,,,,160.10328541696072,160.111923791992,160.30989179201424,160.30989179201424,160.30989179201424,162.00861454196274,162.00861454196274,161.99789929197868,,,,,,,,,,,,,,,,,,,,,,,,,,,,,,,,,,,,,,,,,,,,,,,,,,,,,,,,,,,,,,,366288,001,2024-12-03_23h19.48.974,Test,2024.2.4,None,2024-12-03 23h19.57.492294 +0100,
2,150,0,40,None,23,23,0,,,,,,,,0,23,23,1,,,,,,,,,,,,,162.00861454196274,,,,,,,,,,,,,,,,,,,,,,,162.00438233400928,162.00861454196274,162.210091291985,162.210091291985,162.19802129198797,163.90858412499074,163.90858412499074,163.89416587498272,,,,,,,,,,,,,,,,,,,,,,,,,,,,,,,,,,,,,,,,,,,,,,,,,,,,,,,,,,,,,,,366288,001,2024-12-03_23h19.48.974,Test,2024.2.4,None,2024-12-03 23h19.57.492294 +0100,
15,150,60,20,None,24,24,0,,,,,,,,0,24,24,14,,,,,,,,,,,,,163.90858412499074,,,,,,,,,,,,,,,,,,,,,,,163.90325425000628,163.91306279198034,164.10999079199973,164.10999079199973,164.10999079199973,165.80805616697762,165.80805616697762,165.79427645896794,,,,,,,,,,,,,,,,,,,,,,,,,,,,,,,,,,,,,,,,,,,,,,,,,,,,,,,,,,,,,,,366288,001,2024-12-03_23h19.48.974,Test,2024.2.4,None,2024-12-03 23h19.57.492294 +0100,
33,150,180,42,None,25,25,0,,,,,,,,0,25,25,32,,,,,,,,,,,,,165.80805616697762,,,,,,,,,,,,,,,,,,,,,,,165.80313420901075,165.81279687496135,166.01001166697824,166.01001166697824,166.01001166697824,167.70861154200975,167.70861154200975,167.6940205419669,,,,,,,,,,,,,,,,,,,,,,,,,,,,,,,,,,,,,,,,,,,,,,,,,,,,,,,,,,,,,,,366288,001,2024-12-03_23h19.48.974,Test,2024.2.4,None,2024-12-03 23h19.57.492294 +0100,
10,150,30,50,None,26,26,0,,,,,,,,0,26,26,9,,,,,,,,,,,,,167.70861154200975,,,,,,,,,,,,,,,,,,,,,,,167.70376691699494,167.7123571250122,167.9099070839584,167.9099070839584,167.9099070839584,169.6079522499931,169.6079522499931,169.5940089999931,,,,,,,,,,,,,,,,,,,,,,,,,,,,,,,,,,,,,,,,,,,,,,,,,,,,,,,,,,,,,,,366288,001,2024-12-03_23h19.48.974,Test,2024.2.4,None,2024-12-03 23h19.57.492294 +0100,
34,150,180,69,None,27,27,0,,,,,,,,0,27,27,33,,,,,,,,,,,,,169.6079522499931,,,,,,,,,,,,,,,,,,,,,,,169.60277595900698,169.61290612496668,169.80995199998142,169.80995199998142,169.80995199998142,171.50911375001306,171.50911375001306,171.4941445000004,,,,,,,,,,,,,,,,,,,,,,,,,,,,,,,,,,,,,,,,,,,,,,,,,,,,,,,,,,,,,,,366288,001,2024-12-03_23h19.48.974,Test,2024.2.4,None,2024-12-03 23h19.57.492294 +0100,
11,150,60,48,None,28,28,0,,,,,,,,0,28,28,10,,,,,,,,,,,,,171.50911375001306,,,,,,,,,,,,,,,,,,,,,,,171.50413508398924,171.5131240839837,171.70996449998347,171.70996449998347,171.70996449998347,173.40836187498644,173.40836187498644,173.39430362498388,,,,,,,,,,,,,,,,,,,,,,,,,,,,,,,,,,,,,,,,,,,,,,,,,,,,,,,,,,,,,,,366288,001,2024-12-03_23h19.48.974,Test,2024.2.4,None,2024-12-03 23h19.57.492294 +0100,
22,150,120,21,None,29,29,0,,,,,,,,0,29,29,21,,,,,,,,,,,,,173.40836187498644,,,,,,,,,,,,,,,,,,,,,,,173.40313758398406,173.41224462498212,173.60991054197075,173.60991054197075,173.60991054197075,175.3080142919789,175.3080142919789,175.29407449997962,,,,,,,,,,,,,,,,,,,,,,,,,,,,,,,,,,,,,,,,,,,,,,,,,,,,,,,,,,,,,,,366288,001,2024-12-03_23h19.48.974,Test,2024.2.4,None,2024-12-03 23h19.57.492294 +0100,
13,150,60,66,None,30,30,0,,,,,,,,0,30,30,12,,,,,,,,,,,,,175.3080142919789,,,,,,,,,,,,,,,,,,,,,,,175.3029465000145,175.31281362497248,175.50982404197566,175.50982404197566,175.50982404197566,177.20788249996258,177.20788249996258,177.1940546669648,,,,,,,,,,,,,,,,,,,,,,,,,,,,,,,,,,,,,,,,,,,,,,,,,,,,,,,,,,,,,,,366288,001,2024-12-03_23h19.48.974,Test,2024.2.4,None,2024-12-03 23h19.57.492294 +0100,
35,150,180,56,None,31,31,0,,,,,,,,0,31,31,34,,,,,,,,,,,,,177.20788249996258,,,,,,,,,,,,,,,,,,,,,,,177.20285920897732,177.2119416249916,177.41005916701397,177.41005916701397,177.41005916701397,179.10934541700408,179.10934541700408,179.09424354200019,,,,,,,,,,,,,,,,,,,,,,,,,,,,,,,,,,,,,,,,,,,,,,,,,,,,,,,,,,,,,,,366288,001,2024-12-03_23h19.48.974,Test,2024.2.4,None,2024-12-03 23h19.57.492294 +0100,
18,150,90,43,None,32,32,0,,,,,,,,0,32,32,17,,,,,,,,,,,,,179.10934541700408,,,,,,,,,,,,,,,,,,,,,,,179.1043606249732,179.1140229589655,179.30992879200494,179.30992879200494,179.30992879200494,181.00829204201,181.00829204201,180.9941452089697,,,,,,,,,,,,,,,,,,,,,,,,,,,,,,,,,,,,,,,,,,,,,,,,,,,,,,,,,,,,,,,366288,001,2024-12-03_23h19.48.974,Test,2024.2.4,None,2024-12-03 23h19.57.492294 +0100,
16,150,90,67,None,33,33,0,,,,,,,,0,33,33,15,,,,,,,,,,,,,181.00829204201,,,,,,,,,,,,,,,,,,,,,,,181.00327333400492,181.01257645897567,181.21004549995996,181.21004549995996,181.21004549995996,182.90809487499064,182.90809487499064,182.89400387497153,,,,,,,,,,,,,,,,,,,,,,,,,,,,,,,,,,,,,,,,,,,,,,,,,,,,,,,,,,,,,,,366288,001,2024-12-03_23h19.48.974,Test,2024.2.4,None,2024-12-03 23h19.57.492294 +0100,
20,150,90,39,None,34,34,0,,,,,,,,0,34,34,19,,,,,,,,,,,,,182.90809487499064,,,,,,,,,,,,,,,,,,,,,,,182.90311895898776,182.91302295896458,183.11010816699127,183.11010816699127,183.11010816699127,184.79949324997142,184.79949324997142,184.79408158396836,,,,,,,,,,,,,,,,,,,,,,,,,,,,,,,,,,,,,,,,,,,,,,,,,,,,,,,,,,,,,,,366288,001,2024-12-03_23h19.48.974,Test,2024.2.4,None,2024-12-03 23h19.57.492294 +0100,
,,,,,,,,,,,,,,,,,,,,,,,,,,,,,,,,,,,,,,,,,,,,,,,,,,,,,,,,,,,,,,184.79433379200054,184.80850674997782,184.80850674997782,200.05357070895843,space,15.239983375009615,None,,,,,,,,,,,,,,,,,,,,,,,,,,,,,,,,,,,,,,,,,,,,,,,,,,,,,,,,366288,001,2024-12-03_23h19.48.974,Test,2024.2.4,None,2024-12-03 23h19.57.492294 +0100,
21,150,120,52,None,0,0,0,False,right,0.916563667007722,None,,,,,,,,0,0,0,0,,,,,,,,,200.08999191696057,,,,,,,,,,,,,,,,,,,,,,,,,,,,,,,,,,,,,,200.07294283399824,200.08999191696057,201.0814043749706,202.0508849589969,202.0508849589969,202.0508849589969,202.9788174169953,right,0.916563667007722,None,,,,,,,,,,,,,,,,,,,,,,,,,,,,,,,,,,,,,,,,,,,,,,366288,001,2024-12-03_23h19.48.974,Test,2024.2.4,None,2024-12-03 23h19.57.492294 +0100,
55,150,90,54,None,1,1,0,True,left,1.2749183749547228,None,,,,,,,,0,1,1,1,,,,,,,,,203.11134104197845,,,,,,,,,,,,,,,,,,,,,,,,,,,,,,,,,,,,,,202.98807916697115,203.11134104197845,204.109939166985,204.97659237496555,204.97659237496555,204.97659237496555,206.2621344999643,left,1.2749183749547228,None,,,,,,,,,,,,,,,,,,,,,,,,,,,,,,,,,,,,,,,,,,,,,,366288,001,2024-12-03_23h19.48.974,Test,2024.2.4,None,2024-12-03 23h19.57.492294 +0100,
60,150,120,62,None,2,2,0,True,left,1.2672604590188712,None,,,,,,,,0,2,2,2,,,,,,,,,206.2784658339806,,,,,,,,,,,,,,,,,,,,,,,,,,,,,,,,,,,,,,206.2714567919611,206.2784658339806,207.27669187501306,208.25995608395897,208.25995608395897,208.25995608395897,209.53918337495998,left,1.2672604590188712,None,,,,,,,,,,,,,,,,,,,,,,,,,,,,,,,,,,,,,,,,,,,,,,366288,001,2024-12-03_23h19.48.974,Test,2024.2.4,None,2024-12-03 23h19.57.492294 +0100,
47,150,60,17,None,3,3,0,True,right,0.9266477079945616,None,,,,,,,,0,3,3,3,,,,,,,,,209.55188037495827,,,,,,,,,,,,,,,,,,,,,,,,,,,,,,,,,,,,,,209.54732658399735,209.55188037495827,210.54800629196689,211.53353916696506,211.53353916696506,211.53353916696506,212.46278433396947,right,0.9266477079945616,None,,,,,,,,,,,,,,,,,,,,,,,,,,,,,,,,,,,,,,,,,,,,,,366288,001,2024-12-03_23h19.48.974,Test,2024.2.4,None,2024-12-03 23h19.57.492294 +0100,
67,150,180,32,None,4,4,0,True,right,1.1180612500174902,None,,,,,,,,0,4,4,4,,,,,,,,,212.47750945901498,,,,,,,,,,,,,,,,,,,,,,,,,,,,,,,,,,,,,,212.4708994589746,212.47750945901498,213.47646366700064,214.4599540840136,214.4599540840136,214.4599540840136,215.58509620896075,right,1.1180612500174902,None,,,,,,,,,,,,,,,,,,,,,,,,,,,,,,,,,,,,,,,,,,,,,,366288,001,2024-12-03_23h19.48.974,Test,2024.2.4,None,2024-12-03 23h19.57.492294 +0100,
40,150,0,70,None,5,5,0,True,left,1.645133708952926,None,,,,,,,,0,5,5,5,,,,,,,,,215.6005385419703,,,,,,,,,,,,,,,,,,,,,,,,,,,,,,,,,,,,,,215.5943195419968,215.6005385419703,216.59859016700648,217.583259542007,217.583259542007,217.583259542007,219.2350375839742,left,1.645133708952926,None,,,,,,,,,,,,,,,,,,,,,,,,,,,,,,,,,,,,,,,,,,,,,,366288,001,2024-12-03_23h19.48.974,Test,2024.2.4,None,2024-12-03 23h19.57.492294 +0100,
44,150,30,33,None,6,6,0,True,left,1.3858446250087582,None,,,,,,,,0,6,6,6,,,,,,,,,219.25095874996623,,,,,,,,,,,,,,,,,,,,,,,,,,,,,,,,,,,,,,219.24450883397367,219.25095874996623,220.24854274996324,221.23374508396955,221.23374508396955,221.23374508396955,222.6287589169806,left,1.3858446250087582,None,,,,,,,,,,,,,,,,,,,,,,,,,,,,,,,,,,,,,,,,,,,,,,366288,001,2024-12-03_23h19.48.974,Test,2024.2.4,None,2024-12-03 23h19.57.492294 +0100,
53,150,90,9,None,7,7,0,True,left,1.6546236249851063,None,,,,,,,,0,7,7,7,,,,,,,,,222.64451120898593,,,,,,,,,,,,,,,,,,,,,,,,,,,,,,,,,,,,,,222.6385468749795,222.64451120898593,223.64318291697418,224.62680008396273,224.62680008396273,224.62680008396273,226.28568962501595,left,1.6546236249851063,None,,,,,,,,,,,,,,,,,,,,,,,,,,,,,,,,,,,,,,,,,,,,,,366288,001,2024-12-03_23h19.48.974,Test,2024.2.4,None,2024-12-03 23h19.57.492294 +0100,
2,150,0,40,None,8,8,0,False,right,0.7626684999559075,None,,,,,,,,0,8,8,8,,,,,,,,,226.2994024590007,,,,,,,,,,,,,,,,,,,,,,,,,,,,,,,,,,,,,,226.2936301669688,226.2994024590007,227.29353208397515,228.28343387501081,228.28343387501081,228.28343387501081,229.05161670898087,right,0.7626684999559075,None,,,,,,,,,,,,,,,,,,,,,,,,,,,,,,,,,,,,,,,,,,,,,,366288,001,2024-12-03_23h19.48.974,Test,2024.2.4,None,2024-12-03 23h19.57.492294 +0100,
12,150,60,2,None,9,9,0,False,left,1.09342575003393,None,,,,,,,,0,9,9,9,,,,,,,,,229.0663206249592,,,,,,,,,,,,,,,,,,,,,,,,,,,,,,,,,,,,,,229.06033199996455,229.0663206249592,230.06001341697993,231.05047470895806,231.05047470895806,231.05047470895806,232.1547406250029,left,1.09342575003393,None,,,,,,,,,,,,,,,,,,,,,,,,,,,,,,,,,,,,,,,,,,,,,,366288,001,2024-12-03_23h19.48.974,Test,2024.2.4,None,2024-12-03 23h19.57.492294 +0100,
9,150,30,34,None,10,10,0,False,right,0.8892878339975141,None,,,,,,,,0,10,10,10,,,,,,,,,232.1729344999767,,,,,,,,,,,,,,,,,,,,,,,,,,,,,,,,,,,,,,232.1681955420063,232.1729344999767,233.1655413339613,234.15177208400564,234.15177208400564,234.15177208400564,235.04529658396496,right,0.8892878339975141,None,,,,,,,,,,,,,,,,,,,,,,,,,,,,,,,,,,,,,,,,,,,,,,366288,001,2024-12-03_23h19.48.974,Test,2024.2.4,None,2024-12-03 23h19.57.492294 +0100,
30,150,150,13,None,11,11,0,False,right,1.300561290991027,None,,,,,,,,0,11,11,11,,,,,,,,,235.06210633396404,,,,,,,,,,,,,,,,,,,,,,,,,,,,,,,,,,,,,,235.0554543340113,235.06210633396404,236.05996437498834,237.04331379197538,237.04331379197538,237.04331379197538,238.35552870901302,right,1.300561290991027,None,,,,,,,,,,,,,,,,,,,,,,,,,,,,,,,,,,,,,,,,,,,,,,366288,001,2024-12-03_23h19.48.974,Test,2024.2.4,None,2024-12-03 23h19.57.492294 +0100,
34,150,180,69,None,12,12,0,False,right,0.982096207968425,None,,,,,,,,0,12,12,12,,,,,,,,,238.36812774999999,,,,,,,,,,,,,,,,,,,,,,,,,,,,,,,,,,,,,,238.36323195899604,238.36812774999999,239.36489733395865,240.35044624999864,240.35044624999864,240.35044624999864,241.33526575000724,right,0.982096207968425,None,,,,,,,,,,,,,,,,,,,,,,,,,,,,,,,,,,,,,,,,,,,,,,366288,001,2024-12-03_23h19.48.974,Test,2024.2.4,None,2024-12-03 23h19.57.492294 +0100,
24,150,120,5,None,13,13,0,False,left,2.043341042008251,None,,,,,,,,0,13,13,13,,,,,,,,,241.35127987497253,,,,,,,,,,,,,,,,,,,,,,,,,,,,,,,,,,,,,,241.34456341696205,241.35127987497253,242.34817870898405,243.33399458398344,243.33399458398344,243.33399458398344,245.38877099996898,left,2.043341042008251,None,,,,,,,,,,,,,,,,,,,,,,,,,,,,,,,,,,,,,,,,,,,,,,366288,001,2024-12-03_23h19.48.974,Test,2024.2.4,None,2024-12-03 23h19.57.492294 +0100,
5,150,0,14,None,14,14,0,False,left,1.8974734170478769,None,,,,,,,,0,14,14,14,,,,,,,,,245.4006542499992,,,,,,,,,,,,,,,,,,,,,,,,,,,,,,,,,,,,,,245.39591754198773,245.4006542499992,246.3986012089881,247.3837479169597,247.3837479169597,247.3837479169597,249.28563816699898,left,1.8974734170478769,None,,,,,,,,,,,,,,,,,,,,,,,,,,,,,,,,,,,,,,,,,,,,,,366288,001,2024-12-03_23h19.48.974,Test,2024.2.4,None,2024-12-03 23h19.57.492294 +0100,
7,150,30,46,None,15,15,0,False,right,1.1783253329922445,None,,,,,,,,0,15,15,15,,,,,,,,,249.3014264999656,,,,,,,,,,,,,,,,,,,,,,,,,,,,,,,,,,,,,,249.2948166669812,249.3014264999656,250.29856854199897,251.28346108400729,251.28346108400729,251.28346108400729,252.46830012497958,right,1.1783253329922445,None,,,,,,,,,,,,,,,,,,,,,,,,,,,,,,,,,,,,,,,,,,,,,,366288,001,2024-12-03_23h19.48.974,Test,2024.2.4,None,2024-12-03 23h19.57.492294 +0100,
29,150,150,4,None,16,16,0,False,right,0.9455539580085315,None,,,,,,,,0,16,16,16,,,,,,,,,252.48308920901036,,,,,,,,,,,,,,,,,,,,,,,,,,,,,,,,,,,,,,252.477059249999,252.48308920901036,253.47657545900438,254.46717158396496,254.46717158396496,254.46717158396496,255.41830979200313,right,0.9455539580085315,None,,,,,,,,,,,,,,,,,,,,,,,,,,,,,,,,,,,,,,,,,,,,,,366288,001,2024-12-03_23h19.48.974,Test,2024.2.4,None,2024-12-03 23h19.57.492294 +0100,
6,150,30,37,None,17,17,0,False,left,0.9031833749613725,None,,,,,,,,0,17,17,17,,,,,,,,,255.43223741697147,,,,,,,,,,,,,,,,,,,,,,,,,,,,,,,,,,,,,,255.426345209009,255.43223741697147,256.42660966695985,257.41667783400044,257.41667783400044,257.41667783400044,258.3289254999836,left,0.9031833749613725,None,,,,,,,,,,,,,,,,,,,,,,,,,,,,,,,,,,,,,,,,,,,,,,366288,001,2024-12-03_23h19.48.974,Test,2024.2.4,None,2024-12-03 23h19.57.492294 +0100,
45,150,30,35,None,18,18,0,True,left,1.200635000015609,None,,,,,,,,0,18,18,18,,,,,,,,,258.34516637498746,,,,,,,,,,,,,,,,,,,,,,,,,,,,,,,,,,,,,,258.3384559999686,258.34516637498746,259.34317329199985,260.32688012497965,260.32688012497965,260.32688012497965,261.53490824997425,left,1.200635000015609,None,,,,,,,,,,,,,,,,,,,,,,,,,,,,,,,,,,,,,,,,,,,,,,366288,001,2024-12-03_23h19.48.974,Test,2024.2.4,None,2024-12-03 23h19.57.492294 +0100,
11,150,60,48,None,19,19,0,False,right,1.2603987089823931,None,,,,,,,,0,19,19,19,,,,,,,,,261.54896070901304,,,,,,,,,,,,,,,,,,,,,,,,,,,,,,,,,,,,,,261.54332020896254,261.54896070901304,262.5430984169943,263.53386220900575,263.53386220900575,263.53386220900575,264.79992083396064,right,1.2603987089823931,None,,,,,,,,,,,,,,,,,,,,,,,,,,,,,,,,,,,,,,,,,,,,,,366288,001,2024-12-03_23h19.48.974,Test,2024.2.4,None,2024-12-03 23h19.57.492294 +0100,
13,150,60,66,None,20,20,0,False,right,0.7426357910153456,None,,,,,,,,0,20,20,20,,,,,,,,,264.81208100001095,,,,,,,,,,,,,,,,,,,,,,,,,,,,,,,,,,,,,,264.8055835000123,264.81208100001095,265.80984712496866,266.8009655419737,266.8009655419737,266.8009655419737,267.5458720839815,right,0.7426357910153456,None,,,,,,,,,,,,,,,,,,,,,,,,,,,,,,,,,,,,,,,,,,,,,,366288,001,2024-12-03_23h19.48.974,Test,2024.2.4,None,2024-12-03 23h19.57.492294 +0100,
63,150,150,38,None,21,21,0,True,left,2.5008700829930604,None,,,,,,,,0,21,21,21,,,,,,,,,267.5609611250111,,,,,,,,,,,,,,,,,,,,,,,,,,,,,,,,,,,,,,267.55476033396553,267.5609611250111,268.54883133398835,269.5432209169958,269.5432209169958,269.5432209169958,272.0558834169642,left,2.5008700829930604,None,,,,,,,,,,,,,,,,,,,,,,,,,,,,,,,,,,,,,,,,,,,,,,366288,001,2024-12-03_23h19.48.974,Test,2024.2.4,None,2024-12-03 23h19.57.492294 +0100,
69,150,180,24,None,22,22,0,True,left,1.976161124999635,None,,,,,,,,0,22,22,22,,,,,,,,,272.06888620898826,,,,,,,,,,,,,,,,,,,,,,,,,,,,,,,,,,,,,,272.064062541991,272.06888620898826,273.0649989589583,274.05076974997064,274.05076974997064,274.05076974997064,276.03030108398525,left,1.976161124999635,None,,,,,,,,,,,,,,,,,,,,,,,,,,,,,,,,,,,,,,,,,,,,,,366288,001,2024-12-03_23h19.48.974,Test,2024.2.4,None,2024-12-03 23h19.57.492294 +0100,
46,150,60,41,None,23,23,0,True,left,1.0268541250261478,None,,,,,,,,0,23,23,23,,,,,,,,,276.04610966698965,,,,,,,,,,,,,,,,,,,,,,,,,,,,,,,,,,,,,,276.0397091669729,276.04610966698965,277.04313599999296,278.0267695419607,278.0267695419607,278.0267695419607,279.06223158398643,left,1.0268541250261478,None,,,,,,,,,,,,,,,,,,,,,,,,,,,,,,,,,,,,,,,,,,,,,,366288,001,2024-12-03_23h19.48.974,Test,2024.2.4,None,2024-12-03 23h19.57.492294 +0100,
58,150,120,60,None,24,24,0,True,left,2.4779001669958234,None,,,,,,,,0,24,24,24,,,,,,,,,279.0789426669944,,,,,,,,,,,,,,,,,,,,,,,,,,,,,,,,,,,,,,279.07257874996867,279.0789426669944,280.0764758340083,281.06009395897854,281.06009395897854,281.06009395897854,283.54531929199584,left,2.4779001669958234,None,,,,,,,,,,,,,,,,,,,,,,,,,,,,,,,,,,,,,,,,,,,,,,366288,001,2024-12-03_23h19.48.974,Test,2024.2.4,None,2024-12-03 23h19.57.492294 +0100,
36,150,0,25,None,25,25,0,True,left,1.1119890420231968,None,,,,,,,,0,25,25,25,,,,,,,,,283.559782583965,,,,,,,,,,,,,,,,,,,,,,,,,,,,,,,,,,,,,,283.55389312497573,283.559782583965,284.54792758397525,285.5430519999936,285.5430519999936,285.5430519999936,286.6624784999876,left,1.1119890420231968,None,,,,,,,,,,,,,,,,,,,,,,,,,,,,,,,,,,,,,,,,,,,,,,366288,001,2024-12-03_23h19.48.974,Test,2024.2.4,None,2024-12-03 23h19.57.492294 +0100,
65,150,150,27,None,26,26,0,True,left,1.1100385419558734,None,,,,,,,,0,26,26,26,,,,,,,,,286.67788612499135,,,,,,,,,,,,,,,,,,,,,,,,,,,,,,,,,,,,,,286.67064191697864,286.67788612499135,287.676558792009,288.65995320898946,288.65995320898946,288.65995320898946,289.7786934169708,left,1.1100385419558734,None,,,,,,,,,,,,,,,,,,,,,,,,,,,,,,,,,,,,,,,,,,,,,,366288,001,2024-12-03_23h19.48.974,Test,2024.2.4,None,2024-12-03 23h19.57.492294 +0100,
59,150,120,28,None,27,27,0,True,left,1.035845333011821,None,,,,,,,,0,27,27,27,,,,,,,,,289.79475608398207,,,,,,,,,,,,,,,,,,,,,,,,,,,,,,,,,,,,,,289.7881560419919,289.79475608398207,290.7932025420014,291.77651695901295,291.77651695901295,291.77651695901295,292.81837499997346,left,1.035845333011821,None,,,,,,,,,,,,,,,,,,,,,,,,,,,,,,,,,,,,,,,,,,,,,,366288,001,2024-12-03_23h19.48.974,Test,2024.2.4,None,2024-12-03 23h19.57.492294 +0100,
22,150,120,21,None,28,28,0,False,left,1.1266460420447402,None,,,,,,,,0,28,28,28,,,,,,,,,292.8334704589797,,,,,,,,,,,,,,,,,,,,,,,,,,,,,,,,,,,,,,292.82743900001515,292.8334704589797,293.8265817500069,294.81699691701215,294.81699691701215,294.81699691701215,295.94632574997377,left,1.1266460420447402,None,,,,,,,,,,,,,,,,,,,,,,,,,,,,,,,,,,,,,,,,,,,,,,366288,001,2024-12-03_23h19.48.974,Test,2024.2.4,None,2024-12-03 23h19.57.492294 +0100,
27,150,150,47,None,29,29,0,False,left,1.1802756249671802,None,,,,,,,,0,29,29,29,,,,,,,,,295.96123166696634,,,,,,,,,,,,,,,,,,,,,,,,,,,,,,,,,,,,,,295.9546198750031,295.96123166696634,296.95999712496996,297.9433427089825,297.9433427089825,297.9433427089825,299.1298967920011,left,1.1802756249671802,None,,,,,,,,,,,,,,,,,,,,,,,,,,,,,,,,,,,,,,,,,,,,,,366288,001,2024-12-03_23h19.48.974,Test,2024.2.4,None,2024-12-03 23h19.57.492294 +0100,
10,150,30,50,None,30,30,0,False,left,1.2202645830111578,None,,,,,,,,0,30,30,30,,,,,,,,,299.14657220896333,,,,,,,,,,,,,,,,,,,,,,,,,,,,,,,,,,,,,,299.13938270899234,299.14657220896333,300.14329433400417,301.12679091701284,301.12679091701284,301.12679091701284,302.35157812497346,left,1.2202645830111578,None,,,,,,,,,,,,,,,,,,,,,,,,,,,,,,,,,,,,,,,,,,,,,,366288,001,2024-12-03_23h19.48.974,Test,2024.2.4,None,2024-12-03 23h19.57.492294 +0100,
52,150,90,10,None,31,31,0,True,left,0.9061120839905925,None,,,,,,,,0,31,31,31,,,,,,,,,302.36608891701326,,,,,,,,,,,,,,,,,,,,,,,,,,,,,,,,,,,,,,302.36006308399374,302.36608891701326,303.359883875004,304.3505165000097,304.3505165000097,304.3505165000097,305.26201487501385,left,0.9061120839905925,None,,,,,,,,,,,,,,,,,,,,,,,,,,,,,,,,,,,,,,,,,,,,,,366288,001,2024-12-03_23h19.48.974,Test,2024.2.4,None,2024-12-03 23h19.57.492294 +0100,
42,150,30,8,None,32,32,0,True,left,1.000665875035338,None,,,,,,,,0,32,32,32,,,,,,,,,305.2775834169588,,,,,,,,,,,,,,,,,,,,,,,,,,,,,,,,,,,,,,305.27122237498406,305.2775834169588,306.2765376669704,307.2601055839914,307.2601055839914,307.2601055839914,308.271650708979,left,1.000665875035338,None,,,,,,,,,,,,,,,,,,,,,,,,,,,,,,,,,,,,,,,,,,,,,,366288,001,2024-12-03_23h19.48.974,Test,2024.2.4,None,2024-12-03 23h19.57.492294 +0100,
41,150,30,44,None,33,33,0,True,left,1.217850790999364,None,,,,,,,,0,33,33,33,,,,,,,,,308.28409320896026,,,,,,,,,,,,,,,,,,,,,,,,,,,,,,,,,,,,,,308.27945754199754,308.28409320896026,309.2819220419624,310.26717262499733,310.26717262499733,310.26717262499733,311.4961082919617,left,1.217850790999364,None,,,,,,,,,,,,,,,,,,,,,,,,,,,,,,,,,,,,,,,,,,,,,,366288,001,2024-12-03_23h19.48.974,Test,2024.2.4,None,2024-12-03 23h19.57.492294 +0100,
15,150,60,20,None,34,34,0,False,left,1.3792008340242319,None,,,,,,,,0,34,34,34,,,,,,,,,311.5123549589771,,,,,,,,,,,,,,,,,,,,,,,,,,,,,,,,,,,,,,311.50560629199026,311.5123549589771,312.5099428339745,313.4932626669761,313.4932626669761,313.4932626669761,314.87924558401573,left,1.3792008340242319,None,,,,,,,,,,,,,,,,,,,,,,,,,,,,,,,,,,,,,,,,,,,,,,366288,001,2024-12-03_23h19.48.974,Test,2024.2.4,None,2024-12-03 23h19.57.492294 +0100,
62,150,150,59,None,35,35,0,True,left,2.0441804999718443,None,,,,,,,,0,35,35,35,,,,,,,,,314.8952400839771,,,,,,,,,,,,,,,,,,,,,,,,,,,,,,,,,,,,,,314.88908458396327,314.8952400839771,315.8932574999635,316.8766600419767,316.8766600419767,316.8766600419767,318.9288042919943,left,2.0441804999718443,None,,,,,,,,,,,,,,,,,,,,,,,,,,,,,,,,,,,,,,,,,,,,,,366288,001,2024-12-03_23h19.48.974,Test,2024.2.4,None,2024-12-03 23h19.57.492294 +0100,
28,150,150,61,None,36,36,0,False,left,1.0013359999866225,None,,,,,,,,0,36,36,36,,,,,,,,,318.9432628339855,,,,,,,,,,,,,,,,,,,,,,,,,,,,,,,,,,,,,,318.9370383750065,318.9432628339855,319.931245499989,320.9255345839774,320.9255345839774,320.9255345839774,321.92939083400415,left,1.0013359999866225,None,,,,,,,,,,,,,,,,,,,,,,,,,,,,,,,,,,,,,,,,,,,,,,366288,001,2024-12-03_23h19.48.974,Test,2024.2.4,None,2024-12-03 23h19.57.492294 +0100,
56,150,120,65,None,37,37,0,True,left,1.2025798749527894,None,,,,,,,,0,37,37,37,,,,,,,,,321.94440370897064,,,,,,,,,,,,,,,,,,,,,,,,,,,,,,,,,,,,,,321.93832437496167,321.94440370897064,322.94336741697043,323.92672620899975,323.92672620899975,323.92672620899975,325.13519841700327,left,1.2025798749527894,None,,,,,,,,,,,,,,,,,,,,,,,,,,,,,,,,,,,,,,,,,,,,,,366288,001,2024-12-03_23h19.48.974,Test,2024.2.4,None,2024-12-03 23h19.57.492294 +0100,
66,150,180,18,None,38,38,0,True,left,0.9653407500009052,None,,,,,,,,0,38,38,38,,,,,,,,,325.15002362499945,,,,,,,,,,,,,,,,,,,,,,,,,,,,,,,,,,,,,,325.14403029199457,325.15002362499945,326.14792754198425,327.13315099995816,327.13315099995816,327.13315099995816,328.10176670900546,left,0.9653407500009052,None,,,,,,,,,,,,,,,,,,,,,,,,,,,,,,,,,,,,,,,,,,,,,,366288,001,2024-12-03_23h19.48.974,Test,2024.2.4,None,2024-12-03 23h19.57.492294 +0100,
31,150,180,3,None,39,39,0,False,left,2.771817500004545,None,,,,,,,,0,39,39,39,,,,,,,,,328.1150442499784,,,,,,,,,,,,,,,,,,,,,,,,,,,,,,,,,,,,,,328.10939904197585,328.1150442499784,329.1099427919835,330.1006062499946,330.1006062499946,330.1006062499946,332.87921179196564,left,2.771817500004545,None,,,,,,,,,,,,,,,,,,,,,,,,,,,,,,,,,,,,,,,,,,,,,,366288,001,2024-12-03_23h19.48.974,Test,2024.2.4,None,2024-12-03 23h19.57.492294 +0100,
26,150,150,58,None,40,40,0,False,left,0.8298432499868795,None,,,,,,,,0,40,40,40,,,,,,,,,332.8962512919679,,,,,,,,,,,,,,,,,,,,,,,,,,,,,,,,,,,,,,332.8899314170121,332.8962512919679,333.89332604198717,334.87630000000354,334.87630000000354,334.87630000000354,335.71238554199226,left,0.8298432499868795,None,,,,,,,,,,,,,,,,,,,,,,,,,,,,,,,,,,,,,,,,,,,,,,366288,001,2024-12-03_23h19.48.974,Test,2024.2.4,None,2024-12-03 23h19.57.492294 +0100,
14,150,60,30,None,41,41,0,False,left,1.735978124954272,None,,,,,,,,0,41,41,41,,,,,,,,,335.72776208398864,,,,,,,,,,,,,,,,,,,,,,,,,,,,,,,,,,,,,,335.7215116249863,335.72776208398864,336.72662495897384,337.70997716696,337.70997716696,337.70997716696,339.45177029201295,left,1.735978124954272,None,,,,,,,,,,,,,,,,,,,,,,,,,,,,,,,,,,,,,,,,,,,,,,366288,001,2024-12-03_23h19.48.974,Test,2024.2.4,None,2024-12-03 23h19.57.492294 +0100,
32,150,180,23,None,42,42,0,False,left,2.100631917011924,None,,,,,,,,0,42,42,42,,,,,,,,,339.467568833963,,,,,,,,,,,,,,,,,,,,,,,,,,,,,,,,,,,,,,339.46111654199194,339.467568833963,340.46533720899606,341.45041670900537,341.45041670900537,341.45041670900537,343.56206141697476,left,2.100631917011924,None,,,,,,,,,,,,,,,,,,,,,,,,,,,,,,,,,,,,,,,,,,,,,,366288,001,2024-12-03_23h19.48.974,Test,2024.2.4,None,2024-12-03 23h19.57.492294 +0100,
35,150,180,56,None,43,43,0,False,right,2.1868313340237364,None,,,,,,,,0,43,43,43,,,,,,,,,343.5772870419896,,,,,,,,,,,,,,,,,,,,,,,,,,,,,,,,,,,,,,343.57111283397535,343.5772870419896,344.565407334012,345.56002291699406,345.56002291699406,345.56002291699406,347.75149808399146,right,2.1868313340237364,None,,,,,,,,,,,,,,,,,,,,,,,,,,,,,,,,,,,,,,,,,,,,,,366288,001,2024-12-03_23h19.48.974,Test,2024.2.4,None,2024-12-03 23h19.57.492294 +0100,
3,150,0,12,None,44,44,0,False,left,1.4872958330088295,None,,,,,,,,0,44,44,44,,,,,,,,,347.7656356249936,,,,,,,,,,,,,,,,,,,,,,,,,,,,,,,,,,,,,,347.75978074996965,347.7656356249936,348.7600304589723,349.7504822089686,349.7504822089686,349.7504822089686,351.245477458986,left,1.4872958330088295,None,,,,,,,,,,,,,,,,,,,,,,,,,,,,,,,,,,,,,,,,,,,,,,366288,001,2024-12-03_23h19.48.974,Test,2024.2.4,None,2024-12-03 23h19.57.492294 +0100,
49,150,60,63,None,45,45,0,True,right,0.8839889169903472,None,,,,,,,,0,45,45,45,,,,,,,,,351.2599754999974,,,,,,,,,,,,,,,,,,,,,,,,,,,,,,,,,,,,,,351.2541477920022,351.2599754999974,352.2487794170156,353.2434269589721,353.2434269589721,353.2434269589721,354.1383883339586,right,0.8839889169903472,None,,,,,,,,,,,,,,,,,,,,,,,,,,,,,,,,,,,,,,,,,,,,,,366288,001,2024-12-03_23h19.48.974,Test,2024.2.4,None,2024-12-03 23h19.57.492294 +0100,
1,150,0,55,None,46,46,0,False,left,2.777256750036031,None,,,,,,,,0,46,46,46,,,,,,,,,354.1501840839628,,,,,,,,,,,,,,,,,,,,,,,,,,,,,,,,,,,,,,354.14556691696635,354.1501840839628,355.14789891697,356.1332734170137,356.1332734170137,356.1332734170137,358.9131669590133,left,2.777256750036031,None,,,,,,,,,,,,,,,,,,,,,,,,,,,,,,,,,,,,,,,,,,,,,,366288,001,2024-12-03_23h19.48.974,Test,2024.2.4,None,2024-12-03 23h19.57.492294 +0100,
4,150,0,36,None,47,47,0,False,left,1.3769473329884931,None,,,,,,,,0,47,47,47,,,,,,,,,358.92703174997587,,,,,,,,,,,,,,,,,,,,,,,,,,,,,,,,,,,,,,358.9205334589933,358.92703174997587,359.9147657089634,360.91009516699705,360.91009516699705,360.91009516699705,362.2954024169594,left,1.3769473329884931,None,,,,,,,,,,,,,,,,,,,,,,,,,,,,,,,,,,,,,,,,,,,,,,366288,001,2024-12-03_23h19.48.974,Test,2024.2.4,None,2024-12-03 23h19.57.492294 +0100,
51,150,90,57,None,48,48,0,True,right,0.9674532919889316,None,,,,,,,,0,48,48,48,,,,,,,,,362.31096366699785,,,,,,,,,,,,,,,,,,,,,,,,,,,,,,,,,,,,,,362.30456304200925,362.31096366699785,363.2980891249608,364.29329299996607,364.29329299996607,364.29329299996607,365.271893083991,right,0.9674532919889316,None,,,,,,,,,,,,,,,,,,,,,,,,,,,,,,,,,,,,,,,,,,,,,,366288,001,2024-12-03_23h19.48.974,Test,2024.2.4,None,2024-12-03 23h19.57.492294 +0100,
50,150,60,19,None,49,49,0,True,left,1.1424902920261957,None,,,,,,,,0,49,49,49,,,,,,,,,365.28426616697107,,,,,,,,,,,,,,,,,,,,,,,,,,,,,,,,,,,,,,365.27943983400473,365.28426616697107,366.28194587497273,367.26801787497243,367.26801787497243,367.26801787497243,368.41317041701404,left,1.1424902920261957,None,,,,,,,,,,,,,,,,,,,,,,,,,,,,,,,,,,,,,,,,,,,,,,366288,001,2024-12-03_23h19.48.974,Test,2024.2.4,None,2024-12-03 23h19.57.492294 +0100,
70,150,180,68,None,50,50,0,True,left,5.726210125023499,None,,,,,,,,0,50,50,50,,,,,,,,,368.42861187498784,,,,,,,,,,,,,,,,,,,,,,,,,,,,,,,,,,,,,,368.4220061249798,368.42861187498784,369.42664354201406,370.4099869590136,370.4099869590136,370.4099869590136,376.1448887499864,left,5.726210125023499,None,373.3989475420094,373.3989475420094,373.40910166699905,,,,,,,,,,,,,,,,,,,,,,,,,,,,,,,,,,,,,,,,,,,366288,001,2024-12-03_23h19.48.974,Test,2024.2.4,None,2024-12-03 23h19.57.492294 +0100,
39,150,0,31,None,51,51,0,True,left,1.0587375419563614,None,,,,,,,,0,51,51,51,,,,,,,,,376.15854475001106,,,,,,,,,,,,,,,,,,,,,,,,,,,,,,,,,,,,,,376.1522184999776,376.15854475001106,377.14799841697095,378.1418264170061,378.1418264170061,378.1418264170061,379.2279910839861,left,1.0587375419563614,None,,,,,,,,,,,,,,,,,,,,,,,,,,,,,,,,,,,,,,,,,,,,,,366288,001,2024-12-03_23h19.48.974,Test,2024.2.4,None,2024-12-03 23h19.57.492294 +0100,
61,150,150,22,None,52,52,0,True,right,2.0864117500022985,None,,,,,,,,0,52,52,52,,,,,,,,,379.2423539169831,,,,,,,,,,,,,,,,,,,,,,,,,,,,,,,,,,,,,,379.2367675419664,379.2423539169831,380.23194437497295,381.2266214590054,381.2266214590054,381.2266214590054,383.3181849999819,right,2.0864117500022985,None,,,,,,,,,,,,,,,,,,,,,,,,,,,,,,,,,,,,,,,,,,,,,,366288,001,2024-12-03_23h19.48.974,Test,2024.2.4,None,2024-12-03 23h19.57.492294 +0100,
38,150,0,29,None,53,53,0,True,left,1.055651000002399,None,,,,,,,,0,53,53,53,,,,,,,,,383.33344858395867,,,,,,,,,,,,,,,,,,,,,,,,,,,,,,,,,,,,,,383.3272234169999,383.33344858395867,384.3316736249835,385.3172661669669,385.3172661669669,385.3172661669669,386.37860479200026,left,1.055651000002399,None,,,,,,,,,,,,,,,,,,,,,,,,,,,,,,,,,,,,,,,,,,,,,,366288,001,2024-12-03_23h19.48.974,Test,2024.2.4,None,2024-12-03 23h19.57.492294 +0100,
54,150,90,26,None,54,54,0,True,left,2.1109146249946207,None,,,,,,,,0,54,54,54,,,,,,,,,386.39453641697764,,,,,,,,,,,,,,,,,,,,,,,,,,,,,,,,,,,,,,386.387649375014,386.39453641697764,387.3932707919739,388.3766100839712,388.3766100839712,388.3766100839712,390.4955747500062,left,2.1109146249946207,None,,,,,,,,,,,,,,,,,,,,,,,,,,,,,,,,,,,,,,,,,,,,,,366288,001,2024-12-03_23h19.48.974,Test,2024.2.4,None,2024-12-03 23h19.57.492294 +0100,
48,150,60,49,None,55,55,0,True,right,0.7031015409738757,None,,,,,,,,0,55,55,55,,,,,,,,,390.5119994999841,,,,,,,,,,,,,,,,,,,,,,,,,,,,,,,,,,,,,,390.50563283398515,390.5119994999841,391.5099801669712,392.49332087498624,392.49332087498624,392.49332087498624,393.2018424170092,right,0.7031015409738757,None,,,,,,,,,,,,,,,,,,,,,,,,,,,,,,,,,,,,,,,,,,,,,,366288,001,2024-12-03_23h19.48.974,Test,2024.2.4,None,2024-12-03 23h19.57.492294 +0100,
16,150,90,67,None,56,56,0,False,left,1.3108212500228547,None,,,,,,,,0,56,56,56,,,,,,,,,393.21644891699543,,,,,,,,,,,,,,,,,,,,,,,,,,,,,,,,,,,,,,393.21052529197186,393.21644891699543,394.209897624969,395.200172959012,395.200172959012,395.200172959012,396.51812908396823,left,1.3108212500228547,None,,,,,,,,,,,,,,,,,,,,,,,,,,,,,,,,,,,,,,,,,,,,,,366288,001,2024-12-03_23h19.48.974,Test,2024.2.4,None,2024-12-03 23h19.57.492294 +0100,
20,150,90,39,None,57,57,0,False,left,0.9174134999630041,None,,,,,,,,0,57,57,57,,,,,,,,,396.53331662499113,,,,,,,,,,,,,,,,,,,,,,,,,,,,,,,,,,,,,,396.5270228339941,396.53331662499113,397.5312942920136,398.5166017499869,398.5166017499869,398.5166017499869,399.44543129199883,left,0.9174134999630041,None,,,,,,,,,,,,,,,,,,,,,,,,,,,,,,,,,,,,,,,,,,,,,,366288,001,2024-12-03_23h19.48.974,Test,2024.2.4,None,2024-12-03 23h19.57.492294 +0100,
19,150,90,11,None,58,58,0,False,left,2.3215536670177244,None,,,,,,,,0,58,58,58,,,,,,,,,399.4601273749722,,,,,,,,,,,,,,,,,,,,,,,,,,,,,,,,,,,,,,399.453369750001,399.4601273749722,400.4483237499953,401.44336983398534,401.44336983398534,401.44336983398534,403.7683769589639,left,2.3215536670177244,None,,,,,,,,,,,,,,,,,,,,,,,,,,,,,,,,,,,,,,,,,,,,,,366288,001,2024-12-03_23h19.48.974,Test,2024.2.4,None,2024-12-03 23h19.57.492294 +0100,
25,150,120,45,None,59,59,0,False,left,0.9852700830087997,None,,,,,,,,0,59,59,59,,,,,,,,,403.7832217089599,,,,,,,,,,,,,,,,,,,,,,,,,,,,,,,,,,,,,,403.77747004199773,403.7832217089599,404.781353666971,405.7670684590121,405.7670684590121,405.7670684590121,406.7621484589763,left,0.9852700830087997,None,,,,,,,,,,,,,,,,,,,,,,,,,,,,,,,,,,,,,,,,,,,,,,366288,001,2024-12-03_23h19.48.974,Test,2024.2.4,None,2024-12-03 23h19.57.492294 +0100,
68,150,180,7,None,60,60,0,True,right,1.5942527909646742,None,,,,,,,,0,60,60,60,,,,,,,,,406.77791125001386,,,,,,,,,,,,,,,,,,,,,,,,,,,,,,,,,,,,,,406.77135241701035,406.77791125001386,407.7765407919651,408.76018195896177,408.76018195896177,408.76018195896177,410.36260512500303,right,1.5942527909646742,None,,,,,,,,,,,,,,,,,,,,,,,,,,,,,,,,,,,,,,,,,,,,,,366288,001,2024-12-03_23h19.48.974,Test,2024.2.4,None,2024-12-03 23h19.57.492294 +0100,
33,150,180,42,None,61,61,0,False,left,1.4173225419945084,None,,,,,,,,0,61,61,61,,,,,,,,,410.3778050839901,,,,,,,,,,,,,,,,,,,,,,,,,,,,,,,,,,,,,,410.3712786670076,410.3778050839901,411.3766454589786,412.3600792919751,412.3600792919751,412.3600792919751,413.78853970899945,left,1.4173225419945084,None,,,,,,,,,,,,,,,,,,,,,,,,,,,,,,,,,,,,,,,,,,,,,,366288,001,2024-12-03_23h19.48.974,Test,2024.2.4,None,2024-12-03 23h19.57.492294 +0100,
23,150,120,51,None,62,62,0,False,left,1.0330940000130795,None,,,,,,,,0,62,62,62,,,,,,,,,413.8009884170024,,,,,,,,,,,,,,,,,,,,,,,,,,,,,,,,,,,,,,413.79585495899664,413.8009884170024,414.7980871250038,415.7839997920091,415.7839997920091,415.7839997920091,416.8197934170021,left,1.0330940000130795,None,,,,,,,,,,,,,,,,,,,,,,,,,,,,,,,,,,,,,,,,,,,,,,366288,001,2024-12-03_23h19.48.974,Test,2024.2.4,None,2024-12-03 23h19.57.492294 +0100,
8,150,30,53,None,63,63,0,False,left,0.7871237919898704,None,,,,,,,,0,63,63,63,,,,,,,,,416.8340201249812,,,,,,,,,,,,,,,,,,,,,,,,,,,,,,,,,,,,,,416.8280822499655,416.8340201249812,417.8321042499738,418.8165678749792,418.8165678749792,418.8165678749792,419.6124763339758,left,0.7871237919898704,None,,,,,,,,,,,,,,,,,,,,,,,,,,,,,,,,,,,,,,,,,,,,,,366288,001,2024-12-03_23h19.48.974,Test,2024.2.4,None,2024-12-03 23h19.57.492294 +0100,
17,150,90,15,None,64,64,0,False,left,1.5232781660160981,None,,,,,,,,0,64,64,64,,,,,,,,,419.62882366700796,,,,,,,,,,,,,,,,,,,,,,,,,,,,,,,,,,,,,,419.6218074169592,419.62882366700796,420.62662116700085,421.6100346670137,421.6100346670137,421.6100346670137,423.1439169169753,left,1.5232781660160981,None,,,,,,,,,,,,,,,,,,,,,,,,,,,,,,,,,,,,,,,,,,,,,,366288,001,2024-12-03_23h19.48.974,Test,2024.2.4,None,2024-12-03 23h19.57.492294 +0100,
18,150,90,43,None,65,65,0,False,left,1.2553713340312243,None,,,,,,,,0,65,65,65,,,,,,,,,423.15627883397974,,,,,,,,,,,,,,,,,,,,,,,,,,,,,,,,,,,,,,423.151858416968,423.15627883397974,424.14881104195956,425.13455650000833,425.13455650000833,425.13455650000833,426.39546054200036,left,1.2553713340312243,None,,,,,,,,,,,,,,,,,,,,,,,,,,,,,,,,,,,,,,,,,,,,,,366288,001,2024-12-03_23h19.48.974,Test,2024.2.4,None,2024-12-03 23h19.57.492294 +0100,
43,150,30,16,None,66,66,0,True,left,3.80491633299971,None,,,,,,,,0,66,66,66,,,,,,,,,426.41141204198357,,,,,,,,,,,,,,,,,,,,,,,,,,,,,,,,,,,,,,426.4047832089709,426.41141204198357,427.40978579199873,428.3934472919791,428.3934472919791,428.3934472919791,432.20034300000407,left,3.80491633299971,None,431.3825536670047,431.3825536670047,431.39336641697446,,,,,,,,,,,,,,,,,,,,,,,,,,,,,,,,,,,,,,,,,,,366288,001,2024-12-03_23h19.48.974,Test,2024.2.4,None,2024-12-03 23h19.57.492294 +0100,
57,150,120,1,None,67,67,0,True,right,0.8104976660106331,None,,,,,,,,0,67,67,67,,,,,,,,,432.21226066700183,,,,,,,,,,,,,,,,,,,,,,,,,,,,,,,,,,,,,,432.206672374974,432.21226066700183,433.20997408399126,434.2005604169681,434.2005604169681,434.2005604169681,435.01826695899945,right,0.8104976660106331,None,,,,,,,,,,,,,,,,,,,,,,,,,,,,,,,,,,,,,,,,,,,,,,366288,001,2024-12-03_23h19.48.974,Test,2024.2.4,None,2024-12-03 23h19.57.492294 +0100,
64,150,150,6,None,68,68,0,True,left,1.2624411670258269,None,,,,,,,,0,68,68,68,,,,,,,,,435.03345041698776,,,,,,,,,,,,,,,,,,,,,,,,,,,,,,,,,,,,,,435.0274607089814,435.03345041698776,436.0316362089943,437.016812167014,437.016812167014,437.016812167014,438.2852829999756,left,1.2624411670258269,None,,,,,,,,,,,,,,,,,,,,,,,,,,,,,,,,,,,,,,,,,,,,,,366288,001,2024-12-03_23h19.48.974,Test,2024.2.4,None,2024-12-03 23h19.57.492294 +0100,
37,150,0,64,None,69,69,0,True,left,2.9604610420065,None,,,,,,,,0,69,69,69,,,,,,,,,438.3014218749595,,,,,,,,,,,,,,,,,,,,,,,,,,,,,,,,,,,,,,438.29428016697057,438.3014218749595,439.29797574999975,440.2837039169972,440.2837039169972,440.2837039169972,443.25597779196687,left,2.9604610420065,None,,,,,,,,,,,,,,,,,,,,,,,,,,,,,,,,,,,,,,,,,,,,,,366288,001,2024-12-03_23h19.48.974,Test,2024.2.4,None,2024-12-03 23h19.57.492294 +0100,
,,,,,,,,,,,,,,,,,,,,,,,,,,,,,,,,,,,,,,,,,,,,,,,,,,,,,,,,,,,,,,,,,,,,,,,,,,,,,,,,,,443.25626387499506,443.2636882920051,443.2636882920051,451.05117820895975,space,7.783548791951034,None,,,,,,,,,,,,,,,,,,,,,,,,,,,,,,,,,,,,366288,001,2024-12-03_23h19.48.974,Test,2024.2.4,None,2024-12-03 23h19.57.492294 +0100,
31,150,180,3,None,0,0,0,,,,,,,,,,,,,,,,0,0,0,30,,,,,451.08435012499103,,,,,,,,,,,,,,,,,,,,,,,,,,,,,,,,,,,,,,,,,,,,,,,,,,,,,,,,,,451.07430929195834,451.08435012499103,451.2505049169995,451.2505049169995,451.2819046250079,452.9596305419691,452.9596305419691,452.94426304200897,,,,,,,,,,,,,,,,,,,,,,,,,,,,366288,001,2024-12-03_23h19.48.974,Test,2024.2.4,None,2024-12-03 23h19.57.492294 +0100,
29,150,150,4,None,1,1,0,,,,,,,,,,,,,,,,0,1,1,28,,,,,452.9596305419691,,,,,,,,,,,,,,,,,,,,,,,,,,,,,,,,,,,,,,,,,,,,,,,,,,,,,,,,,,452.9541578339995,452.9596305419691,453.1504742089892,453.1504742089892,453.1504742089892,454.8583933750051,454.8583933750051,454.8440607090015,,,,,,,,,,,,,,,,,,,,,,,,,,,,366288,001,2024-12-03_23h19.48.974,Test,2024.2.4,None,2024-12-03 23h19.57.492294 +0100,
11,150,60,48,None,2,2,0,,,,,,,,,,,,,,,,0,2,2,10,,,,,454.8583933750051,,,,,,,,,,,,,,,,,,,,,,,,,,,,,,,,,,,,,,,,,,,,,,,,,,,,,,,,,,454.8529155419674,454.8583933750051,455.05005149997305,455.05005149997305,455.05005149997305,456.74658941698726,456.74658941698726,456.7334063749877,,,,,,,,,,,,,,,,,,,,,,,,,,,,366288,001,2024-12-03_23h19.48.974,Test,2024.2.4,None,2024-12-03 23h19.57.492294 +0100,
10,150,30,50,None,3,3,0,,,,,,,,,,,,,,,,0,3,3,9,,,,,456.74658941698726,,,,,,,,,,,,,,,,,,,,,,,,,,,,,,,,,,,,,,,,,,,,,,,,,,,,,,,,,,456.74225991696585,456.75988933397457,456.9507759590051,456.9507759590051,456.9507759590051,458.64811370900134,458.64811370900134,458.6339648750145,,,,,,,,,,,,,,,,,,,,,,,,,,,,366288,001,2024-12-03_23h19.48.974,Test,2024.2.4,None,2024-12-03 23h19.57.492294 +0100,
2,150,0,40,None,4,4,0,,,,,,,,,,,,,,,,0,4,4,1,,,,,458.64811370900134,,,,,,,,,,,,,,,,,,,,,,,,,,,,,,,,,,,,,,,,,,,,,,,,,,,,,,,,,,458.64335066697095,458.65985649998765,458.8501902919961,458.8501902919961,458.8501902919961,460.54678512498504,460.54678512498504,460.53358250000747,,,,,,,,,,,,,,,,,,,,,,,,,,,,366288,001,2024-12-03_23h19.48.974,Test,2024.2.4,None,2024-12-03 23h19.57.492294 +0100,
1,150,0,55,None,5,5,0,,,,,,,,,,,,,,,,0,5,5,0,,,,,460.54678512498504,,,,,,,,,,,,,,,,,,,,,,,,,,,,,,,,,,,,,,,,,,,,,,,,,,,,,,,,,,460.5421651249635,460.55989670899,460.74984408396995,460.74984408396995,460.74984408396995,462.44695854198653,462.44695854198653,462.4331900419784,,,,,,,,,,,,,,,,,,,,,,,,,,,,366288,001,2024-12-03_23h19.48.974,Test,2024.2.4,None,2024-12-03 23h19.57.492294 +0100,
4,150,0,36,None,6,6,0,,,,,,,,,,,,,,,,0,6,6,3,,,,,462.44695854198653,,,,,,,,,,,,,,,,,,,,,,,,,,,,,,,,,,,,,,,,,,,,,,,,,,,,,,,,,,462.44191712496104,462.4599822500022,462.6498977919691,462.6498977919691,462.6498977919691,464.34844137501204,464.34844137501204,464.33392645895947,,,,,,,,,,,,,,,,,,,,,,,,,,,,366288,001,2024-12-03_23h19.48.974,Test,2024.2.4,None,2024-12-03 23h19.57.492294 +0100,
27,150,150,47,None,7,7,0,,,,,,,,,,,,,,,,0,7,7,26,,,,,464.34844137501204,,,,,,,,,,,,,,,,,,,,,,,,,,,,,,,,,,,,,,,,,,,,,,,,,,,,,,,,,,464.34358033398166,464.36005737498635,464.5497618339723,464.5497618339723,464.5497618339723,466.2596219999832,466.2596219999832,466.2443554169731,,,,,,,,,,,,,,,,,,,,,,,,,,,,366288,001,2024-12-03_23h19.48.974,Test,2024.2.4,None,2024-12-03 23h19.57.492294 +0100,
9,150,30,34,None,8,8,0,,,,,,,,,,,,,,,,0,8,8,8,,,,,466.2596219999832,,,,,,,,,,,,,,,,,,,,,,,,,,,,,,,,,,,,,,,,,,,,,,,,,,,,,,,,,,466.25381879199995,466.2596219999832,466.44987083401065,466.44987083401065,466.44987083401065,468.1480333340005,468.1480333340005,468.13381654198747,,,,,,,,,,,,,,,,,,,,,,,,,,,,366288,001,2024-12-03_23h19.48.974,Test,2024.2.4,None,2024-12-03 23h19.57.492294 +0100,
8,150,30,53,None,9,9,0,,,,,,,,,,,,,,,,0,9,9,7,,,,,468.1480333340005,,,,,,,,,,,,,,,,,,,,,,,,,,,,,,,,,,,,,,,,,,,,,,,,,,,,,,,,,,468.14302870898973,468.15976166696055,468.349977875012,468.349977875012,468.349977875012,470.0459202089696,470.0459202089696,470.03374633396743,,,,,,,,,,,,,,,,,,,,,,,,,,,,366288,001,2024-12-03_23h19.48.974,Test,2024.2.4,None,2024-12-03 23h19.57.492294 +0100,
34,150,180,69,None,10,10,0,,,,,,,,,,,,,,,,0,10,10,33,,,,,470.0459202089696,,,,,,,,,,,,,,,,,,,,,,,,,,,,,,,,,,,,,,,,,,,,,,,,,,,,,,,,,,470.04145441699075,470.0598743339651,470.2504568339791,470.2504568339791,470.2504568339791,471.9458362919977,471.9458362919977,471.9338371249614,,,,,,,,,,,,,,,,,,,,,,,,,,,,366288,001,2024-12-03_23h19.48.974,Test,2024.2.4,None,2024-12-03 23h19.57.492294 +0100,
35,150,180,56,None,11,11,0,,,,,,,,,,,,,,,,0,11,11,34,,,,,471.9458362919977,,,,,,,,,,,,,,,,,,,,,,,,,,,,,,,,,,,,,,,,,,,,,,,,,,,,,,,,,,471.941835250007,471.9601885419688,472.1496658339747,472.1496658339747,472.1496658339747,473.8472936669714,473.8472936669714,473.8337085839594,,,,,,,,,,,,,,,,,,,,,,,,,,,,366288,001,2024-12-03_23h19.48.974,Test,2024.2.4,None,2024-12-03 23h19.57.492294 +0100,
24,150,120,5,None,12,12,0,,,,,,,,,,,,,,,,0,12,12,23,,,,,473.8472936669714,,,,,,,,,,,,,,,,,,,,,,,,,,,,,,,,,,,,,,,,,,,,,,,,,,,,,,,,,,473.8426561249653,473.8598282089806,474.0497711249627,474.0497711249627,474.0497711249627,475.758473749971,475.758473749971,475.74416254198877,,,,,,,,,,,,,,,,,,,,,,,,,,,,366288,001,2024-12-03_23h19.48.974,Test,2024.2.4,None,2024-12-03 23h19.57.492294 +0100,
12,150,60,2,None,13,13,0,,,,,,,,,,,,,,,,0,13,13,11,,,,,475.758473749971,,,,,,,,,,,,,,,,,,,,,,,,,,,,,,,,,,,,,,,,,,,,,,,,,,,,,,,,,,475.75299820897635,475.758473749971,475.9498591669835,475.9498591669835,475.9498591669835,477.6464745000121,477.6464745000121,477.6333258749801,,,,,,,,,,,,,,,,,,,,,,,,,,,,366288,001,2024-12-03_23h19.48.974,Test,2024.2.4,None,2024-12-03 23h19.57.492294 +0100,
13,150,60,66,None,14,14,0,,,,,,,,,,,,,,,,0,14,14,12,,,,,477.6464745000121,,,,,,,,,,,,,,,,,,,,,,,,,,,,,,,,,,,,,,,,,,,,,,,,,,,,,,,,,,477.64212691696594,477.6599939999869,477.8504523750162,477.8504523750162,477.8504523750162,479.5484019999858,479.5484019999858,479.5339042089763,,,,,,,,,,,,,,,,,,,,,,,,,,,,366288,001,2024-12-03_23h19.48.974,Test,2024.2.4,None,2024-12-03 23h19.57.492294 +0100,
28,150,150,61,None,15,15,0,,,,,,,,,,,,,,,,0,15,15,27,,,,,479.5484019999858,,,,,,,,,,,,,,,,,,,,,,,,,,,,,,,,,,,,,,,,,,,,,,,,,,,,,,,,,,479.54343895899365,479.56002312497003,479.75030462496215,479.75030462496215,479.75030462496215,481.45192120899446,481.45192120899446,481.43386325001484,,,,,,,,,,,,,,,,,,,,,,,,,,,,366288,001,2024-12-03_23h19.48.974,Test,2024.2.4,None,2024-12-03 23h19.57.492294 +0100,
19,150,90,11,None,16,16,0,,,,,,,,,,,,,,,,0,16,16,18,,,,,481.45192120899446,,,,,,,,,,,,,,,,,,,,,,,,,,,,,,,,,,,,,,,,,,,,,,,,,,,,,,,,,,481.4472943749861,481.45960045896936,481.65265750000253,481.65265750000253,481.65265750000253,483.3599096669932,483.3599096669932,483.34417479200056,,,,,,,,,,,,,,,,,,,,,,,,,,,,366288,001,2024-12-03_23h19.48.974,Test,2024.2.4,None,2024-12-03 23h19.57.492294 +0100,
14,150,60,30,None,17,17,0,,,,,,,,,,,,,,,,0,17,17,13,,,,,483.3599096669932,,,,,,,,,,,,,,,,,,,,,,,,,,,,,,,,,,,,,,,,,,,,,,,,,,,,,,,,,,483.3541900839773,483.3599096669932,483.54948170896387,483.54948170896387,483.54948170896387,485.24648641695967,485.24648641695967,485.23379270901205,,,,,,,,,,,,,,,,,,,,,,,,,,,,366288,001,2024-12-03_23h19.48.974,Test,2024.2.4,None,2024-12-03 23h19.57.492294 +0100,
21,150,120,52,None,18,18,0,,,,,,,,,,,,,,,,0,18,18,20,,,,,485.24648641695967,,,,,,,,,,,,,,,,,,,,,,,,,,,,,,,,,,,,,,,,,,,,,,,,,,,,,,,,,,485.24210370896617,485.2598833339871,485.45033566700295,485.45033566700295,485.45033566700295,487.14794037496904,487.14794037496904,487.13384916697396,,,,,,,,,,,,,,,,,,,,,,,,,,,,366288,001,2024-12-03_23h19.48.974,Test,2024.2.4,None,2024-12-03 23h19.57.492294 +0100,
25,150,120,45,None,19,19,0,,,,,,,,,,,,,,,,0,19,19,24,,,,,487.14794037496904,,,,,,,,,,,,,,,,,,,,,,,,,,,,,,,,,,,,,,,,,,,,,,,,,,,,,,,,,,487.1429053749889,487.15989195898874,487.3500690839719,487.3500690839719,487.3500690839719,489.04704391700216,489.04704391700216,489.03333649999695,,,,,,,,,,,,,,,,,,,,,,,,,,,,366288,001,2024-12-03_23h19.48.974,Test,2024.2.4,None,2024-12-03 23h19.57.492294 +0100,
23,150,120,51,None,20,20,0,,,,,,,,,,,,,,,,0,20,20,22,,,,,489.04704391700216,,,,,,,,,,,,,,,,,,,,,,,,,,,,,,,,,,,,,,,,,,,,,,,,,,,,,,,,,,489.04226191696944,489.0598166669952,489.2497884170152,489.2497884170152,489.2497884170152,490.9464633339667,490.9464633339667,490.93360766698606,,,,,,,,,,,,,,,,,,,,,,,,,,,,366288,001,2024-12-03_23h19.48.974,Test,2024.2.4,None,2024-12-03 23h19.57.492294 +0100,
6,150,30,37,None,21,21,0,,,,,,,,,,,,,,,,0,21,21,5,,,,,490.9464633339667,,,,,,,,,,,,,,,,,,,,,,,,,,,,,,,,,,,,,,,,,,,,,,,,,,,,,,,,,,490.9420867500012,490.9599125419627,491.15062191698235,491.15062191698235,491.15062191698235,492.85896391700953,492.85896391700953,492.8443572089891,,,,,,,,,,,,,,,,,,,,,,,,,,,,366288,001,2024-12-03_23h19.48.974,Test,2024.2.4,None,2024-12-03 23h19.57.492294 +0100,
17,150,90,15,None,22,22,0,,,,,,,,,,,,,,,,0,22,22,16,,,,,492.85896391700953,,,,,,,,,,,,,,,,,,,,,,,,,,,,,,,,,,,,,,,,,,,,,,,,,,,,,,,,,,492.8535731669981,492.85896391700953,493.0497430000105,493.0497430000105,493.0497430000105,494.7468919589883,494.7468919589883,494.7338431669632,,,,,,,,,,,,,,,,,,,,,,,,,,,,366288,001,2024-12-03_23h19.48.974,Test,2024.2.4,None,2024-12-03 23h19.57.492294 +0100,
18,150,90,43,None,23,23,0,,,,,,,,,,,,,,,,0,23,23,17,,,,,494.7468919589883,,,,,,,,,,,,,,,,,,,,,,,,,,,,,,,,,,,,,,,,,,,,,,,,,,,,,,,,,,494.742102166987,494.75980970897945,494.9498284999863,494.9498284999863,494.9498284999863,496.65839262498775,496.65839262498775,496.644358999969,,,,,,,,,,,,,,,,,,,,,,,,,,,,366288,001,2024-12-03_23h19.48.974,Test,2024.2.4,None,2024-12-03 23h19.57.492294 +0100,
3,150,0,12,None,24,24,0,,,,,,,,,,,,,,,,0,24,24,2,,,,,496.65839262498775,,,,,,,,,,,,,,,,,,,,,,,,,,,,,,,,,,,,,,,,,,,,,,,,,,,,,,,,,,496.6525381249958,496.65839262498775,496.85063316696323,496.85063316696323,496.85063316696323,498.5588907499914,498.5588907499914,498.5441379589611,,,,,,,,,,,,,,,,,,,,,,,,,,,,366288,001,2024-12-03_23h19.48.974,Test,2024.2.4,None,2024-12-03 23h19.57.492294 +0100,
5,150,0,14,None,25,25,0,,,,,,,,,,,,,,,,0,25,25,4,,,,,498.5588907499914,,,,,,,,,,,,,,,,,,,,,,,,,,,,,,,,,,,,,,,,,,,,,,,,,,,,,,,,,,498.5532734169974,498.5588907499914,498.7500037919963,498.7500037919963,498.7500037919963,500.4479766250006,500.4479766250006,500.43404249998275,,,,,,,,,,,,,,,,,,,,,,,,,,,,366288,001,2024-12-03_23h19.48.974,Test,2024.2.4,None,2024-12-03 23h19.57.492294 +0100,
15,150,60,20,None,26,26,0,,,,,,,,,,,,,,,,0,26,26,14,,,,,500.4479766250006,,,,,,,,,,,,,,,,,,,,,,,,,,,,,,,,,,,,,,,,,,,,,,,,,,,,,,,,,,500.44296824996127,500.45982795901364,500.6498760000104,500.6498760000104,500.6498760000104,502.3581075000111,502.3581075000111,502.3444595420151,,,,,,,,,,,,,,,,,,,,,,,,,,,,366288,001,2024-12-03_23h19.48.974,Test,2024.2.4,None,2024-12-03 23h19.57.492294 +0100,
16,150,90,67,None,27,27,0,,,,,,,,,,,,,,,,0,27,27,15,,,,,502.3581075000111,,,,,,,,,,,,,,,,,,,,,,,,,,,,,,,,,,,,,,,,,,,,,,,,,,,,,,,,,,502.3525649170042,502.3581075000111,502.549766000011,502.549766000011,502.549766000011,504.2457292919862,504.2457292919862,504.23326133401133,,,,,,,,,,,,,,,,,,,,,,,,,,,,366288,001,2024-12-03_23h19.48.974,Test,2024.2.4,None,2024-12-03 23h19.57.492294 +0100,
7,150,30,46,None,28,28,0,,,,,,,,,,,,,,,,0,28,28,6,,,,,504.2457292919862,,,,,,,,,,,,,,,,,,,,,,,,,,,,,,,,,,,,,,,,,,,,,,,,,,,,,,,,,,504.2413234169944,504.2598669999861,504.4502223340096,504.4502223340096,504.4502223340096,506.15848666697275,506.15848666697275,506.1441539169755,,,,,,,,,,,,,,,,,,,,,,,,,,,,366288,001,2024-12-03_23h19.48.974,Test,2024.2.4,None,2024-12-03 23h19.57.492294 +0100,
32,150,180,23,None,29,29,0,,,,,,,,,,,,,,,,0,29,29,31,,,,,506.15848666697275,,,,,,,,,,,,,,,,,,,,,,,,,,,,,,,,,,,,,,,,,,,,,,,,,,,,,,,,,,506.15299633401446,506.15848666697275,506.3499372089864,506.3499372089864,506.3499372089864,508.04605504201027,508.04605504201027,508.0332135419594,,,,,,,,,,,,,,,,,,,,,,,,,,,,366288,001,2024-12-03_23h19.48.974,Test,2024.2.4,None,2024-12-03 23h19.57.492294 +0100,
20,150,90,39,None,30,30,0,,,,,,,,,,,,,,,,0,30,30,19,,,,,508.04605504201027,,,,,,,,,,,,,,,,,,,,,,,,,,,,,,,,,,,,,,,,,,,,,,,,,,,,,,,,,,508.04153691697866,508.0600413749926,508.2504300419823,508.2504300419823,508.2504300419823,509.9595310000004,509.9595310000004,509.94411329197465,,,,,,,,,,,,,,,,,,,,,,,,,,,,366288,001,2024-12-03_23h19.48.974,Test,2024.2.4,None,2024-12-03 23h19.57.492294 +0100,
26,150,150,58,None,31,31,0,,,,,,,,,,,,,,,,0,31,31,25,,,,,509.9595310000004,,,,,,,,,,,,,,,,,,,,,,,,,,,,,,,,,,,,,,,,,,,,,,,,,,,,,,,,,,509.9540515000117,509.9595310000004,510.15034887497313,510.15034887497313,510.15034887497313,511.85898625000846,511.85898625000846,511.8443228749675,,,,,,,,,,,,,,,,,,,,,,,,,,,,366288,001,2024-12-03_23h19.48.974,Test,2024.2.4,None,2024-12-03 23h19.57.492294 +0100,
33,150,180,42,None,32,32,0,,,,,,,,,,,,,,,,0,32,32,32,,,,,511.85898625000846,,,,,,,,,,,,,,,,,,,,,,,,,,,,,,,,,,,,,,,,,,,,,,,,,,,,,,,,,,511.8534409169806,511.85898625000846,512.0499867089675,512.0499867089675,512.0499867089675,513.7469019999844,513.7469019999844,513.733809791971,,,,,,,,,,,,,,,,,,,,,,,,,,,,366288,001,2024-12-03_23h19.48.974,Test,2024.2.4,None,2024-12-03 23h19.57.492294 +0100,
30,150,150,13,None,33,33,0,,,,,,,,,,,,,,,,0,33,33,29,,,,,513.7469019999844,,,,,,,,,,,,,,,,,,,,,,,,,,,,,,,,,,,,,,,,,,,,,,,,,,,,,,,,,,513.7420094999834,513.7597953340155,513.9502237919951,513.9502237919951,513.9502237919951,515.6462738339906,515.6462738339906,515.6335937089752,,,,,,,,,,,,,,,,,,,,,,,,,,,,366288,001,2024-12-03_23h19.48.974,Test,2024.2.4,None,2024-12-03 23h19.57.492294 +0100,
22,150,120,21,None,34,34,0,,,,,,,,,,,,,,,,0,34,34,21,,,,,515.6462738339906,,,,,,,,,,,,,,,,,,,,,,,,,,,,,,,,,,,,,,,,,,,,,,,,,,,,,,,,,,515.6418978750007,515.6598882499966,515.8497150419862,515.8497150419862,515.8497150419862,517.543142709008,517.543142709008,517.5335349589586,,,,,,,,,,,,,,,,,,,,,,,,,,,,366288,001,2024-12-03_23h19.48.974,Test,2024.2.4,None,2024-12-03 23h19.57.492294 +0100,
,,,,,,,,,,,,,,,,,,,,,,,,,,,,,,,,,,,,,,,,,,,,,,,,,,,,,,,,,,,,,,,,,,,,,,,,,,,,,,,,,,,,,,,,,,,,,,,,,517.5337424169993,517.5510082090041,517.5510082090041,537.4610818339861,space,19.900630124961026,None,,,,,,,,,,,,,,,,,,,,,366288,001,2024-12-03_23h19.48.974,Test,2024.2.4,None,2024-12-03 23h19.57.492294 +0100,
21,150,120,52,None,0,0,0,False,,,,right,0.8756240000366233,None,,,,,,,,,,,,,0,0,0,0,537.580337374995,,,,,,,,,,,,,,,,,,,,,,,,,,,,,,,,,,,,,,,,,,,,,,,,,,,,,,,,,,,,,,,,,,,,,,,,,537.5748937089811,537.580337374995,538.5766553750145,539.4601355839986,539.4601355839986,539.4601355839986,540.3458501669811,right,0.8756240000366233,None,,,,,,,,,,,366288,001,2024-12-03_23h19.48.974,Test,2024.2.4,None,2024-12-03 23h19.57.492294 +0100,
55,150,90,54,None,1,1,0,True,,,,right,2.02135187498061,None,,,,,,,,,,,,,0,1,1,1,540.3632482920075,,,,,,,,,,,,,,,,,,,,,,,,,,,,,,,,,,,,,,,,,,,,,,,,,,,,,,,,,,,,,,,,,,,,,,,,,540.3564185000141,540.3632482920075,541.3599378339713,542.3434380419785,542.3434380419785,542.3434380419785,544.3681363340002,right,2.02135187498061,None,,,,,,,,,,,366288,001,2024-12-03_23h19.48.974,Test,2024.2.4,None,2024-12-03 23h19.57.492294 +0100,
60,150,120,62,None,2,2,0,True,,,,right,0.9779394170036539,None,,,,,,,,,,,,,0,2,2,2,544.3893981250003,,,,,,,,,,,,,,,,,,,,,,,,,,,,,,,,,,,,,,,,,,,,,,,,,,,,,,,,,,,,,,,,,,,,,,,,,544.3829292089795,544.3893981250003,545.38154724997,546.3686589999706,546.3686589999706,546.3686589999706,547.3515725419857,right,0.9779394170036539,None,,,,,,,,,,,366288,001,2024-12-03_23h19.48.974,Test,2024.2.4,None,2024-12-03 23h19.57.492294 +0100,
47,150,60,17,None,3,3,0,True,,,,left,0.7450398330111057,None,,,,,,,,,,,,,0,3,3,3,547.3671537499758,,,,,,,,,,,,,,,,,,,,,,,,,,,,,,,,,,,,,,,,,,,,,,,,,,,,,,,,,,,,,,,,,,,,,,,,,547.3611922090058,547.3671537499758,548.3654089999618,549.3508306670119,549.3508306670119,549.3508306670119,550.101588749967,left,0.7450398330111057,None,,,,,,,,,,,366288,001,2024-12-03_23h19.48.974,Test,2024.2.4,None,2024-12-03 23h19.57.492294 +0100,
67,150,180,32,None,4,4,0,True,,,,left,0.9810450000222772,None,,,,,,,,,,,,,0,4,4,4,550.1174477089662,,,,,,,,,,,,,,,,,,,,,,,,,,,,,,,,,,,,,,,,,,,,,,,,,,,,,,,,,,,,,,,,,,,,,,,,,550.1110502919764,550.1174477089662,551.1146769169718,552.1004436669755,552.1004436669755,552.1004436669755,553.0845643749926,left,0.9810450000222772,None,,,,,,,,,,,366288,001,2024-12-03_23h19.48.974,Test,2024.2.4,None,2024-12-03 23h19.57.492294 +0100,
40,150,0,70,None,5,5,0,True,,,,left,1.5237675000098534,None,,,,,,,,,,,,,0,5,5,5,553.0984152919846,,,,,,,,,,,,,,,,,,,,,,,,,,,,,,,,,,,,,,,,,,,,,,,,,,,,,,,,,,,,,,,,,,,,,,,,,553.0923557499773,553.0984152919846,554.093286458985,555.083899249963,555.083899249963,555.083899249963,556.6115358750103,left,1.5237675000098534,None,,,,,,,,,,,366288,001,2024-12-03_23h19.48.974,Test,2024.2.4,None,2024-12-03 23h19.57.492294 +0100,
44,150,30,33,None,6,6,0,True,,,,right,0.7290167500032112,None,,,,,,,,,,,,,0,6,6,6,556.6264800420031,,,,,,,,,,,,,,,,,,,,,,,,,,,,,,,,,,,,,,,,,,,,,,,,,,,,,,,,,,,,,,,,,,,,,,,,,556.6205036669853,556.6264800420031,557.6145954999956,558.6100327919703,558.6100327919703,558.6100327919703,559.3456043750048,right,0.7290167500032112,None,,,,,,,,,,,366288,001,2024-12-03_23h19.48.974,Test,2024.2.4,None,2024-12-03 23h19.57.492294 +0100,
53,150,90,9,None,7,7,0,True,,,,left,1.8200751669937745,None,,,,,,,,,,,,,0,7,7,7,559.3622549999855,,,,,,,,,,,,,,,,,,,,,,,,,,,,,,,,,,,,,,,,,,,,,,,,,,,,,,,,,,,,,,,,,,,,,,,,,559.3558444589726,559.3622549999855,560.3600387090119,561.3434597089654,561.3434597089654,561.3434597089654,563.1684112499934,left,1.8200751669937745,None,,,,,,,,,,,366288,001,2024-12-03_23h19.48.974,Test,2024.2.4,None,2024-12-03 23h19.57.492294 +0100,
2,150,0,40,None,8,8,0,False,,,,right,0.8021379169658758,None,,,,,,,,,,,,,0,8,8,8,563.1831867920118,,,,,,,,,,,,,,,,,,,,,,,,,,,,,,,,,,,,,,,,,,,,,,,,,,,,,,,,,,,,,,,,,,,,,,,,,563.1773260419723,563.1831867920118,564.176691791974,565.1673735000077,565.1673735000077,565.1673735000077,565.9788842499838,right,0.8021379169658758,None,,,,,,,,,,,366288,001,2024-12-03_23h19.48.974,Test,2024.2.4,None,2024-12-03 23h19.57.492294 +0100,
12,150,60,2,None,9,9,0,False,,,,right,0.9138282499625348,None,,,,,,,,,,,,,0,9,9,9,565.9919874590123,,,,,,,,,,,,,,,,,,,,,,,,,,,,,,,,,,,,,,,,,,,,,,,,,,,,,,,,,,,,,,,,,,,,,,,,,565.9862142089987,565.9919874590123,566.9814142920077,567.9766839169897,567.9766839169897,567.9766839169897,568.8953979169601,right,0.9138282499625348,None,,,,,,,,,,,366288,001,2024-12-03_23h19.48.974,Test,2024.2.4,None,2024-12-03 23h19.57.492294 +0100,
9,150,30,34,None,10,10,0,False,,,,left,1.2386821659747511,None,,,,,,,,,,,,,0,10,10,10,568.9094134590123,,,,,,,,,,,,,,,,,,,,,,,,,,,,,,,,,,,,,,,,,,,,,,,,,,,,,,,,,,,,,,,,,,,,,,,,,568.9033409999683,568.9094134590123,569.8980587919941,570.8934663339751,570.8934663339751,570.8934663339751,572.1349627089803,left,1.2386821659747511,None,,,,,,,,,,,366288,001,2024-12-03_23h19.48.974,Test,2024.2.4,None,2024-12-03 23h19.57.492294 +0100,
30,150,150,13,None,11,11,0,False,,,,right,1.461869332997594,None,,,,,,,,,,,,,0,11,11,11,572.1493049999699,,,,,,,,,,,,,,,,,,,,,,,,,,,,,,,,,,,,,,,,,,,,,,,,,,,,,,,,,,,,,,,,,,,,,,,,,572.1434047090006,572.1493049999699,573.1431887499639,574.134006917011,574.134006917011,574.134006917011,575.6014515419956,right,1.461869332997594,None,,,,,,,,,,,366288,001,2024-12-03_23h19.48.974,Test,2024.2.4,None,2024-12-03 23h19.57.492294 +0100,
34,150,180,69,None,12,12,0,False,,,,right,1.5263905830215663,None,,,,,,,,,,,,,0,12,12,12,575.6160909999744,,,,,,,,,,,,,,,,,,,,,,,,,,,,,,,,,,,,,,,,,,,,,,,,,,,,,,,,,,,,,,,,,,,,,,,,,575.6100835839752,575.6160909999744,576.6099637919688,577.6006156670046,577.6006156670046,577.6006156670046,579.1300165000139,right,1.5263905830215663,None,,,,,,,,,,,366288,001,2024-12-03_23h19.48.974,Test,2024.2.4,None,2024-12-03 23h19.57.492294 +0100,
24,150,120,5,None,13,13,0,False,,,,right,1.3340827909996733,None,,,,,,,,,,,,,0,13,13,13,579.1452662919764,,,,,,,,,,,,,,,,,,,,,,,,,,,,,,,,,,,,,,,,,,,,,,,,,,,,,,,,,,,,,,,,,,,,,,,,,579.1388341669808,579.1452662919764,580.1432794170105,581.1268351249746,581.1268351249746,581.1268351249746,582.4719211669872,right,1.3340827909996733,None,,,,,,,,,,,366288,001,2024-12-03_23h19.48.974,Test,2024.2.4,None,2024-12-03 23h19.57.492294 +0100,
5,150,0,14,None,14,14,0,False,,,,right,2.202912707987707,None,,,,,,,,,,,,,0,14,14,14,582.4840141669847,,,,,,,,,,,,,,,,,,,,,,,,,,,,,,,,,,,,,,,,,,,,,,,,,,,,,,,,,,,,,,,,,,,,,,,,,582.479307667003,582.4840141669847,583.482004999998,584.4672287919675,584.4672287919675,584.4672287919675,586.6789193339646,right,2.202912707987707,None,,,,,,,,,,,366288,001,2024-12-03_23h19.48.974,Test,2024.2.4,None,2024-12-03 23h19.57.492294 +0100,
7,150,30,46,None,15,15,0,False,,,,right,1.4500772499595769,None,,,,,,,,,,,,,0,15,15,15,586.6937605839921,,,,,,,,,,,,,,,,,,,,,,,,,,,,,,,,,,,,,,,,,,,,,,,,,,,,,,,,,,,,,,,,,,,,,,,,,586.6868806669954,586.6937605839921,587.6820569999982,588.6767727920087,588.6767727920087,588.6767727920087,590.1293004999752,right,1.4500772499595769,None,,,,,,,,,,,366288,001,2024-12-03_23h19.48.974,Test,2024.2.4,None,2024-12-03 23h19.57.492294 +0100,
29,150,150,4,None,16,16,0,False,,,,right,1.5742046250379644,None,,,,,,,,,,,,,0,16,16,16,590.1453476669849,,,,,,,,,,,,,,,,,,,,,,,,,,,,,,,,,,,,,,,,,,,,,,,,,,,,,,,,,,,,,,,,,,,,,,,,,590.1391002499731,590.1453476669849,591.1433324170066,592.1266795420088,592.1266795420088,592.1266795420088,593.711482084007,right,1.5742046250379644,None,,,,,,,,,,,366288,001,2024-12-03_23h19.48.974,Test,2024.2.4,None,2024-12-03 23h19.57.492294 +0100,
6,150,30,37,None,17,17,0,False,,,,right,0.6553296669735573,None,,,,,,,,,,,,,0,17,17,17,593.722958083963,,,,,,,,,,,,,,,,,,,,,,,,,,,,,,,,,,,,,,,,,,,,,,,,,,,,,,,,,,,,,,,,,,,,,,,,,593.7181358750095,593.722958083963,594.7153057919932,595.7102799999993,595.7102799999993,595.7102799999993,596.3685859169927,right,0.6553296669735573,None,,,,,,,,,,,366288,001,2024-12-03_23h19.48.974,Test,2024.2.4,None,2024-12-03 23h19.57.492294 +0100,
45,150,30,35,None,18,18,0,True,,,,left,1.0660015830071643,None,,,,,,,,,,,,,0,18,18,18,596.3823600420146,,,,,,,,,,,,,,,,,,,,,,,,,,,,,,,,,,,,,,,,,,,,,,,,,,,,,,,,,,,,,,,,,,,,,,,,,596.3761100840056,596.3823600420146,597.3768135000137,598.3675403340021,598.3675403340021,598.3675403340021,599.4363079589675,left,1.0660015830071643,None,,,,,,,,,,,366288,001,2024-12-03_23h19.48.974,Test,2024.2.4,None,2024-12-03 23h19.57.492294 +0100,
11,150,60,48,None,19,19,0,False,,,,right,1.1927995420410298,None,,,,,,,,,,,,,0,19,19,19,599.4516169999843,,,,,,,,,,,,,,,,,,,,,,,,,,,,,,,,,,,,,,,,,,,,,,,,,,,,,,,,,,,,,,,,,,,,,,,,,599.4449790840154,599.4516169999843,600.4481922090054,601.4339387919754,601.4339387919754,601.4339387919754,602.6292942499858,right,1.1927995420410298,None,,,,,,,,,,,366288,001,2024-12-03_23h19.48.974,Test,2024.2.4,None,2024-12-03 23h19.57.492294 +0100,
13,150,60,66,None,20,20,0,False,,,,left,3.5263029169873334,None,,,,,,,,,,,,,0,20,20,20,602.6447298749699,,,,,,,,,,,,,,,,,,,,,,,,,,,,,,,,,,,,,,,,,,,,,,,,,,,,,,,,,,,,,,,,,,,,,,,,,602.638063374965,602.6447298749699,603.643174124998,604.6269577919738,604.6269577919738,604.6269577919738,608.1615343749872,left,3.5263029169873334,None,607.6159577919752,607.6159577919752,607.6252867499716,,,,,,,,366288,001,2024-12-03_23h19.48.974,Test,2024.2.4,None,2024-12-03 23h19.57.492294 +0100,
63,150,150,38,None,21,21,0,True,,,,right,1.359058832982555,None,,,,,,,,,,,,,0,21,21,21,608.1747836669674,,,,,,,,,,,,,,,,,,,,,,,,,,,,,,,,,,,,,,,,,,,,,,,,,,,,,,,,,,,,,,,,,,,,,,,,,608.1689160839887,608.1747836669674,609.1654630000121,610.1600356249837,610.1600356249837,610.1600356249837,611.528901749989,right,1.359058832982555,None,,,,,,,,,,,366288,001,2024-12-03_23h19.48.974,Test,2024.2.4,None,2024-12-03 23h19.57.492294 +0100,
69,150,180,24,None,22,22,0,True,,,,left,1.774401625036262,None,,,,,,,,,,,,,0,22,22,22,611.5441205420066,,,,,,,,,,,,,,,,,,,,,,,,,,,,,,,,,,,,,,,,,,,,,,,,,,,,,,,,,,,,,,,,,,,,,,,,,611.5380960420007,611.5441205420066,612.5314931249595,613.5266620420152,613.5266620420152,613.5266620420152,615.3118953749654,left,1.774401625036262,None,,,,,,,,,,,366288,001,2024-12-03_23h19.48.974,Test,2024.2.4,None,2024-12-03 23h19.57.492294 +0100,
46,150,60,41,None,23,23,0,True,,,,right,1.1190573750063777,None,,,,,,,,,,,,,0,23,23,23,615.3277798749623,,,,,,,,,,,,,,,,,,,,,,,,,,,,,,,,,,,,,,,,,,,,,,,,,,,,,,,,,,,,,,,,,,,,,,,,,615.3214840000146,615.3277798749623,616.3266135000158,617.3086862500058,617.3086862500058,617.3086862500058,618.4343726669904,right,1.1190573750063777,None,,,,,,,,,,,366288,001,2024-12-03_23h19.48.974,Test,2024.2.4,None,2024-12-03 23h19.57.492294 +0100,
58,150,120,60,None,24,24,0,True,,,,left,1.0210402089869604,None,,,,,,,,,,,,,0,24,24,24,618.4473319170065,,,,,,,,,,,,,,,,,,,,,,,,,,,,,,,,,,,,,,,,,,,,,,,,,,,,,,,,,,,,,,,,,,,,,,,,,618.4417047919706,618.4473319170065,619.443293291959,620.4338014589739,620.4338014589739,620.4338014589739,621.461991374963,left,1.0210402089869604,None,,,,,,,,,,,366288,001,2024-12-03_23h19.48.974,Test,2024.2.4,None,2024-12-03 23h19.57.492294 +0100,
36,150,0,25,None,25,25,0,True,,,,left,0.9670679169939831,None,,,,,,,,,,,,,0,25,25,25,621.4752709589666,,,,,,,,,,,,,,,,,,,,,,,,,,,,,,,,,,,,,,,,,,,,,,,,,,,,,,,,,,,,,,,,,,,,,,,,,621.4689227920026,621.4752709589666,622.4656238339958,623.4601638339809,623.4601638339809,623.4601638339809,624.4303117090021,left,0.9670679169939831,None,,,,,,,,,,,366288,001,2024-12-03_23h19.48.974,Test,2024.2.4,None,2024-12-03 23h19.57.492294 +0100,
65,150,150,27,None,26,26,0,True,,,,left,1.3593245000229217,None,,,,,,,,,,,,,0,26,26,26,624.4468961249804,,,,,,,,,,,,,,,,,,,,,,,,,,,,,,,,,,,,,,,,,,,,,,,,,,,,,,,,,,,,,,,,,,,,,,,,,624.4402454170049,624.4468961249804,625.4432491249754,626.4268116249586,626.4268116249586,626.4268116249586,627.7954434999847,left,1.3593245000229217,None,,,,,,,,,,,366288,001,2024-12-03_23h19.48.974,Test,2024.2.4,None,2024-12-03 23h19.57.492294 +0100,
59,150,120,28,None,27,27,0,True,,,,left,1.6169480410171673,None,,,,,,,,,,,,,0,27,27,27,627.8112463749712,,,,,,,,,,,,,,,,,,,,,,,,,,,,,,,,,,,,,,,,,,,,,,,,,,,,,,,,,,,,,,,,,,,,,,,,,627.8051338749938,627.8112463749712,628.8101163749816,629.7935458339634,629.7935458339634,629.7935458339634,631.4138048340101,left,1.6169480410171673,None,,,,,,,,,,,366288,001,2024-12-03_23h19.48.974,Test,2024.2.4,None,2024-12-03 23h19.57.492294 +0100,
22,150,120,21,None,28,28,0,False,,,,left,2.0917652909993194,None,,,,,,,,,,,,,0,28,28,28,631.4294047919684,,,,,,,,,,,,,,,,,,,,,,,,,,,,,,,,,,,,,,,,,,,,,,,,,,,,,,,,,,,,,,,,,,,,,,,,,631.4229545000126,631.4294047919684,632.4266941249953,633.4100203340058,633.4100203340058,633.4100203340058,635.5120284999721,left,2.0917652909993194,None,,,,,,,,,,,366288,001,2024-12-03_23h19.48.974,Test,2024.2.4,None,2024-12-03 23h19.57.492294 +0100,
27,150,150,47,None,29,29,0,False,,,,left,1.5444574580178596,None,,,,,,,,,,,,,0,29,29,29,635.5281055839732,,,,,,,,,,,,,,,,,,,,,,,,,,,,,,,,,,,,,,,,,,,,,,,,,,,,,,,,,,,,,,,,,,,,,,,,,635.5214559590095,635.5281055839732,636.5267331249779,637.5101126249647,637.5101126249647,637.5101126249647,639.0623512499733,left,1.5444574580178596,None,,,,,,,,,,,366288,001,2024-12-03_23h19.48.974,Test,2024.2.4,None,2024-12-03 23h19.57.492294 +0100,
10,150,30,50,None,30,30,0,False,,,,left,1.0672799170133658,None,,,,,,,,,,,,,0,30,30,30,639.0765512919752,,,,,,,,,,,,,,,,,,,,,,,,,,,,,,,,,,,,,,,,,,,,,,,,,,,,,,,,,,,,,,,,,,,,,,,,,639.0706100419629,639.0765512919752,640.0656245420105,641.060071874992,641.060071874992,641.060071874992,642.1376869169762,left,1.0672799170133658,None,,,,,,,,,,,366288,001,2024-12-03_23h19.48.974,Test,2024.2.4,None,2024-12-03 23h19.57.492294 +0100,
52,150,90,10,None,31,31,0,True,,,,right,0.876793000032194,None,,,,,,,,,,,,,0,31,31,31,642.1492982920026,,,,,,,,,,,,,,,,,,,,,,,,,,,,,,,,,,,,,,,,,,,,,,,,,,,,,,,,,,,,,,,,,,,,,,,,,642.1447306670016,642.1492982920026,643.1434062920162,644.1336684589623,644.1336684589623,644.1336684589623,645.013054125011,right,0.876793000032194,None,,,,,,,,,,,366288,001,2024-12-03_23h19.48.974,Test,2024.2.4,None,2024-12-03 23h19.57.492294 +0100,
42,150,30,8,None,32,32,0,True,,,,left,1.4040540829882957,None,,,,,,,,,,,,,0,32,32,32,645.0280998339877,,,,,,,,,,,,,,,,,,,,,,,,,,,,,,,,,,,,,,,,,,,,,,,,,,,,,,,,,,,,,,,,,,,,,,,,,645.0217448339681,645.0280998339877,646.0267089169938,647.010143374966,647.010143374966,647.010143374966,648.4181160000153,left,1.4040540829882957,None,,,,,,,,,,,366288,001,2024-12-03_23h19.48.974,Test,2024.2.4,None,2024-12-03 23h19.57.492294 +0100,
41,150,30,44,None,33,33,0,True,,,,left,2.669585832976736,None,,,,,,,,,,,,,0,33,33,33,648.4347195000155,,,,,,,,,,,,,,,,,,,,,,,,,,,,,,,,,,,,,,,,,,,,,,,,,,,,,,,,,,,,,,,,,,,,,,,,,648.427857416973,648.4347195000155,649.431165624992,650.4172756670159,650.4172756670159,650.4172756670159,653.0954808339593,left,2.669585832976736,None,,,,,,,,,,,366288,001,2024-12-03_23h19.48.974,Test,2024.2.4,None,2024-12-03 23h19.57.492294 +0100,
15,150,60,20,None,34,34,0,False,,,,right,0.9918616249924526,None,,,,,,,,,,,,,0,34,34,34,653.111083374999,,,,,,,,,,,,,,,,,,,,,,,,,,,,,,,,,,,,,,,,,,,,,,,,,,,,,,,,,,,,,,,,,,,,,,,,,653.1035932090017,653.111083374999,654.1101593339699,655.0933858749922,655.0933858749922,655.0933858749922,656.0955676669837,right,0.9918616249924526,None,,,,,,,,,,,366288,001,2024-12-03_23h19.48.974,Test,2024.2.4,None,2024-12-03 23h19.57.492294 +0100,
62,150,150,59,None,35,35,0,True,,,,right,1.2618185830069706,None,,,,,,,,,,,,,0,35,35,35,656.1120439170045,,,,,,,,,,,,,,,,,,,,,,,,,,,,,,,,,,,,,,,,,,,,,,,,,,,,,,,,,,,,,,,,,,,,,,,,,656.1052428749972,656.1120439170045,657.1101808749954,658.0934650839772,658.0934650839772,658.0934650839772,659.3621267499984,right,1.2618185830069706,None,,,,,,,,,,,366288,001,2024-12-03_23h19.48.974,Test,2024.2.4,None,2024-12-03 23h19.57.492294 +0100,
28,150,150,61,None,36,36,0,False,,,,right,3.3234881250537,None,,,,,,,,,,,,,0,36,36,36,659.379145541985,,,,,,,,,,,,,,,,,,,,,,,,,,,,,,,,,,,,,,,,,,,,,,,,,,,,,,,,,,,,,,,,,,,,,,,,,659.3717335420079,659.379145541985,660.3766562920064,661.3602833339828,661.3602833339828,661.3602833339828,664.695280624961,right,3.3234881250537,None,664.3487277500099,664.3487277500099,664.3600193340098,,,,,,,,366288,001,2024-12-03_23h19.48.974,Test,2024.2.4,None,2024-12-03 23h19.57.492294 +0100,
56,150,120,65,None,37,37,0,True,,,,right,0.7511267910012975,None,,,,,,,,,,,,,0,37,37,37,664.7113857090008,,,,,,,,,,,,,,,,,,,,,,,,,,,,,,,,,,,,,,,,,,,,,,,,,,,,,,,,,,,,,,,,,,,,,,,,,664.7046662920038,664.7113857090008,665.7098383340053,666.6934838749585,666.6934838749585,666.6934838749585,667.4521241670009,right,0.7511267910012975,None,,,,,,,,,,,366288,001,2024-12-03_23h19.48.974,Test,2024.2.4,None,2024-12-03 23h19.57.492294 +0100,
66,150,180,18,None,38,38,0,True,,,,left,1.1456518750055693,None,,,,,,,,,,,,,0,38,38,38,667.4675534169655,,,,,,,,,,,,,,,,,,,,,,,,,,,,,,,,,,,,,,,,,,,,,,,,,,,,,,,,,,,,,,,,,,,,,,,,,667.4612908749841,667.4675534169655,668.4648160419893,669.4506460839766,669.4506460839766,669.4506460839766,670.6025905839633,left,1.1456518750055693,None,,,,,,,,,,,366288,001,2024-12-03_23h19.48.974,Test,2024.2.4,None,2024-12-03 23h19.57.492294 +0100,
31,150,180,3,None,39,39,0,False,,,,right,1.2500511659891345,None,,,,,,,,,,,,,0,39,39,39,670.617409583996,,,,,,,,,,,,,,,,,,,,,,,,,,,,,,,,,,,,,,,,,,,,,,,,,,,,,,,,,,,,,,,,,,,,,,,,,670.6111031249748,670.617409583996,671.6154691249831,672.6007158340071,672.6007158340071,672.6007158340071,673.8613642089767,right,1.2500511659891345,None,,,,,,,,,,,366288,001,2024-12-03_23h19.48.974,Test,2024.2.4,None,2024-12-03 23h19.57.492294 +0100,
26,150,150,58,None,40,40,0,False,,,,right,1.6923730000271462,None,,,,,,,,,,,,,0,40,40,40,673.8725506669725,,,,,,,,,,,,,,,,,,,,,,,,,,,,,,,,,,,,,,,,,,,,,,,,,,,,,,,,,,,,,,,,,,,,,,,,,673.8679876669776,673.8725506669725,674.8645864169812,675.860146958963,675.860146958963,675.860146958963,677.5623322500032,right,1.6923730000271462,None,,,,,,,,,,,366288,001,2024-12-03_23h19.48.974,Test,2024.2.4,None,2024-12-03 23h19.57.492294 +0100,
14,150,60,30,None,41,41,0,False,,,,left,1.8872795830247924,None,,,,,,,,,,,,,0,41,41,41,677.5788109169807,,,,,,,,,,,,,,,,,,,,,,,,,,,,,,,,,,,,,,,,,,,,,,,,,,,,,,,,,,,,,,,,,,,,,,,,,677.5714231249876,677.5788109169807,678.5765827500145,679.5601721249986,679.5601721249986,679.5601721249986,681.4518822089885,left,1.8872795830247924,None,,,,,,,,,,,366288,001,2024-12-03_23h19.48.974,Test,2024.2.4,None,2024-12-03 23h19.57.492294 +0100,
32,150,180,23,None,42,42,0,False,,,,right,1.476009875012096,None,,,,,,,,,,,,,0,42,42,42,681.467032000015,,,,,,,,,,,,,,,,,,,,,,,,,,,,,,,,,,,,,,,,,,,,,,,,,,,,,,,,,,,,,,,,,,,,,,,,,681.461033583968,681.467032000015,682.4655671250075,683.451454666967,683.451454666967,683.451454666967,684.9379222919815,right,1.476009875012096,None,,,,,,,,,,,366288,001,2024-12-03_23h19.48.974,Test,2024.2.4,None,2024-12-03 23h19.57.492294 +0100,
35,150,180,56,None,43,43,0,False,,,,right,3.026935375004541,None,,,,,,,,,,,,,0,43,43,43,684.949744292011,,,,,,,,,,,,,,,,,,,,,,,,,,,,,,,,,,,,,,,,,,,,,,,,,,,,,,,,,,,,,,,,,,,,,,,,,684.9449264999712,684.949744292011,685.9483899169718,686.9331828749855,686.9331828749855,686.9331828749855,689.9627481669886,right,3.026935375004541,None,689.926750499988,689.926750499988,689.9334129169583,,,,,,,,366288,001,2024-12-03_23h19.48.974,Test,2024.2.4,None,2024-12-03 23h19.57.492294 +0100,
3,150,0,12,None,44,44,0,False,,,,right,1.3302480829879642,None,,,,,,,,,,,,,0,44,44,44,689.9764924169867,,,,,,,,,,,,,,,,,,,,,,,,,,,,,,,,,,,,,,,,,,,,,,,,,,,,,,,,,,,,,,,,,,,,,,,,,689.9700227499707,689.9764924169867,690.9656599999871,691.9601010839688,691.9601010839688,691.9601010839688,693.2954385419725,right,1.3302480829879642,None,,,,,,,,,,,366288,001,2024-12-03_23h19.48.974,Test,2024.2.4,None,2024-12-03 23h19.57.492294 +0100,
49,150,60,63,None,45,45,0,True,,,,left,1.3445528330048546,None,,,,,,,,,,,,,0,45,45,45,693.3110669589951,,,,,,,,,,,,,,,,,,,,,,,,,,,,,,,,,,,,,,,,,,,,,,,,,,,,,,,,,,,,,,,,,,,,,,,,,693.3043273749645,693.3110669589951,694.3099445420085,695.2933521249797,695.2933521249797,695.2933521249797,696.645645792014,left,1.3445528330048546,None,,,,,,,,,,,366288,001,2024-12-03_23h19.48.974,Test,2024.2.4,None,2024-12-03 23h19.57.492294 +0100,
1,150,0,55,None,46,46,0,False,,,,left,1.1569282499840483,None,,,,,,,,,,,,,0,46,46,46,696.6611094590044,,,,,,,,,,,,,,,,,,,,,,,,,,,,,,,,,,,,,,,,,,,,,,,,,,,,,,,,,,,,,,,,,,,,,,,,,696.6545231670025,696.6611094590044,697.6600071249995,698.6434327499592,698.6434327499592,698.6434327499592,699.8106560420129,left,1.1569282499840483,None,,,,,,,,,,,366288,001,2024-12-03_23h19.48.974,Test,2024.2.4,None,2024-12-03 23h19.57.492294 +0100,
4,150,0,36,None,47,47,0,False,,,,left,0.8737734580063261,None,,,,,,,,,,,,,0,47,47,47,699.8216698750039,,,,,,,,,,,,,,,,,,,,,,,,,,,,,,,,,,,,,,,,,,,,,,,,,,,,,,,,,,,,,,,,,,,,,,,,,699.8172134589986,699.8216698750039,700.8152135839919,701.8005159170134,701.8005159170134,701.8005159170134,702.6786805000156,left,0.8737734580063261,None,,,,,,,,,,,366288,001,2024-12-03_23h19.48.974,Test,2024.2.4,None,2024-12-03 23h19.57.492294 +0100,
51,150,90,57,None,48,48,0,True,,,,right,1.4001767920562997,None,,,,,,,,,,,,,0,48,48,48,702.6947342919884,,,,,,,,,,,,,,,,,,,,,,,,,,,,,,,,,,,,,,,,,,,,,,,,,,,,,,,,,,,,,,,,,,,,,,,,,702.6878840419813,702.6947342919884,703.6932582089794,704.676832749974,704.676832749974,704.676832749974,706.0799510419602,right,1.4001767920562997,None,,,,,,,,,,,366288,001,2024-12-03_23h19.48.974,Test,2024.2.4,None,2024-12-03 23h19.57.492294 +0100,
50,150,60,19,None,49,49,0,True,,,,right,2.537491291994229,None,,,,,,,,,,,,,0,49,49,49,706.0949327499839,,,,,,,,,,,,,,,,,,,,,,,,,,,,,,,,,,,,,,,,,,,,,,,,,,,,,,,,,,,,,,,,,,,,,,,,,706.0887980840052,706.0949327499839,707.0933300000033,708.0767134169582,708.0767134169582,708.0767134169582,710.6193349589594,right,2.537491291994229,None,,,,,,,,,,,366288,001,2024-12-03_23h19.48.974,Test,2024.2.4,None,2024-12-03 23h19.57.492294 +0100,
70,150,180,68,None,50,50,0,True,,,,left,1.0317379159969278,None,,,,,,,,,,,,,0,50,50,50,710.6339967499953,,,,,,,,,,,,,,,,,,,,,,,,,,,,,,,,,,,,,,,,,,,,,,,,,,,,,,,,,,,,,,,,,,,,,,,,,710.6277226670063,710.6339967499953,711.6311892920057,712.6183383339667,712.6183383339667,712.6183383339667,713.6522638339666,left,1.0317379159969278,None,,,,,,,,,,,366288,001,2024-12-03_23h19.48.974,Test,2024.2.4,None,2024-12-03 23h19.57.492294 +0100,
39,150,0,31,None,51,51,0,True,,,,left,0.8446454579825513,None,,,,,,,,,,,,,0,51,51,51,713.6665608339827,,,,,,,,,,,,,,,,,,,,,,,,,,,,,,,,,,,,,,,,,,,,,,,,,,,,,,,,,,,,,,,,,,,,,,,,,713.6604079999961,713.6665608339827,714.6600230420008,715.6502654589713,715.6502654589713,715.6502654589713,716.5019890000112,left,0.8446454579825513,None,,,,,,,,,,,366288,001,2024-12-03_23h19.48.974,Test,2024.2.4,None,2024-12-03 23h19.57.492294 +0100,
61,150,150,22,None,52,52,0,True,,,,left,1.299702749995049,None,,,,,,,,,,,,,0,52,52,52,716.5172006249777,,,,,,,,,,,,,,,,,,,,,,,,,,,,,,,,,,,,,,,,,,,,,,,,,,,,,,,,,,,,,,,,,,,,,,,,,716.5110576250008,716.5172006249777,717.5147013340029,718.501613417,718.501613417,718.501613417,719.8121567919734,left,1.299702749995049,None,,,,,,,,,,,366288,001,2024-12-03_23h19.48.974,Test,2024.2.4,None,2024-12-03 23h19.57.492294 +0100,
38,150,0,29,None,53,53,0,True,,,,left,0.7904171249829233,None,,,,,,,,,,,,,0,53,53,53,719.8274632919929,,,,,,,,,,,,,,,,,,,,,,,,,,,,,,,,,,,,,,,,,,,,,,,,,,,,,,,,,,,,,,,,,,,,,,,,,719.8213363749674,719.8274632919929,720.8154259590083,721.8101663750131,721.8101663750131,721.8101663750131,722.6121865839814,left,0.7904171249829233,None,,,,,,,,,,,366288,001,2024-12-03_23h19.48.974,Test,2024.2.4,None,2024-12-03 23h19.57.492294 +0100,
54,150,90,26,None,54,54,0,True,,,,left,0.7196176669676788,None,,,,,,,,,,,,,0,54,54,54,722.6276874169707,,,,,,,,,,,,,,,,,,,,,,,,,,,,,,,,,,,,,,,,,,,,,,,,,,,,,,,,,,,,,,,,,,,,,,,,,722.6214924589731,722.6276874169707,723.6266634589992,724.6102923339931,724.6102923339931,724.6102923339931,725.335050166992,left,0.7196176669676788,None,,,,,,,,,,,366288,001,2024-12-03_23h19.48.974,Test,2024.2.4,None,2024-12-03 23h19.57.492294 +0100,
48,150,60,49,None,55,55,0,True,,,,right,2.3330467910273,None,,,,,,,,,,,,,0,55,55,55,725.3500145839644,,,,,,,,,,,,,,,,,,,,,,,,,,,,,,,,,,,,,,,,,,,,,,,,,,,,,,,,,,,,,,,,,,,,,,,,,725.344142041984,725.3500145839644,726.3487690839684,727.3342421670095,727.3342421670095,727.3342421670095,729.6789040419972,right,2.3330467910273,None,,,,,,,,,,,366288,001,2024-12-03_23h19.48.974,Test,2024.2.4,None,2024-12-03 23h19.57.492294 +0100,
16,150,90,67,None,56,56,0,False,,,,left,1.0900107909692451,None,,,,,,,,,,,,,0,56,56,56,729.6931163339759,,,,,,,,,,,,,,,,,,,,,,,,,,,,,,,,,,,,,,,,,,,,,,,,,,,,,,,,,,,,,,,,,,,,,,,,,729.6870415419689,729.6931163339759,730.6821457089973,731.6767463340075,731.6767463340075,731.6767463340075,732.7689030420152,left,1.0900107909692451,None,,,,,,,,,,,366288,001,2024-12-03_23h19.48.974,Test,2024.2.4,None,2024-12-03 23h19.57.492294 +0100,
20,150,90,39,None,57,57,0,False,,,,left,1.902421124977991,None,,,,,,,,,,,,,0,57,57,57,732.7834791669738,,,,,,,,,,,,,,,,,,,,,,,,,,,,,,,,,,,,,,,,,,,,,,,,,,,,,,,,,,,,,,,,,,,,,,,,,732.7776286670123,732.7834791669738,733.7767603750108,734.7665124589694,734.7665124589694,734.7665124589694,736.6786710839951,left,1.902421124977991,None,,,,,,,,,,,366288,001,2024-12-03_23h19.48.974,Test,2024.2.4,None,2024-12-03 23h19.57.492294 +0100,
19,150,90,11,None,58,58,0,False,,,,left,1.1902045419556089,None,,,,,,,,,,,,,0,58,58,58,736.6980054589803,,,,,,,,,,,,,,,,,,,,,,,,,,,,,,,,,,,,,,,,,,,,,,,,,,,,,,,,,,,,,,,,,,,,,,,,,736.6919811670086,736.6980054589803,737.6932893749909,738.6752177499584,738.6752177499584,738.6752177499584,739.8682957499987,left,1.1902045419556089,None,,,,,,,,,,,366288,001,2024-12-03_23h19.48.974,Test,2024.2.4,None,2024-12-03 23h19.57.492294 +0100,
25,150,120,45,None,59,59,0,False,,,,right,0.8687463750247844,None,,,,,,,,,,,,,0,59,59,59,739.8836616249755,,,,,,,,,,,,,,,,,,,,,,,,,,,,,,,,,,,,,,,,,,,,,,,,,,,,,,,,,,,,,,,,,,,,,,,,,739.8775492919958,739.8836616249755,740.8820772090112,741.867184416973,741.867184416973,741.867184416973,742.7454677919741,right,0.8687463750247844,None,,,,,,,,,,,366288,001,2024-12-03_23h19.48.974,Test,2024.2.4,None,2024-12-03 23h19.57.492294 +0100,
68,150,180,7,None,60,60,0,True,,,,left,2.7507844580104575,None,,,,,,,,,,,,,0,60,60,60,742.7607682920061,,,,,,,,,,,,,,,,,,,,,,,,,,,,,,,,,,,,,,,,,,,,,,,,,,,,,,,,,,,,,,,,,,,,,,,,,742.7547159999958,742.7607682920061,743.7483119170065,744.7433837499702,744.7433837499702,744.7433837499702,747.5044069589931,left,2.7507844580104575,None,,,,,,,,,,,366288,001,2024-12-03_23h19.48.974,Test,2024.2.4,None,2024-12-03 23h19.57.492294 +0100,
33,150,180,42,None,61,61,0,False,,,,right,2.015078791009728,None,,,,,,,,,,,,,0,61,61,61,747.5149766670074,,,,,,,,,,,,,,,,,,,,,,,,,,,,,,,,,,,,,,,,,,,,,,,,,,,,,,,,,,,,,,,,,,,,,,,,,747.5105913750012,747.5149766670074,748.5100766249816,749.5011383339879,749.5011383339879,749.5011383339879,751.5185525839915,right,2.015078791009728,None,,,,,,,,,,,366288,001,2024-12-03_23h19.48.974,Test,2024.2.4,None,2024-12-03 23h19.57.492294 +0100,
23,150,120,51,None,62,62,0,False,,,,right,2.8148795000161044,None,,,,,,,,,,,,,0,62,62,62,751.5343512920081,,,,,,,,,,,,,,,,,,,,,,,,,,,,,,,,,,,,,,,,,,,,,,,,,,,,,,,,,,,,,,,,,,,,,,,,,751.5277809170075,751.5343512920081,752.5314576670062,753.5170712919789,753.5170712919789,753.5170712919789,756.3349307499593,right,2.8148795000161044,None,,,,,,,,,,,366288,001,2024-12-03_23h19.48.974,Test,2024.2.4,None,2024-12-03 23h19.57.492294 +0100,
8,150,30,53,None,63,63,0,False,,,,left,2.410419583960902,None,,,,,,,,,,,,,0,63,63,63,756.349781166995,,,,,,,,,,,,,,,,,,,,,,,,,,,,,,,,,,,,,,,,,,,,,,,,,,,,,,,,,,,,,,,,,,,,,,,,,756.3437327499851,756.349781166995,757.3435033750138,758.3333904590108,758.3333904590108,758.3333904590108,760.7469264169922,left,2.410419583960902,None,,,,,,,,,,,366288,001,2024-12-03_23h19.48.974,Test,2024.2.4,None,2024-12-03 23h19.57.492294 +0100,
17,150,90,15,None,64,64,0,False,,,,right,1.0773288749624044,None,,,,,,,,,,,,,0,64,64,64,760.7626310419873,,,,,,,,,,,,,,,,,,,,,,,,,,,,,,,,,,,,,,,,,,,,,,,,,,,,,,,,,,,,,,,,,,,,,,,,,760.7560276669683,760.7626310419873,761.7599601669936,762.743517083989,762.743517083989,762.743517083989,763.8293549999944,right,1.0773288749624044,None,,,,,,,,,,,366288,001,2024-12-03_23h19.48.974,Test,2024.2.4,None,2024-12-03 23h19.57.492294 +0100,
18,150,90,43,None,65,65,0,False,,,,right,2.9226335830171593,None,,,,,,,,,,,,,0,65,65,65,763.8458366669947,,,,,,,,,,,,,,,,,,,,,,,,,,,,,,,,,,,,,,,,,,,,,,,,,,,,,,,,,,,,,,,,,,,,,,,,,763.8382762499969,763.8458366669947,764.843286791991,765.8268653749838,765.8268653749838,765.8268653749838,768.751976333966,right,2.9226335830171593,None,,,,,,,,,,,366288,001,2024-12-03_23h19.48.974,Test,2024.2.4,None,2024-12-03 23h19.57.492294 +0100,
43,150,30,16,None,66,66,0,True,,,,right,2.0440653749974445,None,,,,,,,,,,,,,0,66,66,66,768.7678349589696,,,,,,,,,,,,,,,,,,,,,,,,,,,,,,,,,,,,,,,,,,,,,,,,,,,,,,,,,,,,,,,,,,,,,,,,,768.7613942499738,768.7678349589696,769.7654857499874,770.7505249169772,770.7505249169772,770.7505249169772,772.8021291249897,right,2.0440653749974445,None,,,,,,,,,,,366288,001,2024-12-03_23h19.48.974,Test,2024.2.4,None,2024-12-03 23h19.57.492294 +0100,
57,150,120,1,None,67,67,0,True,,,,right,1.5860547500196844,None,,,,,,,,,,,,,0,67,67,67,772.8173674590071,,,,,,,,,,,,,,,,,,,,,,,,,,,,,,,,,,,,,,,,,,,,,,,,,,,,,,,,,,,,,,,,,,,,,,,,,772.8108752919943,772.8173674590071,773.8146617920138,774.8007389589911,774.8007389589911,774.8007389589911,776.3961617919849,right,1.5860547500196844,None,,,,,,,,,,,366288,001,2024-12-03_23h19.48.974,Test,2024.2.4,None,2024-12-03 23h19.57.492294 +0100,
64,150,150,6,None,68,68,0,True,,,,right,1.99413970799651,None,,,,,,,,,,,,,0,68,68,68,776.4117635000148,,,,,,,,,,,,,,,,,,,,,,,,,,,,,,,,,,,,,,,,,,,,,,,,,,,,,,,,,,,,,,,,,,,,,,,,,776.4051436249865,776.4117635000148,777.4100573749747,778.3934590420104,778.3934590420104,778.3934590420104,780.3956081669894,right,1.99413970799651,None,,,,,,,,,,,366288,001,2024-12-03_23h19.48.974,Test,2024.2.4,None,2024-12-03 23h19.57.492294 +0100,
37,150,0,64,None,69,69,0,True,,,,left,0.884620749973692,None,,,,,,,,,,,,,0,69,69,69,780.412508333975,,,,,,,,,,,,,,,,,,,,,,,,,,,,,,,,,,,,,,,,,,,,,,,,,,,,,,,,,,,,,,,,,,,,,,,,,780.405912709015,780.412508333975,781.4099810000043,782.3933624589699,782.3933624589699,782.3933624589699,783.285405542003,left,0.884620749973692,None,,,,,,,,,,,366288,001,2024-12-03_23h19.48.974,Test,2024.2.4,None,2024-12-03 23h19.57.492294 +0100,
,,,,,,,,,,,,,,,,,,,,,,,,,,,,,,,,,,,,,,,,,,,,,,,,,,,,,,,,,,,,,,,,,,,,,,,,,,,,,,,,,,,,,,,,,,,,,,,,,,,,,,,,,,,,,,,,,,,,,783.2857300839969,783.296096874983,783.296096874983,798.3063012089697,space,14.997714457975235,None,366288,001,2024-12-03_23h19.48.974,Test,2024.2.4,None,2024-12-03 23h19.57.492294 +0100,
