Trial_Number,Exposure_Duration,Displacement_Angle,Stimulus,Response,thisN,thisTrialN,thisRepN,Is_Distractor,key_resp_3.keys,key_resp_3.rt,key_resp_3.duration,key_resp_7.keys,key_resp_7.rt,key_resp_7.duration,trials.thisRepN,trials.thisTrialN,trials.thisN,trials.thisIndex,trials_2.thisRepN,trials_2.thisTrialN,trials_2.thisN,trials_2.thisIndex,trials_3.thisRepN,trials_3.thisTrialN,trials_3.thisN,trials_3.thisIndex,trials_4.thisRepN,trials_4.thisTrialN,trials_4.thisN,trials_4.thisIndex,thisRow.t,notes,Intro_to_experiment.started,important1_2.started,key_resp_8.started,Intro_to_experiment.stopped,key_resp_8.keys,key_resp_8.rt,key_resp_8.duration,important.started,important1.started,key_resp_4.started,important.stopped,key_resp_4.keys,key_resp_4.rt,key_resp_4.duration,training_instruction.started,key_resp_9.started,important1_3.started,training_instruction.stopped,key_resp_9.keys,key_resp_9.rt,key_resp_9.duration,training_trial.started,cross.started,image.started,aperture.started,cross.stopped,image.stopped,aperture.stopped,training_trial.stopped,New_instruction.started,text.started,key_resp_2.started,New_instruction.stopped,key_resp_2.keys,key_resp_2.rt,key_resp_2.duration,test_trial.started,cross2.started,cross2.stopped,image_2.started,key_resp_3.started,aperture_2.started,image_2.stopped,aperture_2.stopped,text_3.started,test_trial.stopped,trials_2.key_resp_3.keys,trials_2.key_resp_3.rt,trials_2.key_resp_3.duration,start_blok_2.started,key_resp_5.started,text_4.started,start_blok_2.stopped,key_resp_5.keys,key_resp_5.rt,key_resp_5.duration,training_2.started,cross_2.started,image_3.started,aperture_3.started,cross_2.stopped,image_3.stopped,aperture_3.stopped,training_2.stopped,nyeste_instruks.started,text_5.started,key_resp_6.started,nyeste_instruks.stopped,key_resp_6.keys,key_resp_6.rt,key_resp_6.duration,test_2.started,cross2_2.started,cross2_2.stopped,image_4.started,key_resp_7.started,aperture_4.started,test_2.stopped,trials_4.key_resp_7.keys,trials_4.key_resp_7.rt,trials_4.key_resp_7.duration,image_4.stopped,aperture_4.stopped,text_6.started,Instruction.started,Instruktion.started,key_resp.started,Instruction.stopped,key_resp.keys,key_resp.rt,key_resp.duration,participant,session,date,expName,psychopyVersion,frameRate,expStart,
,,,,,,,,,,,,,,,,,,,,,,,,,,,,,,,,,0.012335832987446338,0.01943012501578778,0.01943012501578778,89.93105737504084,space,89.90399379096925,None,,,,,,,,,,,,,,,,,,,,,,,,,,,,,,,,,,,,,,,,,,,,,,,,,,,,,,,,,,,,,,,,,,,,,,,,,,,,,,,,,,,,,379009,001,2024-12-08_15h32.18.431,Test,2024.2.4,None,2024-12-08 15h32.59.212260 +0100,
,,,,,,,,,,,,,,,,,,,,,,,,,,,,,,,,,,,,,,,,89.93118933303049,89.95470341702458,89.95470341702458,106.83737058303086,space,16.878697417036165,None,,,,,,,,,,,,,,,,,,,,,,,,,,,,,,,,,,,,,,,,,,,,,,,,,,,,,,,,,,,,,,,,,,,,,,,,,,,,,,379009,001,2024-12-08_15h32.18.431,Test,2024.2.4,None,2024-12-08 15h32.59.212260 +0100,
,,,,,,,,,,,,,,,,,,,,,,,,,,,,,,,,,,,,,,,,,,,,,,,106.83757587498985,106.84882620803546,106.84882620803546,120.53144345799228,space,13.671369749994483,None,,,,,,,,,,,,,,,,,,,,,,,,,,,,,,,,,,,,,,,,,,,,,,,,,,,,,,,,,,,,,,,,,,,,,,,379009,001,2024-12-08_15h32.18.431,Test,2024.2.4,None,2024-12-08 15h32.59.212260 +0100,
15,150,60,13,None,0,0,0,,,,,,,,0,0,0,14,,,,,,,,,,,,,120.66068845801055,,,,,,,,,,,,,,,,,,,,,,,120.63050925004063,120.66068845801055,120.72827312501613,120.72827312501613,120.84870579204289,122.4291356250178,122.4291356250178,122.413827167009,,,,,,,,,,,,,,,,,,,,,,,,,,,,,,,,,,,,,,,,,,,,,,,,,,,,,,,,,,,,,,,379009,001,2024-12-08_15h32.18.431,Test,2024.2.4,None,2024-12-08 15h32.59.212260 +0100,
10,150,30,58,None,1,1,0,,,,,,,,0,1,1,9,,,,,,,,,,,,,122.4291356250178,,,,,,,,,,,,,,,,,,,,,,,122.42444400000386,122.44608741701813,122.62961983302375,122.62961983302375,122.63601741701132,124.32923737500096,124.32923737500096,124.3138209580211,,,,,,,,,,,,,,,,,,,,,,,,,,,,,,,,,,,,,,,,,,,,,,,,,,,,,,,,,,,,,,,379009,001,2024-12-08_15h32.18.431,Test,2024.2.4,None,2024-12-08 15h32.59.212260 +0100,
14,150,60,49,None,2,2,0,,,,,,,,0,2,2,13,,,,,,,,,,,,,124.32923737500096,,,,,,,,,,,,,,,,,,,,,,,124.3244434579974,124.33332875004271,124.52945904200897,124.52945904200897,124.52945904200897,126.22844183299458,126.22844183299458,126.21429345803335,,,,,,,,,,,,,,,,,,,,,,,,,,,,,,,,,,,,,,,,,,,,,,,,,,,,,,,,,,,,,,,379009,001,2024-12-08_15h32.18.431,Test,2024.2.4,None,2024-12-08 15h32.59.212260 +0100,
22,150,120,24,None,3,3,0,,,,,,,,0,3,3,21,,,,,,,,,,,,,126.22844183299458,,,,,,,,,,,,,,,,,,,,,,,126.22358600003645,126.23329312499845,126.42958304204512,126.42958304204512,126.42958304204512,128.12913316703634,128.12913316703634,128.11365912499605,,,,,,,,,,,,,,,,,,,,,,,,,,,,,,,,,,,,,,,,,,,,,,,,,,,,,,,,,,,,,,,379009,001,2024-12-08_15h32.18.431,Test,2024.2.4,None,2024-12-08 15h32.59.212260 +0100,
29,150,150,16,None,4,4,0,,,,,,,,0,4,4,28,,,,,,,,,,,,,128.12913316703634,,,,,,,,,,,,,,,,,,,,,,,128.12452841701452,128.14610787504353,128.32945954200113,128.32945954200113,128.33541641704505,130.02799150004284,130.02799150004284,130.01359783299267,,,,,,,,,,,,,,,,,,,,,,,,,,,,,,,,,,,,,,,,,,,,,,,,,,,,,,,,,,,,,,,379009,001,2024-12-08_15h32.18.431,Test,2024.2.4,None,2024-12-08 15h32.59.212260 +0100,
1,150,0,67,None,5,5,0,,,,,,,,0,5,5,0,,,,,,,,,,,,,130.02799150004284,,,,,,,,,,,,,,,,,,,,,,,130.02308691700455,130.0318591670366,130.2295286669978,130.2295286669978,130.2295286669978,131.92870987503557,131.92870987503557,131.91379341704305,,,,,,,,,,,,,,,,,,,,,,,,,,,,,,,,,,,,,,,,,,,,,,,,,,,,,,,,,,,,,,,379009,001,2024-12-08_15h32.18.431,Test,2024.2.4,None,2024-12-08 15h32.59.212260 +0100,
11,150,60,1,None,6,6,0,,,,,,,,0,6,6,10,,,,,,,,,,,,,131.92870987503557,,,,,,,,,,,,,,,,,,,,,,,131.9237463750178,131.93236920802156,132.12939933303278,132.12939933303278,132.12939933303278,133.82743325002957,133.82743325002957,133.8134942500037,,,,,,,,,,,,,,,,,,,,,,,,,,,,,,,,,,,,,,,,,,,,,,,,,,,,,,,,,,,,,,,379009,001,2024-12-08_15h32.18.431,Test,2024.2.4,None,2024-12-08 15h32.59.212260 +0100,
18,150,90,38,None,7,7,0,,,,,,,,0,7,7,17,,,,,,,,,,,,,133.82743325002957,,,,,,,,,,,,,,,,,,,,,,,133.8225117920083,133.83228050003527,134.0295314170071,134.0295314170071,134.0295314170071,135.7282984170015,135.7282984170015,135.71362033300102,,,,,,,,,,,,,,,,,,,,,,,,,,,,,,,,,,,,,,,,,,,,,,,,,,,,,,,,,,,,,,,379009,001,2024-12-08_15h32.18.431,Test,2024.2.4,None,2024-12-08 15h32.59.212260 +0100,
17,150,90,59,None,8,8,0,,,,,,,,0,8,8,16,,,,,,,,,,,,,135.7282984170015,,,,,,,,,,,,,,,,,,,,,,,135.7233174170251,135.73223725002026,135.9295409170445,135.9295409170445,135.9295409170445,137.62813583301613,137.62813583301613,137.61366654199082,,,,,,,,,,,,,,,,,,,,,,,,,,,,,,,,,,,,,,,,,,,,,,,,,,,,,,,,,,,,,,,379009,001,2024-12-08_15h32.18.431,Test,2024.2.4,None,2024-12-08 15h32.59.212260 +0100,
4,150,0,40,None,9,9,0,,,,,,,,0,9,9,3,,,,,,,,,,,,,137.62813583301613,,,,,,,,,,,,,,,,,,,,,,,137.62304895801935,137.6320945000043,137.82969475002028,137.82969475002028,137.82969475002028,139.52750437502982,139.52750437502982,139.51372575003188,,,,,,,,,,,,,,,,,,,,,,,,,,,,,,,,,,,,,,,,,,,,,,,,,,,,,,,,,,,,,,,379009,001,2024-12-08_15h32.18.431,Test,2024.2.4,None,2024-12-08 15h32.59.212260 +0100,
8,150,30,69,None,10,10,0,,,,,,,,0,10,10,7,,,,,,,,,,,,,139.52750437502982,,,,,,,,,,,,,,,,,,,,,,,139.5226469580084,139.53136687498773,139.72946458304068,139.72946458304068,139.72946458304068,141.4275420420454,141.4275420420454,141.4136672920431,,,,,,,,,,,,,,,,,,,,,,,,,,,,,,,,,,,,,,,,,,,,,,,,,,,,,,,,,,,,,,,379009,001,2024-12-08_15h32.18.431,Test,2024.2.4,None,2024-12-08 15h32.59.212260 +0100,
32,150,180,9,None,11,11,0,,,,,,,,0,11,11,31,,,,,,,,,,,,,141.4275420420454,,,,,,,,,,,,,,,,,,,,,,,141.42251674999716,141.43137987499358,141.62964108301094,141.62964108301094,141.62964108301094,143.32723445800366,143.32723445800366,143.313714332995,,,,,,,,,,,,,,,,,,,,,,,,,,,,,,,,,,,,,,,,,,,,,,,,,,,,,,,,,,,,,,,379009,001,2024-12-08_15h32.18.431,Test,2024.2.4,None,2024-12-08 15h32.59.212260 +0100,
33,150,180,27,None,12,12,0,,,,,,,,0,12,12,32,,,,,,,,,,,,,143.32723445800366,,,,,,,,,,,,,,,,,,,,,,,143.32231900002807,143.33111129200552,143.52944400004344,143.52944400004344,143.52944400004344,145.22755487501854,145.22755487501854,145.2138102920144,,,,,,,,,,,,,,,,,,,,,,,,,,,,,,,,,,,,,,,,,,,,,,,,,,,,,,,,,,,,,,,379009,001,2024-12-08_15h32.18.431,Test,2024.2.4,None,2024-12-08 15h32.59.212260 +0100,
12,150,60,18,None,13,13,0,,,,,,,,0,13,13,11,,,,,,,,,,,,,145.22755487501854,,,,,,,,,,,,,,,,,,,,,,,145.22255037503783,145.23230445804074,145.4295341669931,145.4295341669931,145.4295341669931,147.12739662500098,147.12739662500098,147.11377016699407,,,,,,,,,,,,,,,,,,,,,,,,,,,,,,,,,,,,,,,,,,,,,,,,,,,,,,,,,,,,,,,379009,001,2024-12-08_15h32.18.431,Test,2024.2.4,None,2024-12-08 15h32.59.212260 +0100,
28,150,150,42,None,14,14,0,,,,,,,,0,14,14,27,,,,,,,,,,,,,147.12739662500098,,,,,,,,,,,,,,,,,,,,,,,147.122497208009,147.1322446250124,147.3294640830136,147.3294640830136,147.3294640830136,149.02752470801352,149.02752470801352,149.0139011249994,,,,,,,,,,,,,,,,,,,,,,,,,,,,,,,,,,,,,,,,,,,,,,,,,,,,,,,,,,,,,,,379009,001,2024-12-08_15h32.18.431,Test,2024.2.4,None,2024-12-08 15h32.59.212260 +0100,
27,150,150,45,None,15,15,0,,,,,,,,0,15,15,26,,,,,,,,,,,,,149.02752470801352,,,,,,,,,,,,,,,,,,,,,,,149.02262358303415,149.03197462501703,149.2294911670033,149.2294911670033,149.2294911670033,150.92713820800418,150.92713820800418,150.9138967920444,,,,,,,,,,,,,,,,,,,,,,,,,,,,,,,,,,,,,,,,,,,,,,,,,,,,,,,,,,,,,,,379009,001,2024-12-08_15h32.18.431,Test,2024.2.4,None,2024-12-08 15h32.59.212260 +0100,
3,150,0,10,None,16,16,0,,,,,,,,0,16,16,2,,,,,,,,,,,,,150.92713820800418,,,,,,,,,,,,,,,,,,,,,,,150.92209045804339,150.93186020798748,151.12960091698915,151.12960091698915,151.12960091698915,152.82812825002475,152.82812825002475,152.8139182080049,,,,,,,,,,,,,,,,,,,,,,,,,,,,,,,,,,,,,,,,,,,,,,,,,,,,,,,,,,,,,,,379009,001,2024-12-08_15h32.18.431,Test,2024.2.4,None,2024-12-08 15h32.59.212260 +0100,
35,150,180,51,None,17,17,0,,,,,,,,0,17,17,34,,,,,,,,,,,,,152.82812825002475,,,,,,,,,,,,,,,,,,,,,,,152.82326600002125,152.83207150001545,153.02952166699106,153.02952166699106,153.02952166699106,154.7290769580286,154.7290769580286,154.71432562504197,,,,,,,,,,,,,,,,,,,,,,,,,,,,,,,,,,,,,,,,,,,,,,,,,,,,,,,,,,,,,,,379009,001,2024-12-08_15h32.18.431,Test,2024.2.4,None,2024-12-08 15h32.59.212260 +0100,
21,150,120,29,None,18,18,0,,,,,,,,0,18,18,20,,,,,,,,,,,,,154.7290769580286,,,,,,,,,,,,,,,,,,,,,,,154.7240064170328,154.73365583299892,154.92961554200156,154.92961554200156,154.92961554200156,156.62760891701328,156.62760891701328,156.61398829199607,,,,,,,,,,,,,,,,,,,,,,,,,,,,,,,,,,,,,,,,,,,,,,,,,,,,,,,,,,,,,,,379009,001,2024-12-08_15h32.18.431,Test,2024.2.4,None,2024-12-08 15h32.59.212260 +0100,
24,150,120,56,None,19,19,0,,,,,,,,0,19,19,23,,,,,,,,,,,,,156.62760891701328,,,,,,,,,,,,,,,,,,,,,,,156.62265174998902,156.6326742080273,156.82964295800775,156.82964295800775,156.82964295800775,158.52676462504314,158.52676462504314,158.5137212080299,,,,,,,,,,,,,,,,,,,,,,,,,,,,,,,,,,,,,,,,,,,,,,,,,,,,,,,,,,,,,,,379009,001,2024-12-08_15h32.18.431,Test,2024.2.4,None,2024-12-08 15h32.59.212260 +0100,
13,150,60,23,None,20,20,0,,,,,,,,0,20,20,12,,,,,,,,,,,,,158.52676462504314,,,,,,,,,,,,,,,,,,,,,,,158.52189999999246,158.5306930000079,158.72958904202096,158.72958904202096,158.72958904202096,160.4275696669938,160.4275696669938,160.41370274999645,,,,,,,,,,,,,,,,,,,,,,,,,,,,,,,,,,,,,,,,,,,,,,,,,,,,,,,,,,,,,,,379009,001,2024-12-08_15h32.18.431,Test,2024.2.4,None,2024-12-08 15h32.59.212260 +0100,
16,150,90,39,None,21,21,0,,,,,,,,0,21,21,15,,,,,,,,,,,,,160.4275696669938,,,,,,,,,,,,,,,,,,,,,,,160.42255437502172,160.4315535830101,160.62956825003494,160.62956825003494,160.62956825003494,162.32717029203195,162.32717029203195,162.31392704200698,,,,,,,,,,,,,,,,,,,,,,,,,,,,,,,,,,,,,,,,,,,,,,,,,,,,,,,,,,,,,,,379009,001,2024-12-08_15h32.18.431,Test,2024.2.4,None,2024-12-08 15h32.59.212260 +0100,
19,150,90,48,None,22,22,0,,,,,,,,0,22,22,18,,,,,,,,,,,,,162.32717029203195,,,,,,,,,,,,,,,,,,,,,,,162.3222097500111,162.33219891699264,162.52943704201607,162.52943704201607,162.52943704201607,164.22737854201114,164.22737854201114,164.21369704202516,,,,,,,,,,,,,,,,,,,,,,,,,,,,,,,,,,,,,,,,,,,,,,,,,,,,,,,,,,,,,,,379009,001,2024-12-08_15h32.18.431,Test,2024.2.4,None,2024-12-08 15h32.59.212260 +0100,
30,150,150,36,None,23,23,0,,,,,,,,0,23,23,29,,,,,,,,,,,,,164.22737854201114,,,,,,,,,,,,,,,,,,,,,,,164.222406957997,164.23210933303926,164.4295165000367,164.4295165000367,164.4295165000367,166.12738733302103,166.12738733302103,166.11386004200904,,,,,,,,,,,,,,,,,,,,,,,,,,,,,,,,,,,,,,,,,,,,,,,,,,,,,,,,,,,,,,,379009,001,2024-12-08_15h32.18.431,Test,2024.2.4,None,2024-12-08 15h32.59.212260 +0100,
25,150,120,35,None,24,24,0,,,,,,,,0,24,24,24,,,,,,,,,,,,,166.12738733302103,,,,,,,,,,,,,,,,,,,,,,,166.12243916699663,166.13232862501172,166.32961687503848,166.32961687503848,166.32961687503848,168.02723500004504,168.02723500004504,168.01374975004,,,,,,,,,,,,,,,,,,,,,,,,,,,,,,,,,,,,,,,,,,,,,,,,,,,,,,,,,,,,,,,379009,001,2024-12-08_15h32.18.431,Test,2024.2.4,None,2024-12-08 15h32.59.212260 +0100,
2,150,0,50,None,25,25,0,,,,,,,,0,25,25,1,,,,,,,,,,,,,168.02723500004504,,,,,,,,,,,,,,,,,,,,,,,168.02245504199527,168.03098170802696,168.22951208299492,168.22951208299492,168.22951208299492,169.92655483301496,169.92655483301496,169.91378737502964,,,,,,,,,,,,,,,,,,,,,,,,,,,,,,,,,,,,,,,,,,,,,,,,,,,,,,,,,,,,,,,379009,001,2024-12-08_15h32.18.431,Test,2024.2.4,None,2024-12-08 15h32.59.212260 +0100,
26,150,150,68,None,26,26,0,,,,,,,,0,26,26,25,,,,,,,,,,,,,169.92655483301496,,,,,,,,,,,,,,,,,,,,,,,169.92173470801208,169.9321862499928,170.12949087499874,170.12949087499874,170.12949087499874,171.8271994580282,171.8271994580282,171.81370491703274,,,,,,,,,,,,,,,,,,,,,,,,,,,,,,,,,,,,,,,,,,,,,,,,,,,,,,,,,,,,,,,379009,001,2024-12-08_15h32.18.431,Test,2024.2.4,None,2024-12-08 15h32.59.212260 +0100,
7,150,30,44,None,27,27,0,,,,,,,,0,27,27,6,,,,,,,,,,,,,171.8271994580282,,,,,,,,,,,,,,,,,,,,,,,171.8221720000147,171.83231337502366,172.0294504170306,172.0294504170306,172.0294504170306,173.7269961250131,173.7269961250131,173.71381820802344,,,,,,,,,,,,,,,,,,,,,,,,,,,,,,,,,,,,,,,,,,,,,,,,,,,,,,,,,,,,,,,379009,001,2024-12-08_15h32.18.431,Test,2024.2.4,None,2024-12-08 15h32.59.212260 +0100,
9,150,30,31,None,28,28,0,,,,,,,,0,28,28,8,,,,,,,,,,,,,173.7269961250131,,,,,,,,,,,,,,,,,,,,,,,173.72207862499636,173.73206904198742,173.92950241704239,173.92950241704239,173.92950241704239,175.62737300002482,175.62737300002482,175.61382162501104,,,,,,,,,,,,,,,,,,,,,,,,,,,,,,,,,,,,,,,,,,,,,,,,,,,,,,,,,,,,,,,379009,001,2024-12-08_15h32.18.431,Test,2024.2.4,None,2024-12-08 15h32.59.212260 +0100,
34,150,180,4,None,29,29,0,,,,,,,,0,29,29,33,,,,,,,,,,,,,175.62737300002482,,,,,,,,,,,,,,,,,,,,,,,175.62250350002432,175.63244191702688,175.82956000004197,175.82956000004197,175.82956000004197,177.5264934170409,177.5264934170409,177.5135729170288,,,,,,,,,,,,,,,,,,,,,,,,,,,,,,,,,,,,,,,,,,,,,,,,,,,,,,,,,,,,,,,379009,001,2024-12-08_15h32.18.431,Test,2024.2.4,None,2024-12-08 15h32.59.212260 +0100,
20,150,90,61,None,30,30,0,,,,,,,,0,30,30,19,,,,,,,,,,,,,177.5264934170409,,,,,,,,,,,,,,,,,,,,,,,177.52156883303542,177.53107145801187,177.72972879203735,177.72972879203735,177.72972879203735,179.42750954203075,179.42750954203075,179.41383091703756,,,,,,,,,,,,,,,,,,,,,,,,,,,,,,,,,,,,,,,,,,,,,,,,,,,,,,,,,,,,,,,379009,001,2024-12-08_15h32.18.431,Test,2024.2.4,None,2024-12-08 15h32.59.212260 +0100,
6,150,30,53,None,31,31,0,,,,,,,,0,31,31,5,,,,,,,,,,,,,179.42750954203075,,,,,,,,,,,,,,,,,,,,,,,179.42244812502759,179.43132012500428,179.6291410830454,179.6291410830454,179.6291410830454,181.32714825001312,181.32714825001312,181.31366120802704,,,,,,,,,,,,,,,,,,,,,,,,,,,,,,,,,,,,,,,,,,,,,,,,,,,,,,,,,,,,,,,379009,001,2024-12-08_15h32.18.431,Test,2024.2.4,None,2024-12-08 15h32.59.212260 +0100,
31,150,180,6,None,32,32,0,,,,,,,,0,32,32,30,,,,,,,,,,,,,181.32714825001312,,,,,,,,,,,,,,,,,,,,,,,181.32211558299605,181.33188145799795,181.52943887503352,181.52943887503352,181.52943887503352,183.2273417080287,183.2273417080287,183.2138734170003,,,,,,,,,,,,,,,,,,,,,,,,,,,,,,,,,,,,,,,,,,,,,,,,,,,,,,,,,,,,,,,379009,001,2024-12-08_15h32.18.431,Test,2024.2.4,None,2024-12-08 15h32.59.212260 +0100,
5,150,0,32,None,33,33,0,,,,,,,,0,33,33,4,,,,,,,,,,,,,183.2273417080287,,,,,,,,,,,,,,,,,,,,,,,183.22250875004102,183.23149533302058,183.42952054203488,183.42952054203488,183.42952054203488,185.12730049999664,185.12730049999664,185.11378975003026,,,,,,,,,,,,,,,,,,,,,,,,,,,,,,,,,,,,,,,,,,,,,,,,,,,,,,,,,,,,,,,379009,001,2024-12-08_15h32.18.431,Test,2024.2.4,None,2024-12-08 15h32.59.212260 +0100,
23,150,120,8,None,34,34,0,,,,,,,,0,34,34,22,,,,,,,,,,,,,185.12730049999664,,,,,,,,,,,,,,,,,,,,,,,185.12248079199344,185.13248783303425,185.32954091700958,185.32954091700958,185.32954091700958,187.01917816704372,187.01917816704372,187.01365887501743,,,,,,,,,,,,,,,,,,,,,,,,,,,,,,,,,,,,,,,,,,,,,,,,,,,,,,,,,,,,,,,379009,001,2024-12-08_15h32.18.431,Test,2024.2.4,None,2024-12-08 15h32.59.212260 +0100,
,,,,,,,,,,,,,,,,,,,,,,,,,,,,,,,,,,,,,,,,,,,,,,,,,,,,,,,,,,,,,,187.01389716699487,187.02792262501316,187.02792262501316,212.31376516702585,space,25.27891416597413,None,,,,,,,,,,,,,,,,,,,,,,,,,,,,,,,,,,,,,,,,,,,,,,,,,,,,,,,,379009,001,2024-12-08_15h32.18.431,Test,2024.2.4,None,2024-12-08 15h32.59.212260 +0100,
70,150,180,66,None,0,0,0,True,right,12.242155249987263,None,,,,,,,,0,0,0,0,,,,,,,,,212.34543787501752,,,,,,,,,,,,,,,,,,,,,,,,,,,,,,,,,,,,,,212.3359578330419,212.34543787501752,213.3347935830243,214.30430358299054,214.30430358299054,214.30430358299054,217.3020245420048,217.3020245420048,217.31465212500188,226.54903837502934,right,12.242155249987263,None,,,,,,,,,,,,,,,,,,,,,,,,,,,,,,,,,,,,,,,,,,,379009,001,2024-12-08_15h32.18.431,Test,2024.2.4,None,2024-12-08 15h32.59.212260 +0100,
31,150,180,6,None,1,1,0,False,right,0.8340543750091456,None,,,,,,,,0,1,1,1,,,,,,,,,226.56513500004075,,,,,,,,,,,,,,,,,,,,,,,,,,,,,,,,,,,,,,226.55877441703342,226.56513500004075,227.56266762502491,228.5462549580261,228.5462549580261,228.5462549580261,,,,229.39152766700136,right,0.8340543750091456,None,,,,,,,,,,,,,,,,,,,,,,,,,,,,,,,,,,,,,,,,,,,379009,001,2024-12-08_15h32.18.431,Test,2024.2.4,None,2024-12-08 15h32.59.212260 +0100,
38,150,0,34,None,2,2,0,True,left,2.12404137494741,None,,,,,,,,0,2,2,2,,,,,,,,,229.4159193750238,,,,,,,,,,,,,,,,,,,,,,,,,,,,,,,,,,,,,,229.4111156250001,229.4159193750238,230.41282658302225,231.39150550001068,231.39150550001068,231.39150550001068,,,,233.52162750001298,left,2.12404137494741,None,,,,,,,,,,,,,,,,,,,,,,,,,,,,,,,,,,,,,,,,,,,379009,001,2024-12-08_15h32.18.431,Test,2024.2.4,None,2024-12-08 15h32.59.212260 +0100,
5,150,0,32,None,3,3,0,False,left,2.438172416994348,None,,,,,,,,0,3,3,3,,,,,,,,,233.53852816700237,,,,,,,,,,,,,,,,,,,,,,,,,,,,,,,,,,,,,,233.53134516702266,233.53852816700237,234.53476787504042,235.51916237501428,235.51916237501428,235.51916237501428,,,,237.96493575000204,left,2.438172416994348,None,,,,,,,,,,,,,,,,,,,,,,,,,,,,,,,,,,,,,,,,,,,379009,001,2024-12-08_15h32.18.431,Test,2024.2.4,None,2024-12-08 15h32.59.212260 +0100,
8,150,30,69,None,4,4,0,False,right,0.9556332089705393,None,,,,,,,,0,4,4,4,,,,,,,,,237.98040558298817,,,,,,,,,,,,,,,,,,,,,,,,,,,,,,,,,,,,,,237.97342687501805,237.98040558298817,238.96812274999684,239.96300483302912,239.96300483302912,239.96300483302912,,,,240.92109645804157,right,0.9556332089705393,None,,,,,,,,,,,,,,,,,,,,,,,,,,,,,,,,,,,,,,,,,,,379009,001,2024-12-08_15h32.18.431,Test,2024.2.4,None,2024-12-08 15h32.59.212260 +0100,
36,150,0,70,None,5,5,0,True,left,1.3623933750204742,None,,,,,,,,0,5,5,5,,,,,,,,,240.93569158302853,,,,,,,,,,,,,,,,,,,,,,,,,,,,,,,,,,,,,,240.92948745802278,240.93569158302853,241.92961654200917,242.920111000014,242.920111000014,242.920111000014,,,,244.2879887080053,left,1.3623933750204742,None,,,,,,,,,,,,,,,,,,,,,,,,,,,,,,,,,,,,,,,,,,,379009,001,2024-12-08_15h32.18.431,Test,2024.2.4,None,2024-12-08 15h32.59.212260 +0100,
28,150,150,42,None,6,6,0,False,right,1.8491956670186482,None,,,,,,,,0,6,6,6,,,,,,,,,244.30263237503823,,,,,,,,,,,,,,,,,,,,,,,,,,,,,,,,,,,,,,244.29647320799995,244.30263237503823,245.29613333300222,246.28756158304168,246.28756158304168,246.28756158304168,,,,248.14813679200597,right,1.8491956670186482,None,,,,,,,,,,,,,,,,,,,,,,,,,,,,,,,,,,,,,,,,,,,379009,001,2024-12-08_15h32.18.431,Test,2024.2.4,None,2024-12-08 15h32.59.212260 +0100,
15,150,60,13,None,7,7,0,False,left,3.9835662079858594,None,,,,,,,,0,7,7,7,,,,,,,,,248.16380345803918,,,,,,,,,,,,,,,,,,,,,,,,,,,,,,,,,,,,,,248.1569133750163,248.16380345803918,249.16302354203071,250.1463039169903,250.1463039169903,250.1463039169903,253.1348224169924,253.1348224169924,253.14611683302792,254.13232791703194,left,3.9835662079858594,None,,,,,,,,,,,,,,,,,,,,,,,,,,,,,,,,,,,,,,,,,,,379009,001,2024-12-08_15h32.18.431,Test,2024.2.4,None,2024-12-08 15h32.59.212260 +0100,
25,150,120,35,None,8,8,0,False,right,1.196998875006102,None,,,,,,,,0,8,8,8,,,,,,,,,254.14762450003764,,,,,,,,,,,,,,,,,,,,,,,,,,,,,,,,,,,,,,254.14144125004532,254.14762450003764,255.1462538749911,256.1284037500154,256.1284037500154,256.1284037500154,,,,257.3315934170387,right,1.196998875006102,None,,,,,,,,,,,,,,,,,,,,,,,,,,,,,,,,,,,,,,,,,,,379009,001,2024-12-08_15h32.18.431,Test,2024.2.4,None,2024-12-08 15h32.59.212260 +0100,
63,150,150,54,None,9,9,0,True,right,1.455862500006333,None,,,,,,,,0,9,9,9,,,,,,,,,257.3486807500012,,,,,,,,,,,,,,,,,,,,,,,,,,,,,,,,,,,,,,257.3410244170227,257.3486807500012,258.3461380000226,259.329566542001,259.329566542001,259.329566542001,,,,260.7881877500331,right,1.455862500006333,None,,,,,,,,,,,,,,,,,,,,,,,,,,,,,,,,,,,,,,,,,,,379009,001,2024-12-08_15h32.18.431,Test,2024.2.4,None,2024-12-08 15h32.59.212260 +0100,
9,150,30,31,None,10,10,0,False,left,1.3661543329944834,None,,,,,,,,0,10,10,10,,,,,,,,,260.8035842080135,,,,,,,,,,,,,,,,,,,,,,,,,,,,,,,,,,,,,,260.7970895830076,260.8035842080135,261.800628875033,262.7874298749957,262.7874298749957,262.7874298749957,,,,264.16414362500655,left,1.3661543329944834,None,,,,,,,,,,,,,,,,,,,,,,,,,,,,,,,,,,,,,,,,,,,379009,001,2024-12-08_15h32.18.431,Test,2024.2.4,None,2024-12-08 15h32.59.212260 +0100,
19,150,90,48,None,11,11,0,False,right,1.7942147909780033,None,,,,,,,,0,11,11,11,,,,,,,,,264.17666429199744,,,,,,,,,,,,,,,,,,,,,,,,,,,,,,,,,,,,,,264.17216100002406,264.17666429199744,265.1680836250307,266.1630336670205,266.1630336670205,266.1630336670205,,,,267.9649276669952,right,1.7942147909780033,None,,,,,,,,,,,,,,,,,,,,,,,,,,,,,,,,,,,,,,,,,,,379009,001,2024-12-08_15h32.18.431,Test,2024.2.4,None,2024-12-08 15h32.59.212260 +0100,
26,150,150,68,None,12,12,0,False,left,1.0787926249904558,None,,,,,,,,0,12,12,12,,,,,,,,,267.98048454202944,,,,,,,,,,,,,,,,,,,,,,,,,,,,,,,,,,,,,,267.9739155000425,267.98048454202944,268.9687908749911,269.9631097500096,269.9631097500096,269.9631097500096,,,,271.04897745803464,left,1.0787926249904558,None,,,,,,,,,,,,,,,,,,,,,,,,,,,,,,,,,,,,,,,,,,,379009,001,2024-12-08_15h32.18.431,Test,2024.2.4,None,2024-12-08 15h32.59.212260 +0100,
56,150,120,3,None,13,13,0,True,left,1.3425247080158442,None,,,,,,,,0,13,13,13,,,,,,,,,271.0643179999897,,,,,,,,,,,,,,,,,,,,,,,,,,,,,,,,,,,,,,271.05789129203185,271.0643179999897,272.0628439580323,273.0463006669888,273.0463006669888,273.0463006669888,,,,274.3984076670022,left,1.3425247080158442,None,,,,,,,,,,,,,,,,,,,,,,,,,,,,,,,,,,,,,,,,,,,379009,001,2024-12-08_15h32.18.431,Test,2024.2.4,None,2024-12-08 15h32.59.212260 +0100,
49,150,60,11,None,14,14,0,True,right,1.6009721250156872,None,,,,,,,,0,14,14,14,,,,,,,,,274.4136682500248,,,,,,,,,,,,,,,,,,,,,,,,,,,,,,,,,,,,,,274.40696066699456,274.4136682500248,275.40045650000684,276.39619550004136,276.39619550004136,276.39619550004136,,,,278.0042059580446,right,1.6009721250156872,None,,,,,,,,,,,,,,,,,,,,,,,,,,,,,,,,,,,,,,,,,,,379009,001,2024-12-08_15h32.18.431,Test,2024.2.4,None,2024-12-08 15h32.59.212260 +0100,
6,150,30,53,None,15,15,0,False,left,1.027566208038479,None,,,,,,,,0,15,15,15,,,,,,,,,278.0193285419955,,,,,,,,,,,,,,,,,,,,,,,,,,,,,,,,,,,,,,278.01314329198794,278.0193285419955,279.01278525003,280.0034740000265,280.0034740000265,280.0034740000265,,,,281.0377990829875,left,1.027566208038479,None,,,,,,,,,,,,,,,,,,,,,,,,,,,,,,,,,,,,,,,,,,,379009,001,2024-12-08_15h32.18.431,Test,2024.2.4,None,2024-12-08 15h32.59.212260 +0100,
62,150,150,19,None,16,16,0,True,right,1.10165229201084,None,,,,,,,,0,16,16,16,,,,,,,,,281.05261304200394,,,,,,,,,,,,,,,,,,,,,,,,,,,,,,,,,,,,,,281.0466064999928,281.05261304200394,282.0461489169975,283.0368358330452,283.0368358330452,283.0368358330452,,,,284.14834325003903,right,1.10165229201084,None,,,,,,,,,,,,,,,,,,,,,,,,,,,,,,,,,,,,,,,,,,,379009,001,2024-12-08_15h32.18.431,Test,2024.2.4,None,2024-12-08 15h32.59.212260 +0100,
45,150,30,2,None,17,17,0,True,left,1.1854856249992736,None,,,,,,,,0,17,17,17,,,,,,,,,284.1633332920028,,,,,,,,,,,,,,,,,,,,,,,,,,,,,,,,,,,,,,284.1572291670018,284.1633332920028,285.1508917500032,286.14631104201544,286.14631104201544,286.14631104201544,,,,287.3376897080452,left,1.1854856249992736,None,,,,,,,,,,,,,,,,,,,,,,,,,,,,,,,,,,,,,,,,,,,379009,001,2024-12-08_15h32.18.431,Test,2024.2.4,None,2024-12-08 15h32.59.212260 +0100,
34,150,180,4,None,18,18,0,False,left,1.3612332079792395,None,,,,,,,,0,18,18,18,,,,,,,,,287.35182120802347,,,,,,,,,,,,,,,,,,,,,,,,,,,,,,,,,,,,,,287.3459981670021,287.35182120802347,288.3461403330439,289.3364529579994,289.3364529579994,289.3364529579994,,,,290.70480862504337,left,1.3612332079792395,None,,,,,,,,,,,,,,,,,,,,,,,,,,,,,,,,,,,,,,,,,,,379009,001,2024-12-08_15h32.18.431,Test,2024.2.4,None,2024-12-08 15h32.59.212260 +0100,
66,150,180,28,None,19,19,0,True,right,1.572535582992714,None,,,,,,,,0,19,19,19,,,,,,,,,290.71894937503384,,,,,,,,,,,,,,,,,,,,,,,,,,,,,,,,,,,,,,290.71276333299465,290.71894937503384,291.713072707993,292.70372579200193,292.70372579200193,292.70372579200193,,,,294.2816465829965,right,1.572535582992714,None,,,,,,,,,,,,,,,,,,,,,,,,,,,,,,,,,,,,,,,,,,,379009,001,2024-12-08_15h32.18.431,Test,2024.2.4,None,2024-12-08 15h32.59.212260 +0100,
30,150,150,36,None,20,20,0,False,right,1.5204110000049695,None,,,,,,,,0,20,20,20,,,,,,,,,294.296623000002,,,,,,,,,,,,,,,,,,,,,,,,,,,,,,,,,,,,,,294.28984375001164,294.296623000002,295.28498158301227,296.27957537502516,296.27957537502516,296.27957537502516,,,,297.80396550003206,right,1.5204110000049695,None,,,,,,,,,,,,,,,,,,,,,,,,,,,,,,,,,,,,,,,,,,,379009,001,2024-12-08_15h32.18.431,Test,2024.2.4,None,2024-12-08 15h32.59.212260 +0100,
46,150,60,25,None,21,21,0,True,left,0.921714833995793,None,,,,,,,,0,21,21,21,,,,,,,,,297.81845237500966,,,,,,,,,,,,,,,,,,,,,,,,,,,,,,,,,,,,,,297.81228941702284,297.81845237500966,298.8128040829906,299.80382037500385,299.80382037500385,299.80382037500385,,,,300.73163062502863,left,0.921714833995793,None,,,,,,,,,,,,,,,,,,,,,,,,,,,,,,,,,,,,,,,,,,,379009,001,2024-12-08_15h32.18.431,Test,2024.2.4,None,2024-12-08 15h32.59.212260 +0100,
16,150,90,39,None,22,22,0,False,left,1.5554328340222128,None,,,,,,,,0,22,22,22,,,,,,,,,300.7489306250354,,,,,,,,,,,,,,,,,,,,,,,,,,,,,,,,,,,,,,300.7410456670332,300.7489306250354,301.7462726670201,302.72966208303114,302.72966208303114,302.72966208303114,,,,304.28736537502846,left,1.5554328340222128,None,,,,,,,,,,,,,,,,,,,,,,,,,,,,,,,,,,,,,,,,,,,379009,001,2024-12-08_15h32.18.431,Test,2024.2.4,None,2024-12-08 15h32.59.212260 +0100,
52,150,90,5,None,23,23,0,True,left,1.7735204999917187,None,,,,,,,,0,23,23,23,,,,,,,,,304.3026274170261,,,,,,,,,,,,,,,,,,,,,,,,,,,,,,,,,,,,,,304.29617491702083,304.3026274170261,305.2961597079993,306.2861257920158,306.2861257920158,306.2861257920158,,,,308.0657897500205,left,1.7735204999917187,None,,,,,,,,,,,,,,,,,,,,,,,,,,,,,,,,,,,,,,,,,,,379009,001,2024-12-08_15h32.18.431,Test,2024.2.4,None,2024-12-08 15h32.59.212260 +0100,
17,150,90,59,None,24,24,0,False,right,2.1896459159906954,None,,,,,,,,0,24,24,24,,,,,,,,,308.08149904198945,,,,,,,,,,,,,,,,,,,,,,,,,,,,,,,,,,,,,,308.07492358301533,308.08149904198945,309.0794811670203,310.0627839580411,310.0627839580411,310.0627839580411,,,,312.2547077080235,right,2.1896459159906954,None,,,,,,,,,,,,,,,,,,,,,,,,,,,,,,,,,,,,,,,,,,,379009,001,2024-12-08_15h32.18.431,Test,2024.2.4,None,2024-12-08 15h32.59.212260 +0100,
60,150,120,37,None,25,25,0,True,right,1.5936083330307156,None,,,,,,,,0,25,25,25,,,,,,,,,312.2700245419983,,,,,,,,,,,,,,,,,,,,,,,,,,,,,,,,,,,,,,312.26412854203954,312.2700245419983,313.2673064999981,314.25449358299375,314.25449358299375,314.25449358299375,,,,315.8543937919894,right,1.5936083330307156,None,,,,,,,,,,,,,,,,,,,,,,,,,,,,,,,,,,,,,,,,,,,379009,001,2024-12-08_15h32.18.431,Test,2024.2.4,None,2024-12-08 15h32.59.212260 +0100,
68,150,180,43,None,26,26,0,True,right,1.3031715829856694,None,,,,,,,,0,26,26,26,,,,,,,,,315.86836175003555,,,,,,,,,,,,,,,,,,,,,,,,,,,,,,,,,,,,,,315.86269083298976,315.86836175003555,316.8629414580064,317.85415712499525,317.85415712499525,317.85415712499525,,,,319.164849666995,right,1.3031715829856694,None,,,,,,,,,,,,,,,,,,,,,,,,,,,,,,,,,,,,,,,,,,,379009,001,2024-12-08_15h32.18.431,Test,2024.2.4,None,2024-12-08 15h32.59.212260 +0100,
40,150,0,60,None,27,27,0,True,left,1.4851571660256013,None,,,,,,,,0,27,27,27,,,,,,,,,319.18002770800376,,,,,,,,,,,,,,,,,,,,,,,,,,,,,,,,,,,,,,319.17401154199615,319.18002770800376,320.168274375028,321.162976792024,321.162976792024,321.162976792024,,,,322.654304458003,left,1.4851571660256013,None,,,,,,,,,,,,,,,,,,,,,,,,,,,,,,,,,,,,,,,,,,,379009,001,2024-12-08_15h32.18.431,Test,2024.2.4,None,2024-12-08 15h32.59.212260 +0100,
3,150,0,10,None,28,28,0,False,left,1.455314291990362,None,,,,,,,,0,28,28,28,,,,,,,,,322.6682197499904,,,,,,,,,,,,,,,,,,,,,,,,,,,,,,,,,,,,,,322.66245820804033,322.6682197499904,323.66298712498974,324.6530857500038,324.6530857500038,324.6530857500038,,,,326.1149736670195,left,1.455314291990362,None,,,,,,,,,,,,,,,,,,,,,,,,,,,,,,,,,,,,,,,,,,,379009,001,2024-12-08_15h32.18.431,Test,2024.2.4,None,2024-12-08 15h32.59.212260 +0100,
59,150,120,26,None,29,29,0,True,left,1.1344052500207908,None,,,,,,,,0,29,29,29,,,,,,,,,326.1302265000413,,,,,,,,,,,,,,,,,,,,,,,,,,,,,,,,,,,,,,326.12361966702156,326.1302265000413,327.11806450004224,328.11298991699005,328.11298991699005,328.11298991699005,,,,329.2565303330193,left,1.1344052500207908,None,,,,,,,,,,,,,,,,,,,,,,,,,,,,,,,,,,,,,,,,,,,379009,001,2024-12-08_15h32.18.431,Test,2024.2.4,None,2024-12-08 15h32.59.212260 +0100,
39,150,0,41,None,30,30,0,True,left,1.6011054160189815,None,,,,,,,,0,30,30,30,,,,,,,,,329.26898941700347,,,,,,,,,,,,,,,,,,,,,,,,,,,,,,,,,,,,,,329.264096125029,329.26898941700347,330.2628162500332,331.25310683302814,331.25310683302814,331.25310683302814,,,,332.8648365000263,left,1.6011054160189815,None,,,,,,,,,,,,,,,,,,,,,,,,,,,,,,,,,,,,,,,,,,,379009,001,2024-12-08_15h32.18.431,Test,2024.2.4,None,2024-12-08 15h32.59.212260 +0100,
21,150,120,29,None,31,31,0,False,right,1.4349181249854155,None,,,,,,,,0,31,31,31,,,,,,,,,332.8804504169966,,,,,,,,,,,,,,,,,,,,,,,,,,,,,,,,,,,,,,332.8737801249954,332.8804504169966,333.8795722500072,334.8629532920313,334.8629532920313,334.8629532920313,,,,336.30532708304236,right,1.4349181249854155,None,,,,,,,,,,,,,,,,,,,,,,,,,,,,,,,,,,,,,,,,,,,379009,001,2024-12-08_15h32.18.431,Test,2024.2.4,None,2024-12-08 15h32.59.212260 +0100,
7,150,30,44,None,32,32,0,False,left,2.013784124981612,None,,,,,,,,0,32,32,32,,,,,,,,,336.3204228330287,,,,,,,,,,,,,,,,,,,,,,,,,,,,,,,,,,,,,,336.3141131250304,336.3204228330287,337.3180037920247,338.3032121669967,338.3032121669967,338.3032121669967,,,,340.3217601249926,left,2.013784124981612,None,,,,,,,,,,,,,,,,,,,,,,,,,,,,,,,,,,,,,,,,,,,379009,001,2024-12-08_15h32.18.431,Test,2024.2.4,None,2024-12-08 15h32.59.212260 +0100,
42,150,30,57,None,33,33,0,True,right,1.8940021250164136,None,,,,,,,,0,33,33,33,,,,,,,,,340.3361126250238,,,,,,,,,,,,,,,,,,,,,,,,,,,,,,,,,,,,,,340.33021920803003,340.3361126250238,341.3295455829939,342.31982091703685,342.31982091703685,342.31982091703685,,,,344.2231960000354,right,1.8940021250164136,None,,,,,,,,,,,,,,,,,,,,,,,,,,,,,,,,,,,,,,,,,,,379009,001,2024-12-08_15h32.18.431,Test,2024.2.4,None,2024-12-08 15h32.59.212260 +0100,
41,150,30,33,None,34,34,0,True,left,2.0767753749969415,None,,,,,,,,0,34,34,34,,,,,,,,,344.2363530000439,,,,,,,,,,,,,,,,,,,,,,,,,,,,,,,,,,,,,,344.23142008302966,344.2363530000439,345.23523333302,346.22090900002513,346.22090900002513,346.22090900002513,,,,348.3042728329892,left,2.0767753749969415,None,,,,,,,,,,,,,,,,,,,,,,,,,,,,,,,,,,,,,,,,,,,379009,001,2024-12-08_15h32.18.431,Test,2024.2.4,None,2024-12-08 15h32.59.212260 +0100,
35,150,180,51,None,35,35,0,False,left,1.9353194590075873,None,,,,,,,,0,35,35,35,,,,,,,,,348.3191354169976,,,,,,,,,,,,,,,,,,,,,,,,,,,,,,,,,,,,,,348.3128068750375,348.3191354169976,349.3128439580323,350.3036182920332,350.3036182920332,350.3036182920332,,,,352.2482488329988,left,1.9353194590075873,None,,,,,,,,,,,,,,,,,,,,,,,,,,,,,,,,,,,,,,,,,,,379009,001,2024-12-08_15h32.18.431,Test,2024.2.4,None,2024-12-08 15h32.59.212260 +0100,
50,150,60,62,None,36,36,0,True,left,1.8777391249896027,None,,,,,,,,0,36,36,36,,,,,,,,,352.26368383300724,,,,,,,,,,,,,,,,,,,,,,,,,,,,,,,,,,,,,,352.25707879202673,352.26368383300724,353.2515142080374,354.2463452920201,354.2463452920201,354.2463452920201,,,,356.1315342920134,left,1.8777391249896027,None,,,,,,,,,,,,,,,,,,,,,,,,,,,,,,,,,,,,,,,,,,,379009,001,2024-12-08_15h32.18.431,Test,2024.2.4,None,2024-12-08 15h32.59.212260 +0100,
54,150,90,64,None,37,37,0,True,right,0.6686664160224609,None,,,,,,,,0,37,37,37,,,,,,,,,356.1455944580375,,,,,,,,,,,,,,,,,,,,,,,,,,,,,,,,,,,,,,356.1382981670322,356.1455944580375,357.1341148749925,358.12961187498877,358.12961187498877,358.12961187498877,,,,358.8045722080278,right,0.6686664160224609,None,,,,,,,,,,,,,,,,,,,,,,,,,,,,,,,,,,,,,,,,,,,379009,001,2024-12-08_15h32.18.431,Test,2024.2.4,None,2024-12-08 15h32.59.212260 +0100,
29,150,150,16,None,38,38,0,False,right,1.750807583972346,None,,,,,,,,0,38,38,38,,,,,,,,,358.81834404199617,,,,,,,,,,,,,,,,,,,,,,,,,,,,,,,,,,,,,,358.8127435420174,358.81834404199617,359.8127341250074,360.8047585420427,360.8047585420427,360.8047585420427,,,,362.56480654201005,right,1.750807583972346,None,,,,,,,,,,,,,,,,,,,,,,,,,,,,,,,,,,,,,,,,,,,379009,001,2024-12-08_15h32.18.431,Test,2024.2.4,None,2024-12-08 15h32.59.212260 +0100,
57,150,120,46,None,39,39,0,True,right,1.2426794579951093,None,,,,,,,,0,39,39,39,,,,,,,,,362.5805710830027,,,,,,,,,,,,,,,,,,,,,,,,,,,,,,,,,,,,,,362.5737215830013,362.5805710830027,363.57946037501097,364.56301849999,364.56301849999,364.56301849999,,,,365.814867417037,right,1.2426794579951093,None,,,,,,,,,,,,,,,,,,,,,,,,,,,,,,,,,,,,,,,,,,,379009,001,2024-12-08_15h32.18.431,Test,2024.2.4,None,2024-12-08 15h32.59.212260 +0100,
18,150,90,38,None,40,40,0,False,right,1.450109582976438,None,,,,,,,,0,40,40,40,,,,,,,,,365.8300457079895,,,,,,,,,,,,,,,,,,,,,,,,,,,,,,,,,,,,,,365.8235014580423,365.8300457079895,366.8180402080179,367.8129832080449,367.8129832080449,367.8129832080449,,,,369.26569041702896,right,1.450109582976438,None,,,,,,,,,,,,,,,,,,,,,,,,,,,,,,,,,,,,,,,,,,,379009,001,2024-12-08_15h32.18.431,Test,2024.2.4,None,2024-12-08 15h32.59.212260 +0100,
20,150,90,61,None,41,41,0,False,right,2.6106644579558633,None,,,,,,,,0,41,41,41,,,,,,,,,369.28045158303576,,,,,,,,,,,,,,,,,,,,,,,,,,,,,,,,,,,,,,369.2739482920151,369.28045158303576,370.27959541702876,371.2629572500009,371.2629572500009,371.2629572500009,,,,373.8816288750386,right,2.6106644579558633,None,,,,,,,,,,,,,,,,,,,,,,,,,,,,,,,,,,,,,,,,,,,379009,001,2024-12-08_15h32.18.431,Test,2024.2.4,None,2024-12-08 15h32.59.212260 +0100,
58,150,120,12,None,42,42,0,True,right,0.9047439580317587,None,,,,,,,,0,42,42,42,,,,,,,,,373.89712345803855,,,,,,,,,,,,,,,,,,,,,,,,,,,,,,,,,,,,,,373.8903984170174,373.89712345803855,374.8962166670244,375.87954891700065,375.87954891700065,375.87954891700065,,,,376.7884675830137,right,0.9047439580317587,None,,,,,,,,,,,,,,,,,,,,,,,,,,,,,,,,,,,,,,,,,,,379009,001,2024-12-08_15h32.18.431,Test,2024.2.4,None,2024-12-08 15h32.59.212260 +0100,
10,150,30,58,None,43,43,0,False,left,0.7310682500246912,None,,,,,,,,0,43,43,43,,,,,,,,,376.803432582994,,,,,,,,,,,,,,,,,,,,,,,,,,,,,,,,,,,,,,376.7972822920419,376.803432582994,377.80175262503326,378.7878258750425,378.7878258750425,378.7878258750425,,,,379.5216502920375,left,0.7310682500246912,None,,,,,,,,,,,,,,,,,,,,,,,,,,,,,,,,,,,,,,,,,,,379009,001,2024-12-08_15h32.18.431,Test,2024.2.4,None,2024-12-08 15h32.59.212260 +0100,
13,150,60,23,None,44,44,0,False,left,1.4283736249781214,None,,,,,,,,0,44,44,44,,,,,,,,,379.5366544169956,,,,,,,,,,,,,,,,,,,,,,,,,,,,,,,,,,,,,,379.5300268330029,379.5366544169956,380.534909500042,381.51994520804146,381.51994520804146,381.51994520804146,,,,382.95486812503077,left,1.4283736249781214,None,,,,,,,,,,,,,,,,,,,,,,,,,,,,,,,,,,,,,,,,,,,379009,001,2024-12-08_15h32.18.431,Test,2024.2.4,None,2024-12-08 15h32.59.212260 +0100,
14,150,60,49,None,45,45,0,False,right,1.1946924169897102,None,,,,,,,,0,45,45,45,,,,,,,,,382.9704960419913,,,,,,,,,,,,,,,,,,,,,,,,,,,,,,,,,,,,,,382.9637761670165,382.9704960419913,383.9676628750167,384.9531152920099,384.9531152920099,384.9531152920099,,,,386.154912833008,right,1.1946924169897102,None,,,,,,,,,,,,,,,,,,,,,,,,,,,,,,,,,,,,,,,,,,,379009,001,2024-12-08_15h32.18.431,Test,2024.2.4,None,2024-12-08 15h32.59.212260 +0100,
47,150,60,21,None,46,46,0,True,left,3.0766604160307907,None,,,,,,,,0,46,46,46,,,,,,,,,386.16937729204074,,,,,,,,,,,,,,,,,,,,,,,,,,,,,,,,,,,,,,386.16352037503384,386.16937729204074,387.1628616669914,388.15340770804323,388.15340770804323,388.15340770804323,391.15261837502476,391.15261837502476,391.15261837502476,391.23236104199896,left,3.0766604160307907,None,,,,,,,,,,,,,,,,,,,,,,,,,,,,,,,,,,,,,,,,,,,379009,001,2024-12-08_15h32.18.431,Test,2024.2.4,None,2024-12-08 15h32.59.212260 +0100,
67,150,180,47,None,47,47,0,True,right,2.416738500003703,None,,,,,,,,0,47,47,47,,,,,,,,,391.24731900001643,,,,,,,,,,,,,,,,,,,,,,,,,,,,,,,,,,,,,,391.2411857920233,391.24731900001643,392.2462420000229,393.2298018329893,393.2298018329893,393.2298018329893,,,,395.6490246670437,right,2.416738500003703,None,,,,,,,,,,,,,,,,,,,,,,,,,,,,,,,,,,,,,,,,,,,379009,001,2024-12-08_15h32.18.431,Test,2024.2.4,None,2024-12-08 15h32.59.212260 +0100,
61,150,150,14,None,48,48,0,True,left,2.6054890830419026,None,,,,,,,,0,48,48,48,,,,,,,,,395.6648704170366,,,,,,,,,,,,,,,,,,,,,,,,,,,,,,,,,,,,,,395.6579660419957,395.6648704170366,396.6629050830379,397.64642649999587,397.64642649999587,397.64642649999587,,,,400.25423550000414,left,2.6054890830419026,None,,,,,,,,,,,,,,,,,,,,,,,,,,,,,,,,,,,,,,,,,,,379009,001,2024-12-08_15h32.18.431,Test,2024.2.4,None,2024-12-08 15h32.59.212260 +0100,
55,150,90,15,None,49,49,0,True,left,1.0161327920504846,None,,,,,,,,0,49,49,49,,,,,,,,,400.2699259580113,,,,,,,,,,,,,,,,,,,,,,,,,,,,,,,,,,,,,,400.26324637501966,400.2699259580113,401.2681297920062,402.2544044580427,402.2544044580427,402.2544044580427,,,,403.2974427920417,left,1.0161327920504846,None,,,,,,,,,,,,,,,,,,,,,,,,,,,,,,,,,,,,,,,,,,,379009,001,2024-12-08_15h32.18.431,Test,2024.2.4,None,2024-12-08 15h32.59.212260 +0100,
48,150,60,7,None,50,50,0,True,right,1.8303370000212453,None,,,,,,,,0,50,50,50,,,,,,,,,403.3114760830067,,,,,,,,,,,,,,,,,,,,,,,,,,,,,,,,,,,,,,403.3059468329884,403.3114760830067,404.30069283302873,405.29624100000365,405.29624100000365,405.29624100000365,,,,407.1318463750067,right,1.8303370000212453,None,,,,,,,,,,,,,,,,,,,,,,,,,,,,,,,,,,,,,,,,,,,379009,001,2024-12-08_15h32.18.431,Test,2024.2.4,None,2024-12-08 15h32.59.212260 +0100,
27,150,150,45,None,51,51,0,False,left,1.588847375009209,None,,,,,,,,0,51,51,51,,,,,,,,,407.1466612080112,,,,,,,,,,,,,,,,,,,,,,,,,,,,,,,,,,,,,,407.1404704999877,407.1466612080112,408.13497325003846,409.1297660000273,409.1297660000273,409.1297660000273,,,,410.7210090419976,left,1.588847375009209,None,,,,,,,,,,,,,,,,,,,,,,,,,,,,,,,,,,,,,,,,,,,379009,001,2024-12-08_15h32.18.431,Test,2024.2.4,None,2024-12-08 15h32.59.212260 +0100,
2,150,0,50,None,52,52,0,False,left,1.5153892910457216,None,,,,,,,,0,52,52,52,,,,,,,,,410.736326125043,,,,,,,,,,,,,,,,,,,,,,,,,,,,,,,,,,,,,,410.7299497500062,410.736326125043,411.73507737502223,412.7207619170076,412.7207619170076,412.7207619170076,,,,414.24674441700336,left,1.5153892910457216,None,,,,,,,,,,,,,,,,,,,,,,,,,,,,,,,,,,,,,,,,,,,379009,001,2024-12-08_15h32.18.431,Test,2024.2.4,None,2024-12-08 15h32.59.212260 +0100,
1,150,0,67,None,53,53,0,False,left,1.7605187090230174,None,,,,,,,,0,53,53,53,,,,,,,,,414.25929829198867,,,,,,,,,,,,,,,,,,,,,,,,,,,,,,,,,,,,,,414.25466987502296,414.25929829198867,415.25090025004465,416.2371058750432,416.2371058750432,416.2371058750432,,,,418.0044900419889,left,1.7605187090230174,None,,,,,,,,,,,,,,,,,,,,,,,,,,,,,,,,,,,,,,,,,,,379009,001,2024-12-08_15h32.18.431,Test,2024.2.4,None,2024-12-08 15h32.59.212260 +0100,
11,150,60,1,None,54,54,0,False,right,0.9946406250237487,None,,,,,,,,0,54,54,54,,,,,,,,,418.02014520799275,,,,,,,,,,,,,,,,,,,,,,,,,,,,,,,,,,,,,,418.0132984580123,418.02014520799275,419.01828683301574,420.00364316703053,420.00364316703053,420.00364316703053,,,,421.0045244580251,right,0.9946406250237487,None,,,,,,,,,,,,,,,,,,,,,,,,,,,,,,,,,,,,,,,,,,,379009,001,2024-12-08_15h32.18.431,Test,2024.2.4,None,2024-12-08 15h32.59.212260 +0100,
43,150,30,20,None,55,55,0,True,right,2.1435757080325857,None,,,,,,,,0,55,55,55,,,,,,,,,421.02001379203284,,,,,,,,,,,,,,,,,,,,,,,,,,,,,,,,,,,,,,421.0135986250243,421.02001379203284,422.01765900000464,423.00430183298886,423.00430183298886,423.00430183298886,,,,425.15483650000533,right,2.1435757080325857,None,,,,,,,,,,,,,,,,,,,,,,,,,,,,,,,,,,,,,,,,,,,379009,001,2024-12-08_15h32.18.431,Test,2024.2.4,None,2024-12-08 15h32.59.212260 +0100,
22,150,120,24,None,56,56,0,False,right,1.088106458017137,None,,,,,,,,0,56,56,56,,,,,,,,,425.16928937501507,,,,,,,,,,,,,,,,,,,,,,,,,,,,,,,,,,,,,,425.1632412080071,425.16928937501507,426.1628735419945,427.15368662500987,427.15368662500987,427.15368662500987,,,,428.24853979202453,right,1.088106458017137,None,,,,,,,,,,,,,,,,,,,,,,,,,,,,,,,,,,,,,,,,,,,379009,001,2024-12-08_15h32.18.431,Test,2024.2.4,None,2024-12-08 15h32.59.212260 +0100,
51,150,90,65,None,57,57,0,True,left,1.5441149999969639,None,,,,,,,,0,57,57,57,,,,,,,,,428.2629078750033,,,,,,,,,,,,,,,,,,,,,,,,,,,,,,,,,,,,,,428.25714079203317,428.2629078750033,429.2513712919899,430.24626216699835,430.24626216699835,430.24626216699835,,,,431.798421583022,left,1.5441149999969639,None,,,,,,,,,,,,,,,,,,,,,,,,,,,,,,,,,,,,,,,,,,,379009,001,2024-12-08_15h32.18.431,Test,2024.2.4,None,2024-12-08 15h32.59.212260 +0100,
4,150,0,40,None,58,58,0,False,left,1.812011459027417,None,,,,,,,,0,58,58,58,,,,,,,,,431.8134871250368,,,,,,,,,,,,,,,,,,,,,,,,,,,,,,,,,,,,,,431.8070660420344,431.8134871250368,432.80146020802204,433.7964045830304,433.7964045830304,433.7964045830304,,,,435.61503495799843,left,1.812011459027417,None,,,,,,,,,,,,,,,,,,,,,,,,,,,,,,,,,,,,,,,,,,,379009,001,2024-12-08_15h32.18.431,Test,2024.2.4,None,2024-12-08 15h32.59.212260 +0100,
37,150,0,55,None,59,59,0,True,left,2.6227195829851553,None,,,,,,,,0,59,59,59,,,,,,,,,435.6299822500441,,,,,,,,,,,,,,,,,,,,,,,,,,,,,,,,,,,,,,435.6238156250329,435.6299822500441,436.6174499579938,437.6129356250167,437.6129356250167,437.6129356250167,,,,440.2382266250206,left,2.6227195829851553,None,,,,,,,,,,,,,,,,,,,,,,,,,,,,,,,,,,,,,,,,,,,379009,001,2024-12-08_15h32.18.431,Test,2024.2.4,None,2024-12-08 15h32.59.212260 +0100,
44,150,30,63,None,60,60,0,True,right,2.976437790959608,None,,,,,,,,0,60,60,60,,,,,,,,,440.25341591698816,,,,,,,,,,,,,,,,,,,,,,,,,,,,,,,,,,,,,,440.2470575000043,440.25341591698816,441.25071795802796,442.2367704579956,442.2367704579956,442.2367704579956,445.2358173330431,445.2358173330431,445.2358173330431,445.22441304201493,right,2.976437790959608,None,,,,,,,,,,,,,,,,,,,,,,,,,,,,,,,,,,,,,,,,,,,379009,001,2024-12-08_15h32.18.431,Test,2024.2.4,None,2024-12-08 15h32.59.212260 +0100,
53,150,90,17,None,61,61,0,True,right,0.8863740420201793,None,,,,,,,,0,61,61,61,,,,,,,,,445.2358173330431,,,,,,,,,,,,,,,,,,,,,,,,,,,,,,,,,,,,,,445.23127950000344,445.2358173330431,446.22947075002594,447.21987425000407,447.21987425000407,447.21987425000407,,,,448.115048125037,right,0.8863740420201793,None,,,,,,,,,,,,,,,,,,,,,,,,,,,,,,,,,,,,,,,,,,,379009,001,2024-12-08_15h32.18.431,Test,2024.2.4,None,2024-12-08 15h32.59.212260 +0100,
33,150,180,27,None,62,62,0,False,right,2.6726358750020154,None,,,,,,,,0,62,62,62,,,,,,,,,448.13026337500196,,,,,,,,,,,,,,,,,,,,,,,,,,,,,,,,,,,,,,448.12372925004456,448.13026337500196,449.1181635830435,450.1129678330035,450.1129678330035,450.1129678330035,,,,452.7878942080424,right,2.6726358750020154,None,,,,,,,,,,,,,,,,,,,,,,,,,,,,,,,,,,,,,,,,,,,379009,001,2024-12-08_15h32.18.431,Test,2024.2.4,None,2024-12-08 15h32.59.212260 +0100,
69,150,180,22,None,63,63,0,True,left,2.561876874999143,None,,,,,,,,0,63,63,63,,,,,,,,,452.80152579199057,,,,,,,,,,,,,,,,,,,,,,,,,,,,,,,,,,,,,,452.7957574999891,452.80152579199057,453.79613775003236,454.7868545000092,454.7868545000092,454.7868545000092,,,,457.3545956250164,left,2.561876874999143,None,,,,,,,,,,,,,,,,,,,,,,,,,,,,,,,,,,,,,,,,,,,379009,001,2024-12-08_15h32.18.431,Test,2024.2.4,None,2024-12-08 15h32.59.212260 +0100,
64,150,150,52,None,64,64,0,True,left,1.2930254579987377,None,,,,,,,,0,64,64,64,,,,,,,,,457.36832841701107,,,,,,,,,,,,,,,,,,,,,,,,,,,,,,,,,,,,,,457.36238700000104,457.36832841701107,458.3628916250309,459.353474292031,459.353474292031,459.353474292031,,,,460.6492769170436,left,1.2930254579987377,None,,,,,,,,,,,,,,,,,,,,,,,,,,,,,,,,,,,,,,,,,,,379009,001,2024-12-08_15h32.18.431,Test,2024.2.4,None,2024-12-08 15h32.59.212260 +0100,
65,150,150,30,None,65,65,0,True,right,1.3857269160216674,None,,,,,,,,0,65,65,65,,,,,,,,,460.6640227920143,,,,,,,,,,,,,,,,,,,,,,,,,,,,,,,,,,,,,,460.6578575000167,460.6640227920143,461.6629159580334,462.6463020420051,462.6463020420051,462.6463020420051,,,,464.03742558299564,right,1.3857269160216674,None,,,,,,,,,,,,,,,,,,,,,,,,,,,,,,,,,,,,,,,,,,,379009,001,2024-12-08_15h32.18.431,Test,2024.2.4,None,2024-12-08 15h32.59.212260 +0100,
23,150,120,8,None,66,66,0,False,left,1.4777581249945797,None,,,,,,,,0,66,66,66,,,,,,,,,464.0501702920301,,,,,,,,,,,,,,,,,,,,,,,,,,,,,,,,,,,,,,464.04505204199813,464.0501702920301,465.0462628750247,466.0371741250274,466.0371741250274,466.0371741250274,,,,467.5213591250358,left,1.4777581249945797,None,,,,,,,,,,,,,,,,,,,,,,,,,,,,,,,,,,,,,,,,,,,379009,001,2024-12-08_15h32.18.431,Test,2024.2.4,None,2024-12-08 15h32.59.212260 +0100,
12,150,60,18,None,67,67,0,False,right,0.9544047499657609,None,,,,,,,,0,67,67,67,,,,,,,,,467.5357683330076,,,,,,,,,,,,,,,,,,,,,,,,,,,,,,,,,,,,,,467.5298003749922,467.5357683330076,468.5296597080305,469.52095004200237,469.52095004200237,469.52095004200237,,,,470.48177045799093,right,0.9544047499657609,None,,,,,,,,,,,,,,,,,,,,,,,,,,,,,,,,,,,,,,,,,,,379009,001,2024-12-08_15h32.18.431,Test,2024.2.4,None,2024-12-08 15h32.59.212260 +0100,
24,150,120,56,None,68,68,0,False,left,1.1224155829986557,None,,,,,,,,0,68,68,68,,,,,,,,,470.4949090000009,,,,,,,,,,,,,,,,,,,,,,,,,,,,,,,,,,,,,,470.4892185420031,470.4949090000009,471.4847365000169,472.4797350830049,472.4797350830049,472.4797350830049,,,,473.6044150420348,left,1.1224155829986557,None,,,,,,,,,,,,,,,,,,,,,,,,,,,,,,,,,,,,,,,,,,,379009,001,2024-12-08_15h32.18.431,Test,2024.2.4,None,2024-12-08 15h32.59.212260 +0100,
32,150,180,9,None,69,69,0,False,left,2.1952260420075618,None,,,,,,,,0,69,69,69,,,,,,,,,473.61855433299206,,,,,,,,,,,,,,,,,,,,,,,,,,,,,,,,,,,,,,473.612575792009,473.61855433299206,474.61270920804236,475.60297620802885,475.60297620802885,475.60297620802885,,,,477.80479183304124,left,2.1952260420075618,None,,,,,,,,,,,,,,,,,,,,,,,,,,,,,,,,,,,,,,,,,,,379009,001,2024-12-08_15h32.18.431,Test,2024.2.4,None,2024-12-08 15h32.59.212260 +0100,
,,,,,,,,,,,,,,,,,,,,,,,,,,,,,,,,,,,,,,,,,,,,,,,,,,,,,,,,,,,,,,,,,,,,,,,,,,,,,,,,,,477.8050425419933,477.8155385419959,477.8155385419959,484.43348645803053,space,6.604001334053464,None,,,,,,,,,,,,,,,,,,,,,,,,,,,,,,,,,,,,379009,001,2024-12-08_15h32.18.431,Test,2024.2.4,None,2024-12-08 15h32.59.212260 +0100,
13,150,60,23,None,0,0,0,,,,,,,,,,,,,,,,0,0,0,12,,,,,484.45158462499967,,,,,,,,,,,,,,,,,,,,,,,,,,,,,,,,,,,,,,,,,,,,,,,,,,,,,,,,,,484.4466392080067,484.45158462499967,484.6291242080042,484.6291242080042,484.64580295799533,486.32807650003815,486.32807650003815,486.313917958003,,,,,,,,,,,,,,,,,,,,,,,,,,,,379009,001,2024-12-08_15h32.18.431,Test,2024.2.4,None,2024-12-08 15h32.59.212260 +0100,
11,150,60,1,None,1,1,0,,,,,,,,,,,,,,,,0,1,1,10,,,,,486.32807650003815,,,,,,,,,,,,,,,,,,,,,,,,,,,,,,,,,,,,,,,,,,,,,,,,,,,,,,,,,,486.3223141669878,486.3320761669893,486.5296692920383,486.5296692920383,486.5296692920383,488.2268657920067,488.2268657920067,488.2139401670429,,,,,,,,,,,,,,,,,,,,,,,,,,,,379009,001,2024-12-08_15h32.18.431,Test,2024.2.4,None,2024-12-08 15h32.59.212260 +0100,
18,150,90,38,None,2,2,0,,,,,,,,,,,,,,,,0,2,2,17,,,,,488.2268657920067,,,,,,,,,,,,,,,,,,,,,,,,,,,,,,,,,,,,,,,,,,,,,,,,,,,,,,,,,,488.22135983302724,488.23165970802074,488.4297673330293,488.4297673330293,488.4297673330293,490.1271151670371,490.1271151670371,490.113841207989,,,,,,,,,,,,,,,,,,,,,,,,,,,,379009,001,2024-12-08_15h32.18.431,Test,2024.2.4,None,2024-12-08 15h32.59.212260 +0100,
19,150,90,48,None,3,3,0,,,,,,,,,,,,,,,,0,3,3,18,,,,,490.1271151670371,,,,,,,,,,,,,,,,,,,,,,,,,,,,,,,,,,,,,,,,,,,,,,,,,,,,,,,,,,490.12227425002493,490.1311614169972,490.32960466702934,490.32960466702934,490.32960466702934,492.0273751250352,492.0273751250352,492.0139256250113,,,,,,,,,,,,,,,,,,,,,,,,,,,,379009,001,2024-12-08_15h32.18.431,Test,2024.2.4,None,2024-12-08 15h32.59.212260 +0100,
10,150,30,58,None,4,4,0,,,,,,,,,,,,,,,,0,4,4,9,,,,,492.0273751250352,,,,,,,,,,,,,,,,,,,,,,,,,,,,,,,,,,,,,,,,,,,,,,,,,,,,,,,,,,492.0224730420159,492.0324384170235,492.2296530000167,492.2296530000167,492.2296530000167,493.92749895801535,493.92749895801535,493.9138030000031,,,,,,,,,,,,,,,,,,,,,,,,,,,,379009,001,2024-12-08_15h32.18.431,Test,2024.2.4,None,2024-12-08 15h32.59.212260 +0100,
27,150,150,45,None,5,5,0,,,,,,,,,,,,,,,,0,5,5,26,,,,,493.92749895801535,,,,,,,,,,,,,,,,,,,,,,,,,,,,,,,,,,,,,,,,,,,,,,,,,,,,,,,,,,493.92253508302383,493.9321407080279,494.12957020802423,494.12957020802423,494.12957020802423,495.8271358330385,495.8271358330385,495.81390549999196,,,,,,,,,,,,,,,,,,,,,,,,,,,,379009,001,2024-12-08_15h32.18.431,Test,2024.2.4,None,2024-12-08 15h32.59.212260 +0100,
14,150,60,49,None,6,6,0,,,,,,,,,,,,,,,,0,6,6,13,,,,,495.8271358330385,,,,,,,,,,,,,,,,,,,,,,,,,,,,,,,,,,,,,,,,,,,,,,,,,,,,,,,,,,495.82222170801833,495.83103137504077,496.0296101249987,496.0296101249987,496.0296101249987,497.7281940000248,497.7281940000248,497.71397029201034,,,,,,,,,,,,,,,,,,,,,,,,,,,,379009,001,2024-12-08_15h32.18.431,Test,2024.2.4,None,2024-12-08 15h32.59.212260 +0100,
4,150,0,40,None,7,7,0,,,,,,,,,,,,,,,,0,7,7,3,,,,,497.7281940000248,,,,,,,,,,,,,,,,,,,,,,,,,,,,,,,,,,,,,,,,,,,,,,,,,,,,,,,,,,497.72344475000864,497.73206062504323,497.92968691699207,497.92968691699207,497.92968691699207,499.6265635419986,499.6265635419986,499.613792499993,,,,,,,,,,,,,,,,,,,,,,,,,,,,379009,001,2024-12-08_15h32.18.431,Test,2024.2.4,None,2024-12-08 15h32.59.212260 +0100,
30,150,150,36,None,8,8,0,,,,,,,,,,,,,,,,0,8,8,29,,,,,499.6265635419986,,,,,,,,,,,,,,,,,,,,,,,,,,,,,,,,,,,,,,,,,,,,,,,,,,,,,,,,,,499.6216827080352,499.6312124170363,499.8295807079994,499.8295807079994,499.8295807079994,501.5276584580424,501.5276584580424,501.51412204199005,,,,,,,,,,,,,,,,,,,,,,,,,,,,379009,001,2024-12-08_15h32.18.431,Test,2024.2.4,None,2024-12-08 15h32.59.212260 +0100,
22,150,120,24,None,9,9,0,,,,,,,,,,,,,,,,0,9,9,21,,,,,501.5276584580424,,,,,,,,,,,,,,,,,,,,,,,,,,,,,,,,,,,,,,,,,,,,,,,,,,,,,,,,,,501.52275412500603,501.53158362500835,501.7297315420001,501.7297315420001,501.7297315420001,503.4272392500425,503.4272392500425,503.4137879170012,,,,,,,,,,,,,,,,,,,,,,,,,,,,379009,001,2024-12-08_15h32.18.431,Test,2024.2.4,None,2024-12-08 15h32.59.212260 +0100,
20,150,90,61,None,10,10,0,,,,,,,,,,,,,,,,0,10,10,19,,,,,503.4272392500425,,,,,,,,,,,,,,,,,,,,,,,,,,,,,,,,,,,,,,,,,,,,,,,,,,,,,,,,,,503.4223452080041,503.4324241250288,503.6295930420165,503.6295930420165,503.6295930420165,505.3266313330387,505.3266313330387,505.3139598330017,,,,,,,,,,,,,,,,,,,,,,,,,,,,379009,001,2024-12-08_15h32.18.431,Test,2024.2.4,None,2024-12-08 15h32.59.212260 +0100,
17,150,90,59,None,11,11,0,,,,,,,,,,,,,,,,0,11,11,16,,,,,505.3266313330387,,,,,,,,,,,,,,,,,,,,,,,,,,,,,,,,,,,,,,,,,,,,,,,,,,,,,,,,,,505.3218870420242,505.33130341704236,505.529607375036,505.529607375036,505.529607375036,507.2265178330126,507.2265178330126,507.2140242920141,,,,,,,,,,,,,,,,,,,,,,,,,,,,379009,001,2024-12-08_15h32.18.431,Test,2024.2.4,None,2024-12-08 15h32.59.212260 +0100,
8,150,30,69,None,12,12,0,,,,,,,,,,,,,,,,0,12,12,7,,,,,507.2265178330126,,,,,,,,,,,,,,,,,,,,,,,,,,,,,,,,,,,,,,,,,,,,,,,,,,,,,,,,,,507.221544458007,507.2312399169896,507.4296637920197,507.4296637920197,507.4296637920197,509.12680879200343,509.12680879200343,509.11386833299184,,,,,,,,,,,,,,,,,,,,,,,,,,,,379009,001,2024-12-08_15h32.18.431,Test,2024.2.4,None,2024-12-08 15h32.59.212260 +0100,
29,150,150,16,None,13,13,0,,,,,,,,,,,,,,,,0,13,13,28,,,,,509.12680879200343,,,,,,,,,,,,,,,,,,,,,,,,,,,,,,,,,,,,,,,,,,,,,,,,,,,,,,,,,,509.1218596250401,509.1315195420175,509.32955758302705,509.32955758302705,509.32955758302705,511.02689979202114,511.02689979202114,511.01391429203795,,,,,,,,,,,,,,,,,,,,,,,,,,,,379009,001,2024-12-08_15h32.18.431,Test,2024.2.4,None,2024-12-08 15h32.59.212260 +0100,
15,150,60,13,None,14,14,0,,,,,,,,,,,,,,,,0,14,14,14,,,,,511.02689979202114,,,,,,,,,,,,,,,,,,,,,,,,,,,,,,,,,,,,,,,,,,,,,,,,,,,,,,,,,,511.0217470829957,511.03175900003407,511.22969933302375,511.22969933302375,511.22969933302375,512.9271942080231,512.9271942080231,512.913839832996,,,,,,,,,,,,,,,,,,,,,,,,,,,,379009,001,2024-12-08_15h32.18.431,Test,2024.2.4,None,2024-12-08 15h32.59.212260 +0100,
9,150,30,31,None,15,15,0,,,,,,,,,,,,,,,,0,15,15,8,,,,,512.9271942080231,,,,,,,,,,,,,,,,,,,,,,,,,,,,,,,,,,,,,,,,,,,,,,,,,,,,,,,,,,512.9220210000058,512.9320544170332,513.1297542080283,513.1297542080283,513.1297542080283,514.8261353750131,514.8261353750131,514.8137315000058,,,,,,,,,,,,,,,,,,,,,,,,,,,,379009,001,2024-12-08_15h32.18.431,Test,2024.2.4,None,2024-12-08 15h32.59.212260 +0100,
5,150,0,32,None,16,16,0,,,,,,,,,,,,,,,,0,16,16,4,,,,,514.8261353750131,,,,,,,,,,,,,,,,,,,,,,,,,,,,,,,,,,,,,,,,,,,,,,,,,,,,,,,,,,514.8214184580138,514.8308159169974,515.0295892080176,515.0295892080176,515.0295892080176,516.7262311670347,516.7262311670347,516.7139548330451,,,,,,,,,,,,,,,,,,,,,,,,,,,,379009,001,2024-12-08_15h32.18.431,Test,2024.2.4,None,2024-12-08 15h32.59.212260 +0100,
1,150,0,67,None,17,17,0,,,,,,,,,,,,,,,,0,17,17,0,,,,,516.7262311670347,,,,,,,,,,,,,,,,,,,,,,,,,,,,,,,,,,,,,,,,,,,,,,,,,,,,,,,,,,516.7214692080161,516.730793041992,516.9296939170454,516.9296939170454,516.9296939170454,518.6267256250139,518.6267256250139,518.6137888749945,,,,,,,,,,,,,,,,,,,,,,,,,,,,379009,001,2024-12-08_15h32.18.431,Test,2024.2.4,None,2024-12-08 15h32.59.212260 +0100,
28,150,150,42,None,18,18,0,,,,,,,,,,,,,,,,0,18,18,27,,,,,518.6267256250139,,,,,,,,,,,,,,,,,,,,,,,,,,,,,,,,,,,,,,,,,,,,,,,,,,,,,,,,,,518.6216819580295,518.6313970829942,518.8295732080005,518.8295732080005,518.8295732080005,520.5272081250441,520.5272081250441,520.5138623749954,,,,,,,,,,,,,,,,,,,,,,,,,,,,379009,001,2024-12-08_15h32.18.431,Test,2024.2.4,None,2024-12-08 15h32.59.212260 +0100,
23,150,120,8,None,19,19,0,,,,,,,,,,,,,,,,0,19,19,22,,,,,520.5272081250441,,,,,,,,,,,,,,,,,,,,,,,,,,,,,,,,,,,,,,,,,,,,,,,,,,,,,,,,,,520.5223560419981,520.5319826669875,520.729869792005,520.729869792005,520.729869792005,522.4270212080446,522.4270212080446,522.4141042500269,,,,,,,,,,,,,,,,,,,,,,,,,,,,379009,001,2024-12-08_15h32.18.431,Test,2024.2.4,None,2024-12-08 15h32.59.212260 +0100,
31,150,180,6,None,20,20,0,,,,,,,,,,,,,,,,0,20,20,30,,,,,522.4270212080446,,,,,,,,,,,,,,,,,,,,,,,,,,,,,,,,,,,,,,,,,,,,,,,,,,,,,,,,,,522.4221407920122,522.4318694170215,522.629710750014,522.629710750014,522.629710750014,524.3261472079903,524.3261472079903,524.3136672920082,,,,,,,,,,,,,,,,,,,,,,,,,,,,379009,001,2024-12-08_15h32.18.431,Test,2024.2.4,None,2024-12-08 15h32.59.212260 +0100,
2,150,0,50,None,21,21,0,,,,,,,,,,,,,,,,0,21,21,1,,,,,524.3261472079903,,,,,,,,,,,,,,,,,,,,,,,,,,,,,,,,,,,,,,,,,,,,,,,,,,,,,,,,,,524.3213783749961,524.33053866704,524.5296588750207,524.5296588750207,524.517772125022,526.2272249580128,526.2272249580128,526.2139768750058,,,,,,,,,,,,,,,,,,,,,,,,,,,,379009,001,2024-12-08_15h32.18.431,Test,2024.2.4,None,2024-12-08 15h32.59.212260 +0100,
32,150,180,9,None,22,22,0,,,,,,,,,,,,,,,,0,22,22,31,,,,,526.2272249580128,,,,,,,,,,,,,,,,,,,,,,,,,,,,,,,,,,,,,,,,,,,,,,,,,,,,,,,,,,526.2222347499919,526.2322654580348,526.4296876669978,526.4296876669978,526.4296876669978,528.1265314170159,528.1265314170159,528.1137035420397,,,,,,,,,,,,,,,,,,,,,,,,,,,,379009,001,2024-12-08_15h32.18.431,Test,2024.2.4,None,2024-12-08 15h32.59.212260 +0100,
16,150,90,39,None,23,23,0,,,,,,,,,,,,,,,,0,23,23,15,,,,,528.1265314170159,,,,,,,,,,,,,,,,,,,,,,,,,,,,,,,,,,,,,,,,,,,,,,,,,,,,,,,,,,528.1217324170284,528.1311050420045,528.3297237920342,528.3297237920342,528.3297237920342,530.0274309579981,530.0274309579981,530.0138884580228,,,,,,,,,,,,,,,,,,,,,,,,,,,,379009,001,2024-12-08_15h32.18.431,Test,2024.2.4,None,2024-12-08 15h32.59.212260 +0100,
6,150,30,53,None,24,24,0,,,,,,,,,,,,,,,,0,24,24,5,,,,,530.0274309579981,,,,,,,,,,,,,,,,,,,,,,,,,,,,,,,,,,,,,,,,,,,,,,,,,,,,,,,,,,530.0225535419886,530.0319778750418,530.229596249992,530.229596249992,530.229596249992,531.9272391670384,531.9272391670384,531.9139816670213,,,,,,,,,,,,,,,,,,,,,,,,,,,,379009,001,2024-12-08_15h32.18.431,Test,2024.2.4,None,2024-12-08 15h32.59.212260 +0100,
34,150,180,4,None,25,25,0,,,,,,,,,,,,,,,,0,25,25,33,,,,,531.9272391670384,,,,,,,,,,,,,,,,,,,,,,,,,,,,,,,,,,,,,,,,,,,,,,,,,,,,,,,,,,531.9224238329916,531.9325019170064,532.129730375018,532.129730375018,532.129730375018,533.8275425829925,533.8275425829925,533.8142367500113,,,,,,,,,,,,,,,,,,,,,,,,,,,,379009,001,2024-12-08_15h32.18.431,Test,2024.2.4,None,2024-12-08 15h32.59.212260 +0100,
21,150,120,29,None,26,26,0,,,,,,,,,,,,,,,,0,26,26,20,,,,,533.8275425829925,,,,,,,,,,,,,,,,,,,,,,,,,,,,,,,,,,,,,,,,,,,,,,,,,,,,,,,,,,533.8225811250159,533.8322408749955,534.0295960830408,534.0295960830408,534.0295960830408,535.7281846670085,535.7281846670085,535.7146566670272,,,,,,,,,,,,,,,,,,,,,,,,,,,,379009,001,2024-12-08_15h32.18.431,Test,2024.2.4,None,2024-12-08 15h32.59.212260 +0100,
26,150,150,68,None,27,27,0,,,,,,,,,,,,,,,,0,27,27,25,,,,,535.7281846670085,,,,,,,,,,,,,,,,,,,,,,,,,,,,,,,,,,,,,,,,,,,,,,,,,,,,,,,,,,535.7231036250014,535.7328880000277,535.9297221250017,535.9297221250017,535.9297221250017,537.6267667920329,537.6267667920329,537.614124167012,,,,,,,,,,,,,,,,,,,,,,,,,,,,379009,001,2024-12-08_15h32.18.431,Test,2024.2.4,None,2024-12-08 15h32.59.212260 +0100,
25,150,120,35,None,28,28,0,,,,,,,,,,,,,,,,0,28,28,24,,,,,537.6267667920329,,,,,,,,,,,,,,,,,,,,,,,,,,,,,,,,,,,,,,,,,,,,,,,,,,,,,,,,,,537.6219632080174,537.6315652499907,537.8297385830083,537.8297385830083,537.8297385830083,539.5276628750144,539.5276628750144,539.5140114999958,,,,,,,,,,,,,,,,,,,,,,,,,,,,379009,001,2024-12-08_15h32.18.431,Test,2024.2.4,None,2024-12-08 15h32.59.212260 +0100,
7,150,30,44,None,29,29,0,,,,,,,,,,,,,,,,0,29,29,6,,,,,539.5276628750144,,,,,,,,,,,,,,,,,,,,,,,,,,,,,,,,,,,,,,,,,,,,,,,,,,,,,,,,,,539.5226601670147,539.5329496670165,539.7296738750301,539.7296738750301,539.7296738750301,541.4267482919968,541.4267482919968,541.4137834170251,,,,,,,,,,,,,,,,,,,,,,,,,,,,379009,001,2024-12-08_15h32.18.431,Test,2024.2.4,None,2024-12-08 15h32.59.212260 +0100,
12,150,60,18,None,30,30,0,,,,,,,,,,,,,,,,0,30,30,11,,,,,541.4267482919968,,,,,,,,,,,,,,,,,,,,,,,,,,,,,,,,,,,,,,,,,,,,,,,,,,,,,,,,,,541.4219618749921,541.4314889170346,541.6297233750229,541.6297233750229,541.6297233750229,543.32732029201,543.32732029201,543.3140107080108,,,,,,,,,,,,,,,,,,,,,,,,,,,,379009,001,2024-12-08_15h32.18.431,Test,2024.2.4,None,2024-12-08 15h32.59.212260 +0100,
3,150,0,10,None,31,31,0,,,,,,,,,,,,,,,,0,31,31,2,,,,,543.32732029201,,,,,,,,,,,,,,,,,,,,,,,,,,,,,,,,,,,,,,,,,,,,,,,,,,,,,,,,,,543.3224724580068,543.3311756670009,543.5295793330297,543.5295793330297,543.5295793330297,545.2267194580054,545.2267194580054,545.2138523330214,,,,,,,,,,,,,,,,,,,,,,,,,,,,379009,001,2024-12-08_15h32.18.431,Test,2024.2.4,None,2024-12-08 15h32.59.212260 +0100,
35,150,180,51,None,32,32,0,,,,,,,,,,,,,,,,0,32,32,34,,,,,545.2267194580054,,,,,,,,,,,,,,,,,,,,,,,,,,,,,,,,,,,,,,,,,,,,,,,,,,,,,,,,,,545.221973458014,545.230797917,545.4296788750216,545.4296788750216,545.4296788750216,547.1262784170103,547.1262784170103,547.1138106250437,,,,,,,,,,,,,,,,,,,,,,,,,,,,379009,001,2024-12-08_15h32.18.431,Test,2024.2.4,None,2024-12-08 15h32.59.212260 +0100,
24,150,120,56,None,33,33,0,,,,,,,,,,,,,,,,0,33,33,23,,,,,547.1262784170103,,,,,,,,,,,,,,,,,,,,,,,,,,,,,,,,,,,,,,,,,,,,,,,,,,,,,,,,,,547.1213479579892,547.1308772080229,547.3297366670449,547.3297366670449,547.3297366670449,549.0271147920284,549.0271147920284,549.0138015830307,,,,,,,,,,,,,,,,,,,,,,,,,,,,379009,001,2024-12-08_15h32.18.431,Test,2024.2.4,None,2024-12-08 15h32.59.212260 +0100,
33,150,180,27,None,34,34,0,,,,,,,,,,,,,,,,0,34,34,32,,,,,549.0271147920284,,,,,,,,,,,,,,,,,,,,,,,,,,,,,,,,,,,,,,,,,,,,,,,,,,,,,,,,,,549.0222627920448,549.0320022919914,549.2296234170208,549.2296234170208,549.2296234170208,550.9194524170016,550.9194524170016,550.9139098750311,,,,,,,,,,,,,,,,,,,,,,,,,,,,379009,001,2024-12-08_15h32.18.431,Test,2024.2.4,None,2024-12-08 15h32.59.212260 +0100,
,,,,,,,,,,,,,,,,,,,,,,,,,,,,,,,,,,,,,,,,,,,,,,,,,,,,,,,,,,,,,,,,,,,,,,,,,,,,,,,,,,,,,,,,,,,,,,,,,550.914156917017,550.9280310830218,550.9280310830218,553.5869101250428,space,2.6563112089643255,None,,,,,,,,,,,,,,,,,,,,,379009,001,2024-12-08_15h32.18.431,Test,2024.2.4,None,2024-12-08 15h32.59.212260 +0100,
70,150,180,66,None,0,0,0,True,,,,left,1.637440625054296,None,,,,,,,,,,,,,0,0,0,0,553.7126563329948,,,,,,,,,,,,,,,,,,,,,,,,,,,,,,,,,,,,,,,,,,,,,,,,,,,,,,,,,,,,,,,,,,,,,,,,,553.7071245830157,553.7126563329948,554.7016090420075,555.5869066250161,555.5869066250161,555.5869066250161,557.2319537500152,left,1.637440625054296,None,,,,,,,,,,,379009,001,2024-12-08_15h32.18.431,Test,2024.2.4,None,2024-12-08 15h32.59.212260 +0100,
31,150,180,6,None,1,1,0,False,,,,right,1.1744609169545583,None,,,,,,,,,,,,,0,1,1,1,557.247717708,,,,,,,,,,,,,,,,,,,,,,,,,,,,,,,,,,,,,,,,,,,,,,,,,,,,,,,,,,,,,,,,,,,,,,,,,557.2413459580275,557.247717708,558.2462587080081,559.2297635829891,559.2297635829891,559.2297635829891,560.4152490830165,right,1.1744609169545583,None,,,,,,,,,,,379009,001,2024-12-08_15h32.18.431,Test,2024.2.4,None,2024-12-08 15h32.59.212260 +0100,
38,150,0,34,None,2,2,0,True,,,,right,1.5553494580090046,None,,,,,,,,,,,,,0,2,2,2,560.4296111250296,,,,,,,,,,,,,,,,,,,,,,,,,,,,,,,,,,,,,,,,,,,,,,,,,,,,,,,,,,,,,,,,,,,,,,,,,560.4237416250398,560.4296111250296,561.4181827499997,562.4129515420063,562.4129515420063,562.4129515420063,563.9710990000167,right,1.5553494580090046,None,,,,,,,,,,,379009,001,2024-12-08_15h32.18.431,Test,2024.2.4,None,2024-12-08 15h32.59.212260 +0100,
5,150,0,32,None,3,3,0,False,,,,right,0.8400815000059083,None,,,,,,,,,,,,,0,3,3,3,563.9853718330269,,,,,,,,,,,,,,,,,,,,,,,,,,,,,,,,,,,,,,,,,,,,,,,,,,,,,,,,,,,,,,,,,,,,,,,,,563.9792448329972,563.9853718330269,564.9795197080239,565.9703137080069,565.9703137080069,565.9703137080069,566.815461457998,right,0.8400815000059083,None,,,,,,,,,,,379009,001,2024-12-08_15h32.18.431,Test,2024.2.4,None,2024-12-08 15h32.59.212260 +0100,
8,150,30,69,None,4,4,0,False,,,,right,1.7099350420176052,None,,,,,,,,,,,,,0,4,4,4,566.830131417024,,,,,,,,,,,,,,,,,,,,,,,,,,,,,,,,,,,,,,,,,,,,,,,,,,,,,,,,,,,,,,,,,,,,,,,,,566.8237306250376,566.830131417024,567.8180994170252,568.8129775419948,568.8129775419948,568.8129775419948,570.5317382080248,right,1.7099350420176052,None,,,,,,,,,,,379009,001,2024-12-08_15h32.18.431,Test,2024.2.4,None,2024-12-08 15h32.59.212260 +0100,
36,150,0,70,None,5,5,0,True,,,,left,1.4909771659877151,None,,,,,,,,,,,,,0,5,5,5,570.546547667007,,,,,,,,,,,,,,,,,,,,,,,,,,,,,,,,,,,,,,,,,,,,,,,,,,,,,,,,,,,,,,,,,,,,,,,,,570.5399866250227,570.546547667007,571.534781082999,572.5296722080093,572.5296722080093,572.5296722080093,574.0304835829884,left,1.4909771659877151,None,,,,,,,,,,,379009,001,2024-12-08_15h32.18.431,Test,2024.2.4,None,2024-12-08 15h32.59.212260 +0100,
28,150,150,42,None,6,6,0,False,,,,left,1.8556272089481354,None,,,,,,,,,,,,,0,6,6,6,574.042704624997,,,,,,,,,,,,,,,,,,,,,,,,,,,,,,,,,,,,,,,,,,,,,,,,,,,,,,,,,,,,,,,,,,,,,,,,,574.0381086670095,574.042704624997,575.0340114170103,576.0296913330094,576.0296913330094,576.0296913330094,577.8876598750358,left,1.8556272089481354,None,,,,,,,,,,,379009,001,2024-12-08_15h32.18.431,Test,2024.2.4,None,2024-12-08 15h32.59.212260 +0100,
15,150,60,13,None,7,7,0,False,,,,right,1.0253888340084814,None,,,,,,,,,,,,,0,7,7,7,577.9027165829903,,,,,,,,,,,,,,,,,,,,,,,,,,,,,,,,,,,,,,,,,,,,,,,,,,,,,,,,,,,,,,,,,,,,,,,,,577.8961188750109,577.9027165829903,578.9014537500334,579.8873717500246,579.8873717500246,579.8873717500246,580.9150384170352,right,1.0253888340084814,None,,,,,,,,,,,379009,001,2024-12-08_15h32.18.431,Test,2024.2.4,None,2024-12-08 15h32.59.212260 +0100,
25,150,120,35,None,8,8,0,False,,,,right,2.4552489169873297,None,,,,,,,,,,,,,0,8,8,8,580.930361583014,,,,,,,,,,,,,,,,,,,,,,,,,,,,,,,,,,,,,,,,,,,,,,,,,,,,,,,,,,,,,,,,,,,,,,,,,580.9237894580001,580.930361583014,581.9181353750173,582.9130093750427,582.9130093750427,582.9130093750427,585.3710108330124,right,2.4552489169873297,None,,,,,,,,,,,379009,001,2024-12-08_15h32.18.431,Test,2024.2.4,None,2024-12-08 15h32.59.212260 +0100,
63,150,150,54,None,9,9,0,True,,,,right,1.0677354999934323,None,,,,,,,,,,,,,0,9,9,9,585.3847459580284,,,,,,,,,,,,,,,,,,,,,,,,,,,,,,,,,,,,,,,,,,,,,,,,,,,,,,,,,,,,,,,,,,,,,,,,,585.3789434169885,585.3847459580284,586.3797000829945,587.3701018750435,587.3701018750435,587.3701018750435,588.4482733330224,right,1.0677354999934323,None,,,,,,,,,,,379009,001,2024-12-08_15h32.18.431,Test,2024.2.4,None,2024-12-08 15h32.59.212260 +0100,
9,150,30,31,None,10,10,0,False,,,,right,1.1438362919725478,None,,,,,,,,,,,,,0,10,10,10,588.4627129579894,,,,,,,,,,,,,,,,,,,,,,,,,,,,,,,,,,,,,,,,,,,,,,,,,,,,,,,,,,,,,,,,,,,,,,,,,588.4560826669913,588.4627129579894,589.451566792035,590.4462852500146,590.4462852500146,590.4462852500146,591.5984998749918,right,1.1438362919725478,None,,,,,,,,,,,379009,001,2024-12-08_15h32.18.431,Test,2024.2.4,None,2024-12-08 15h32.59.212260 +0100,
19,150,90,48,None,11,11,0,False,,,,right,1.0687409999663942,None,,,,,,,,,,,,,0,11,11,11,591.6132297920412,,,,,,,,,,,,,,,,,,,,,,,,,,,,,,,,,,,,,,,,,,,,,,,,,,,,,,,,,,,,,,,,,,,,,,,,,591.6066098750453,591.6132297920412,592.6010745000094,593.5963252499932,593.5963252499932,593.5963252499932,594.6713802500162,right,1.0687409999663942,None,,,,,,,,,,,379009,001,2024-12-08_15h32.18.431,Test,2024.2.4,None,2024-12-08 15h32.59.212260 +0100,
26,150,150,68,None,12,12,0,False,,,,left,2.0188814169960096,None,,,,,,,,,,,,,0,12,12,12,594.6853889999911,,,,,,,,,,,,,,,,,,,,,,,,,,,,,,,,,,,,,,,,,,,,,,,,,,,,,,,,,,,,,,,,,,,,,,,,,594.6793927500257,594.6853889999911,595.67952229199,596.6700880000135,596.6700880000135,596.6700880000135,598.6983976670308,left,2.0188814169960096,None,,,,,,,,,,,379009,001,2024-12-08_15h32.18.431,Test,2024.2.4,None,2024-12-08 15h32.59.212260 +0100,
56,150,120,3,None,13,13,0,True,,,,right,2.5692894579842687,None,,,,,,,,,,,,,0,13,13,13,598.7135565830395,,,,,,,,,,,,,,,,,,,,,,,,,,,,,,,,,,,,,,,,,,,,,,,,,,,,,,,,,,,,,,,,,,,,,,,,,598.7071365829906,598.7135565830395,599.7007341670105,600.6963367920252,600.6963367920252,600.6963367920252,603.2717725000111,right,2.5692894579842687,None,,,,,,,,,,,379009,001,2024-12-08_15h32.18.431,Test,2024.2.4,None,2024-12-08 15h32.59.212260 +0100,
49,150,60,11,None,14,14,0,True,,,,left,1.843630540999584,None,,,,,,,,,,,,,0,14,14,14,603.2904287500423,,,,,,,,,,,,,,,,,,,,,,,,,,,,,,,,,,,,,,,,,,,,,,,,,,,,,,,,,,,,,,,,,,,,,,,,,603.2843046250055,603.2904287500423,604.2848887500004,605.2717411670019,605.2717411670019,605.2717411670019,607.1211067920085,left,1.843630540999584,None,,,,,,,,,,,379009,001,2024-12-08_15h32.18.431,Test,2024.2.4,None,2024-12-08 15h32.59.212260 +0100,
6,150,30,53,None,15,15,0,False,,,,right,2.28557212499436,None,,,,,,,,,,,,,0,15,15,15,607.1365922500263,,,,,,,,,,,,,,,,,,,,,,,,,,,,,,,,,,,,,,,,,,,,,,,,,,,,,,,,,,,,,,,,,,,,,,,,,607.1303115829942,607.1365922500263,608.1349168749875,609.1205412080162,609.1205412080162,609.1205412080162,611.4156285829959,right,2.28557212499436,None,,,,,,,,,,,379009,001,2024-12-08_15h32.18.431,Test,2024.2.4,None,2024-12-08 15h32.59.212260 +0100,
62,150,150,19,None,16,16,0,True,,,,left,1.45264179201331,None,,,,,,,,,,,,,0,16,16,16,611.4311807500198,,,,,,,,,,,,,,,,,,,,,,,,,,,,,,,,,,,,,,,,,,,,,,,,,,,,,,,,,,,,,,,,,,,,,,,,,611.4240418330301,611.4311807500198,612.4296097080223,613.4130383750307,613.4130383750307,613.4130383750307,614.8715256249998,left,1.45264179201331,None,,,,,,,,,,,379009,001,2024-12-08_15h32.18.431,Test,2024.2.4,None,2024-12-08 15h32.59.212260 +0100,
45,150,30,2,None,17,17,0,True,,,,left,2.071256584022194,None,,,,,,,,,,,,,0,17,17,17,614.8857019580319,,,,,,,,,,,,,,,,,,,,,,,,,,,,,,,,,,,,,,,,,,,,,,,,,,,,,,,,,,,,,,,,,,,,,,,,,614.8797687080223,614.8857019580319,615.8796139580081,616.8701327500166,616.8701327500166,616.8701327500166,618.9483574579936,left,2.071256584022194,None,,,,,,,,,,,379009,001,2024-12-08_15h32.18.431,Test,2024.2.4,None,2024-12-08 15h32.59.212260 +0100,
34,150,180,4,None,18,18,0,False,,,,right,1.362579375039786,None,,,,,,,,,,,,,0,18,18,18,618.9625902920379,,,,,,,,,,,,,,,,,,,,,,,,,,,,,,,,,,,,,,,,,,,,,,,,,,,,,,,,,,,,,,,,,,,,,,,,,618.9568855830003,618.9625902920379,619.9510084170033,620.9463869170286,620.9463869170286,620.9463869170286,622.3150716670207,right,1.362579375039786,None,,,,,,,,,,,379009,001,2024-12-08_15h32.18.431,Test,2024.2.4,None,2024-12-08 15h32.59.212260 +0100,
66,150,180,28,None,19,19,0,True,,,,right,1.3084442079998553,None,,,,,,,,,,,,,0,19,19,19,622.3294973750017,,,,,,,,,,,,,,,,,,,,,,,,,,,,,,,,,,,,,,,,,,,,,,,,,,,,,,,,,,,,,,,,,,,,,,,,,622.3233520420035,622.3294973750017,623.3179305830272,624.3131184169906,624.3131184169906,624.3131184169906,625.6315820420277,right,1.3084442079998553,None,,,,,,,,,,,379009,001,2024-12-08_15h32.18.431,Test,2024.2.4,None,2024-12-08 15h32.59.212260 +0100,
30,150,150,36,None,20,20,0,False,,,,left,1.6678622500039637,None,,,,,,,,,,,,,0,20,20,20,625.6461585829966,,,,,,,,,,,,,,,,,,,,,,,,,,,,,,,,,,,,,,,,,,,,,,,,,,,,,,,,,,,,,,,,,,,,,,,,,625.6402872920153,625.6461585829966,626.634947833023,627.6295534170349,627.6295534170349,627.6295534170349,629.3043164580013,left,1.6678622500039637,None,,,,,,,,,,,379009,001,2024-12-08_15h32.18.431,Test,2024.2.4,None,2024-12-08 15h32.59.212260 +0100,
46,150,60,25,None,21,21,0,True,,,,left,1.7994307919871062,None,,,,,,,,,,,,,0,21,21,21,629.3193023750209,,,,,,,,,,,,,,,,,,,,,,,,,,,,,,,,,,,,,,,,,,,,,,,,,,,,,,,,,,,,,,,,,,,,,,,,,629.3130526249879,629.3193023750209,630.3130086250021,631.3035347920377,631.3035347920377,631.3035347920377,633.105217125034,left,1.7994307919871062,None,,,,,,,,,,,379009,001,2024-12-08_15h32.18.431,Test,2024.2.4,None,2024-12-08 15h32.59.212260 +0100,
16,150,90,39,None,22,22,0,False,,,,right,1.294352083990816,None,,,,,,,,,,,,,0,22,22,22,633.1202066250262,,,,,,,,,,,,,,,,,,,,,,,,,,,,,,,,,,,,,,,,,,,,,,,,,,,,,,,,,,,,,,,,,,,,,,,,,633.1142085830215,633.1202066250262,634.1174321669969,635.1035255420138,635.1035255420138,635.1035255420138,636.4043582919985,right,1.294352083990816,None,,,,,,,,,,,379009,001,2024-12-08_15h32.18.431,Test,2024.2.4,None,2024-12-08 15h32.59.212260 +0100,
52,150,90,5,None,23,23,0,True,,,,right,0.8388829580508173,None,,,,,,,,,,,,,0,23,23,23,636.4201746250037,,,,,,,,,,,,,,,,,,,,,,,,,,,,,,,,,,,,,,,,,,,,,,,,,,,,,,,,,,,,,,,,,,,,,,,,,636.4132905420265,636.4201746250037,637.4180977499927,638.4032655420015,638.4032655420015,638.4032655420015,639.2482853750116,right,0.8388829580508173,None,,,,,,,,,,,379009,001,2024-12-08_15h32.18.431,Test,2024.2.4,None,2024-12-08 15h32.59.212260 +0100,
17,150,90,59,None,24,24,0,False,,,,left,2.232997083978262,None,,,,,,,,,,,,,0,24,24,24,639.2621484170086,,,,,,,,,,,,,,,,,,,,,,,,,,,,,,,,,,,,,,,,,,,,,,,,,,,,,,,,,,,,,,,,,,,,,,,,,639.2562868330278,639.2621484170086,640.2515651250142,641.2465880000382,641.2465880000382,641.2465880000382,643.4821437500068,left,2.232997083978262,None,,,,,,,,,,,379009,001,2024-12-08_15h32.18.431,Test,2024.2.4,None,2024-12-08 15h32.59.212260 +0100,
60,150,120,37,None,25,25,0,True,,,,right,1.562631416018121,None,,,,,,,,,,,,,0,25,25,25,643.4972048749914,,,,,,,,,,,,,,,,,,,,,,,,,,,,,,,,,,,,,,,,,,,,,,,,,,,,,,,,,,,,,,,,,,,,,,,,,643.4910335420282,643.4972048749914,644.4963205830427,645.4796939580119,645.4796939580119,645.4796939580119,647.0484348330065,right,1.562631416018121,None,,,,,,,,,,,379009,001,2024-12-08_15h32.18.431,Test,2024.2.4,None,2024-12-08 15h32.59.212260 +0100,
68,150,180,43,None,26,26,0,True,,,,left,2.0524110840051435,None,,,,,,,,,,,,,0,26,26,26,647.0630326250102,,,,,,,,,,,,,,,,,,,,,,,,,,,,,,,,,,,,,,,,,,,,,,,,,,,,,,,,,,,,,,,,,,,,,,,,,647.0571370830294,647.0630326250102,648.0515055829892,649.0463491670089,649.0463491670089,649.0463491670089,651.105577792041,left,2.0524110840051435,None,,,,,,,,,,,379009,001,2024-12-08_15h32.18.431,Test,2024.2.4,None,2024-12-08 15h32.59.212260 +0100,
40,150,0,60,None,27,27,0,True,,,,left,1.3150927919778042,None,,,,,,,,,,,,,0,27,27,27,651.120277042035,,,,,,,,,,,,,,,,,,,,,,,,,,,,,,,,,,,,,,,,,,,,,,,,,,,,,,,,,,,,,,,,,,,,,,,,,651.1139885000302,651.120277042035,652.1182277500047,653.1044044580194,653.1044044580194,653.1044044580194,654.4217738750158,left,1.3150927919778042,None,,,,,,,,,,,379009,001,2024-12-08_15h32.18.431,Test,2024.2.4,None,2024-12-08 15h32.59.212260 +0100,
3,150,0,10,None,28,28,0,False,,,,left,1.5348692500265315,None,,,,,,,,,,,,,0,28,28,28,654.4364399579936,,,,,,,,,,,,,,,,,,,,,,,,,,,,,,,,,,,,,,,,,,,,,,,,,,,,,,,,,,,,,,,,,,,,,,,,,654.4305220830138,654.4364399579936,655.4295186669915,656.4193978330004,656.4193978330004,656.4193978330004,657.9650383749977,left,1.5348692500265315,None,,,,,,,,,,,379009,001,2024-12-08_15h32.18.431,Test,2024.2.4,None,2024-12-08 15h32.59.212260 +0100,
59,150,120,26,None,29,29,0,True,,,,left,1.5077264999854378,None,,,,,,,,,,,,,0,29,29,29,657.980425833026,,,,,,,,,,,,,,,,,,,,,,,,,,,,,,,,,,,,,,,,,,,,,,,,,,,,,,,,,,,,,,,,,,,,,,,,,657.9739143750048,657.980425833026,658.9677507079905,659.9630631250329,659.9630631250329,659.9630631250329,661.4815851669991,left,1.5077264999854378,None,,,,,,,,,,,379009,001,2024-12-08_15h32.18.431,Test,2024.2.4,None,2024-12-08 15h32.59.212260 +0100,
39,150,0,41,None,30,30,0,True,,,,right,0.8840632499777712,None,,,,,,,,,,,,,0,30,30,30,661.4968779170304,,,,,,,,,,,,,,,,,,,,,,,,,,,,,,,,,,,,,,,,,,,,,,,,,,,,,,,,,,,,,,,,,,,,,,,,,661.4904952080105,661.4968779170304,662.4848792499979,663.4797582080355,663.4797582080355,663.4797582080355,664.3751184580033,right,0.8840632499777712,None,,,,,,,,,,,379009,001,2024-12-08_15h32.18.431,Test,2024.2.4,None,2024-12-08 15h32.59.212260 +0100,
21,150,120,29,None,31,31,0,False,,,,right,0.8593314579920843,None,,,,,,,,,,,,,0,31,31,31,664.3876119999913,,,,,,,,,,,,,,,,,,,,,,,,,,,,,,,,,,,,,,,,,,,,,,,,,,,,,,,,,,,,,,,,,,,,,,,,,664.3829127500067,664.3876119999913,665.3842627500417,666.3709837500355,666.3709837500355,666.3709837500355,667.2414715830237,right,0.8593314579920843,None,,,,,,,,,,,379009,001,2024-12-08_15h32.18.431,Test,2024.2.4,None,2024-12-08 15h32.59.212260 +0100,
7,150,30,44,None,32,32,0,False,,,,left,4.221219124970958,None,,,,,,,,,,,,,0,32,32,32,667.2533608330414,,,,,,,,,,,,,,,,,,,,,,,,,,,,,,,,,,,,,,,,,,,,,,,,,,,,,,,,,,,,,,,,,,,,,,,,,667.248591792013,667.2533608330414,668.2516792500392,669.2366258330294,669.2366258330294,669.2366258330294,673.4648155830218,left,4.221219124970958,None,672.229593541997,672.229593541997,672.2371718750219,,,,,,,,379009,001,2024-12-08_15h32.18.431,Test,2024.2.4,None,2024-12-08 15h32.59.212260 +0100,
42,150,30,57,None,33,33,0,True,,,,right,1.1536532079917379,None,,,,,,,,,,,,,0,33,33,33,673.480173042044,,,,,,,,,,,,,,,,,,,,,,,,,,,,,,,,,,,,,,,,,,,,,,,,,,,,,,,,,,,,,,,,,,,,,,,,,673.4733706670231,673.480173042044,674.4693960000295,675.4630367920035,675.4630367920035,675.4630367920035,676.6217932080035,right,1.1536532079917379,None,,,,,,,,,,,379009,001,2024-12-08_15h32.18.431,Test,2024.2.4,None,2024-12-08 15h32.59.212260 +0100,
41,150,30,33,None,34,34,0,True,,,,left,1.1697489169891924,None,,,,,,,,,,,,,0,34,34,34,676.6369951250381,,,,,,,,,,,,,,,,,,,,,,,,,,,,,,,,,,,,,,,,,,,,,,,,,,,,,,,,,,,,,,,,,,,,,,,,,676.630472082994,676.6369951250381,677.6340410000412,678.619911124988,678.619911124988,678.619911124988,679.7982102080132,left,1.1697489169891924,None,,,,,,,,,,,379009,001,2024-12-08_15h32.18.431,Test,2024.2.4,None,2024-12-08 15h32.59.212260 +0100,
35,150,180,51,None,35,35,0,False,,,,right,0.8283717919839546,None,,,,,,,,,,,,,0,35,35,35,679.8136870420421,,,,,,,,,,,,,,,,,,,,,,,,,,,,,,,,,,,,,,,,,,,,,,,,,,,,,,,,,,,,,,,,,,,,,,,,,679.8068574999925,679.8136870420421,680.801491958031,681.7963805420441,681.7963805420441,681.7963805420441,682.6318650830071,right,0.8283717919839546,None,,,,,,,,,,,379009,001,2024-12-08_15h32.18.431,Test,2024.2.4,None,2024-12-08 15h32.59.212260 +0100,
50,150,60,62,None,36,36,0,True,,,,left,1.6142356250202283,None,,,,,,,,,,,,,0,36,36,36,682.6509012500173,,,,,,,,,,,,,,,,,,,,,,,,,,,,,,,,,,,,,,,,,,,,,,,,,,,,,,,,,,,,,,,,,,,,,,,,,682.6447562500252,682.6509012500173,683.64631916699,684.6292958750273,684.6292958750273,684.6292958750273,686.2482743750443,left,1.6142356250202283,None,,,,,,,,,,,379009,001,2024-12-08_15h32.18.431,Test,2024.2.4,None,2024-12-08 15h32.59.212260 +0100,
54,150,90,64,None,37,37,0,True,,,,right,0.8514304170385003,None,,,,,,,,,,,,,0,37,37,37,686.2649472079938,,,,,,,,,,,,,,,,,,,,,,,,,,,,,,,,,,,,,,,,,,,,,,,,,,,,,,,,,,,,,,,,,,,,,,,,,686.2586186249973,686.2649472079938,687.2629184580292,688.2464678750257,688.2464678750257,688.2464678750257,689.105156958045,right,0.8514304170385003,None,,,,,,,,,,,379009,001,2024-12-08_15h32.18.431,Test,2024.2.4,None,2024-12-08 15h32.59.212260 +0100,
29,150,150,16,None,38,38,0,False,,,,right,1.0031257910304703,None,,,,,,,,,,,,,0,38,38,38,689.1204763750429,,,,,,,,,,,,,,,,,,,,,,,,,,,,,,,,,,,,,,,,,,,,,,,,,,,,,,,,,,,,,,,,,,,,,,,,,689.1139564579935,689.1204763750429,690.1177340000286,691.1036035420257,691.1036035420257,691.1036035420257,692.1149605420069,right,1.0031257910304703,None,,,,,,,,,,,379009,001,2024-12-08_15h32.18.431,Test,2024.2.4,None,2024-12-08 15h32.59.212260 +0100,
57,150,120,46,None,39,39,0,True,,,,right,0.9346344160148874,None,,,,,,,,,,,,,0,39,39,39,692.1304105000454,,,,,,,,,,,,,,,,,,,,,,,,,,,,,,,,,,,,,,,,,,,,,,,,,,,,,,,,,,,,,,,,,,,,,,,,,692.1238500830368,692.1304105000454,693.1181309170206,694.1130935000256,694.1130935000256,694.1130935000256,695.0577730000368,right,0.9346344160148874,None,,,,,,,,,,,379009,001,2024-12-08_15h32.18.431,Test,2024.2.4,None,2024-12-08 15h32.59.212260 +0100,
18,150,90,38,None,40,40,0,False,,,,left,1.3109824999701232,None,,,,,,,,,,,,,0,40,40,40,695.0696784580359,,,,,,,,,,,,,,,,,,,,,,,,,,,,,,,,,,,,,,,,,,,,,,,,,,,,,,,,,,,,,,,,,,,,,,,,,695.0648879170185,695.0696784580359,696.0629190829932,697.0543948330451,697.0543948330451,697.0543948330451,698.3707324170391,left,1.3109824999701232,None,,,,,,,,,,,379009,001,2024-12-08_15h32.18.431,Test,2024.2.4,None,2024-12-08 15h32.59.212260 +0100,
20,150,90,61,None,41,41,0,False,,,,left,1.2429358339868486,None,,,,,,,,,,,,,0,41,41,41,698.3851565000368,,,,,,,,,,,,,,,,,,,,,,,,,,,,,,,,,,,,,,,,,,,,,,,,,,,,,,,,,,,,,,,,,,,,,,,,,698.3786982080201,698.3851565000368,699.3795470420155,700.3700830000453,700.3700830000453,700.3700830000453,701.6152861670125,left,1.2429358339868486,None,,,,,,,,,,,379009,001,2024-12-08_15h32.18.431,Test,2024.2.4,None,2024-12-08 15h32.59.212260 +0100,
58,150,120,12,None,42,42,0,True,,,,left,1.1545102079981007,None,,,,,,,,,,,,,0,42,42,42,701.6301248330274,,,,,,,,,,,,,,,,,,,,,,,,,,,,,,,,,,,,,,,,,,,,,,,,,,,,,,,,,,,,,,,,,,,,,,,,,701.6233465000405,701.6301248330274,702.6176878749975,703.6130149580422,703.6130149580422,703.6130149580422,704.772412625025,left,1.1545102079981007,None,,,,,,,,,,,379009,001,2024-12-08_15h32.18.431,Test,2024.2.4,None,2024-12-08 15h32.59.212260 +0100,
10,150,30,58,None,43,43,0,False,,,,right,0.7978879580041394,None,,,,,,,,,,,,,0,43,43,43,704.787706083036,,,,,,,,,,,,,,,,,,,,,,,,,,,,,,,,,,,,,,,,,,,,,,,,,,,,,,,,,,,,,,,,,,,,,,,,,704.7811892080354,704.787706083036,705.7848004170228,706.7700464579975,706.7700464579975,706.7700464579975,707.5715355420252,right,0.7978879580041394,None,,,,,,,,,,,379009,001,2024-12-08_15h32.18.431,Test,2024.2.4,None,2024-12-08 15h32.59.212260 +0100,
13,150,60,23,None,44,44,0,False,,,,left,2.6542302499874495,None,,,,,,,,,,,,,0,44,44,44,707.5864013750106,,,,,,,,,,,,,,,,,,,,,,,,,,,,,,,,,,,,,,,,,,,,,,,,,,,,,,,,,,,,,,,,,,,,,,,,,707.5804327920196,707.5864013750106,708.5796161670005,709.5699344580062,709.5699344580062,709.5699344580062,712.2324297919986,left,2.6542302499874495,None,,,,,,,,,,,379009,001,2024-12-08_15h32.18.431,Test,2024.2.4,None,2024-12-08 15h32.59.212260 +0100,
14,150,60,49,None,45,45,0,False,,,,left,1.3248278750106692,None,,,,,,,,,,,,,0,45,45,45,712.2483564580325,,,,,,,,,,,,,,,,,,,,,,,,,,,,,,,,,,,,,,,,,,,,,,,,,,,,,,,,,,,,,,,,,,,,,,,,,712.2415276670363,712.2483564580325,713.2463082500035,714.2298811670044,714.2298811670044,714.2298811670044,715.5649833750213,left,1.3248278750106692,None,,,,,,,,,,,379009,001,2024-12-08_15h32.18.431,Test,2024.2.4,None,2024-12-08 15h32.59.212260 +0100,
47,150,60,21,None,46,46,0,True,,,,left,1.136864207976032,None,,,,,,,,,,,,,0,46,46,46,715.5795252920361,,,,,,,,,,,,,,,,,,,,,,,,,,,,,,,,,,,,,,,,,,,,,,,,,,,,,,,,,,,,,,,,,,,,,,,,,715.5735942920437,715.5795252920361,716.5684914580197,717.5630667500081,717.5630667500081,717.5630667500081,718.7051844170201,left,1.136864207976032,None,,,,,,,,,,,379009,001,2024-12-08_15h32.18.431,Test,2024.2.4,None,2024-12-08 15h32.59.212260 +0100,
67,150,180,47,None,47,47,0,True,,,,right,0.8159763749572448,None,,,,,,,,,,,,,0,47,47,47,718.7205414170166,,,,,,,,,,,,,,,,,,,,,,,,,,,,,,,,,,,,,,,,,,,,,,,,,,,,,,,,,,,,,,,,,,,,,,,,,718.7141564580379,718.7205414170166,719.7182759999996,720.7043388329912,720.7043388329912,720.7043388329912,721.5308284580242,right,0.8159763749572448,None,,,,,,,,,,,379009,001,2024-12-08_15h32.18.431,Test,2024.2.4,None,2024-12-08 15h32.59.212260 +0100,
61,150,150,14,None,48,48,0,True,,,,right,0.5573247090214863,None,,,,,,,,,,,,,0,48,48,48,721.5442975829937,,,,,,,,,,,,,,,,,,,,,,,,,,,,,,,,,,,,,,,,,,,,,,,,,,,,,,,,,,,,,,,,,,,,,,,,,721.5395620830241,721.5442975829937,722.5344918750343,723.529667750001,723.529667750001,723.529667750001,724.0892791250371,right,0.5573247090214863,None,,,,,,,,,,,379009,001,2024-12-08_15h32.18.431,Test,2024.2.4,None,2024-12-08 15h32.59.212260 +0100,
55,150,90,15,None,49,49,0,True,,,,right,0.9101917090010829,None,,,,,,,,,,,,,0,49,49,49,724.1048920419998,,,,,,,,,,,,,,,,,,,,,,,,,,,,,,,,,,,,,,,,,,,,,,,,,,,,,,,,,,,,,,,,,,,,,,,,,724.0982171670184,724.1048920419998,725.101533167006,726.0875746250385,726.0875746250385,726.0875746250385,727.0044433750445,right,0.9101917090010829,None,,,,,,,,,,,379009,001,2024-12-08_15h32.18.431,Test,2024.2.4,None,2024-12-08 15h32.59.212260 +0100,
48,150,60,7,None,50,50,0,True,,,,left,0.8167108329944313,None,,,,,,,,,,,,,0,50,50,50,727.0196199170314,,,,,,,,,,,,,,,,,,,,,,,,,,,,,,,,,,,,,,,,,,,,,,,,,,,,,,,,,,,,,,,,,,,,,,,,,727.0128054170054,727.0196199170314,728.0183841669932,729.0034634170006,729.0034634170006,729.0034634170006,729.8303796250257,left,0.8167108329944313,None,,,,,,,,,,,379009,001,2024-12-08_15h32.18.431,Test,2024.2.4,None,2024-12-08 15h32.59.212260 +0100,
27,150,150,45,None,51,51,0,False,,,,right,0.8181286659673788,None,,,,,,,,,,,,,0,51,51,51,729.8427027500002,,,,,,,,,,,,,,,,,,,,,,,,,,,,,,,,,,,,,,,,,,,,,,,,,,,,,,,,,,,,,,,,,,,,,,,,,729.8382377499947,729.8427027500002,730.8347763750353,731.8200604169979,731.8200604169979,731.8200604169979,732.6485122080194,right,0.8181286659673788,None,,,,,,,,,,,379009,001,2024-12-08_15h32.18.431,Test,2024.2.4,None,2024-12-08 15h32.59.212260 +0100,
2,150,0,50,None,52,52,0,False,,,,left,1.2066360419848934,None,,,,,,,,,,,,,0,52,52,52,732.663929833041,,,,,,,,,,,,,,,,,,,,,,,,,,,,,,,,,,,,,,,,,,,,,,,,,,,,,,,,,,,,,,,,,,,,,,,,,732.6571607080405,732.663929833041,733.6628499579965,734.6464086670312,734.6464086670312,734.6464086670312,735.8551780830021,left,1.2066360419848934,None,,,,,,,,,,,379009,001,2024-12-08_15h32.18.431,Test,2024.2.4,None,2024-12-08 15h32.59.212260 +0100,
1,150,0,67,None,53,53,0,False,,,,left,1.4109312079963274,None,,,,,,,,,,,,,0,53,53,53,735.869331917027,,,,,,,,,,,,,,,,,,,,,,,,,,,,,,,,,,,,,,,,,,,,,,,,,,,,,,,,,,,,,,,,,,,,,,,,,735.8634675000212,735.869331917027,736.8628995000036,737.8534422920202,737.8534422920202,737.8534422920202,739.2711204999941,left,1.4109312079963274,None,,,,,,,,,,,379009,001,2024-12-08_15h32.18.431,Test,2024.2.4,None,2024-12-08 15h32.59.212260 +0100,
11,150,60,1,None,54,54,0,False,,,,right,1.0208730000304058,None,,,,,,,,,,,,,0,54,54,54,739.2860248330398,,,,,,,,,,,,,,,,,,,,,,,,,,,,,,,,,,,,,,,,,,,,,,,,,,,,,,,,,,,,,,,,,,,,,,,,,739.2796376670012,739.2860248330398,740.2797071250388,741.2710712500266,741.2710712500266,741.2710712500266,742.2984677079949,right,1.0208730000304058,None,,,,,,,,,,,379009,001,2024-12-08_15h32.18.431,Test,2024.2.4,None,2024-12-08 15h32.59.212260 +0100,
43,150,30,20,None,55,55,0,True,,,,left,2.135312416998204,None,,,,,,,,,,,,,0,55,55,55,742.3134378330433,,,,,,,,,,,,,,,,,,,,,,,,,,,,,,,,,,,,,,,,,,,,,,,,,,,,,,,,,,,,,,,,,,,,,,,,,742.3071910830331,742.3134378330433,743.302397374995,744.2964342919877,744.2964342919877,744.2964342919877,746.43830995803,left,2.135312416998204,None,,,,,,,,,,,379009,001,2024-12-08_15h32.18.431,Test,2024.2.4,None,2024-12-08 15h32.59.212260 +0100,
22,150,120,24,None,56,56,0,False,,,,right,1.2273556659929454,None,,,,,,,,,,,,,0,56,56,56,746.4539773330325,,,,,,,,,,,,,,,,,,,,,,,,,,,,,,,,,,,,,,,,,,,,,,,,,,,,,,,,,,,,,,,,,,,,,,,,,746.4473125420045,746.4539773330325,747.4523545830161,748.4368205000064,748.4368205000064,748.4368205000064,749.6709682079963,right,1.2273556659929454,None,,,,,,,,,,,379009,001,2024-12-08_15h32.18.431,Test,2024.2.4,None,2024-12-08 15h32.59.212260 +0100,
51,150,90,65,None,57,57,0,True,,,,left,0.7511020829551853,None,,,,,,,,,,,,,0,57,57,57,749.685041083023,,,,,,,,,,,,,,,,,,,,,,,,,,,,,,,,,,,,,,,,,,,,,,,,,,,,,,,,,,,,,,,,,,,,,,,,,749.6789926670026,749.685041083023,750.6796521670185,751.67010591703,751.67010591703,751.67010591703,752.431652542029,left,0.7511020829551853,None,,,,,,,,,,,379009,001,2024-12-08_15h32.18.431,Test,2024.2.4,None,2024-12-08 15h32.59.212260 +0100,
4,150,0,40,None,58,58,0,False,,,,left,0.8109397499938495,None,,,,,,,,,,,,,0,58,58,58,752.4462081250385,,,,,,,,,,,,,,,,,,,,,,,,,,,,,,,,,,,,,,,,,,,,,,,,,,,,,,,,,,,,,,,,,,,,,,,,,752.4398661670275,752.4462081250385,753.4350015830132,754.4298000420094,754.4298000420094,754.4298000420094,755.24850229203,left,0.8109397499938495,None,,,,,,,,,,,379009,001,2024-12-08_15h32.18.431,Test,2024.2.4,None,2024-12-08 15h32.59.212260 +0100,
37,150,0,55,None,59,59,0,True,,,,right,1.1076952909934334,None,,,,,,,,,,,,,0,59,59,59,755.2639172080089,,,,,,,,,,,,,,,,,,,,,,,,,,,,,,,,,,,,,,,,,,,,,,,,,,,,,,,,,,,,,,,,,,,,,,,,,755.2567207080428,755.2639172080089,756.2511496670195,757.2463450829964,757.2463450829964,757.2463450829964,758.3648942080326,right,1.1076952909934334,None,,,,,,,,,,,379009,001,2024-12-08_15h32.18.431,Test,2024.2.4,None,2024-12-08 15h32.59.212260 +0100,
44,150,30,63,None,60,60,0,True,,,,left,1.0026522080297582,None,,,,,,,,,,,,,0,60,60,60,758.3788876670296,,,,,,,,,,,,,,,,,,,,,,,,,,,,,,,,,,,,,,,,,,,,,,,,,,,,,,,,,,,,,,,,,,,,,,,,,758.3724780000048,758.3788876670296,759.3682601249893,760.3631080420455,760.3631080420455,760.3631080420455,761.3717765830224,left,1.0026522080297582,None,,,,,,,,,,,379009,001,2024-12-08_15h32.18.431,Test,2024.2.4,None,2024-12-08 15h32.59.212260 +0100,
53,150,90,17,None,61,61,0,True,,,,right,0.9875827499781735,None,,,,,,,,,,,,,0,61,61,61,761.3871327920351,,,,,,,,,,,,,,,,,,,,,,,,,,,,,,,,,,,,,,,,,,,,,,,,,,,,,,,,,,,,,,,,,,,,,,,,,761.380512792035,761.3871327920351,762.3851646250114,763.3705980420345,763.3705980420345,763.3705980420345,764.3650892080041,right,0.9875827499781735,None,,,,,,,,,,,379009,001,2024-12-08_15h32.18.431,Test,2024.2.4,None,2024-12-08 15h32.59.212260 +0100,
33,150,180,27,None,62,62,0,False,,,,left,1.5003157500177622,None,,,,,,,,,,,,,0,62,62,62,764.3803595000063,,,,,,,,,,,,,,,,,,,,,,,,,,,,,,,,,,,,,,,,,,,,,,,,,,,,,,,,,,,,,,,,,,,,,,,,,764.3739794170251,764.3803595000063,765.3684408330009,766.3630863330327,766.3630863330327,766.3630863330327,767.8655592080322,left,1.5003157500177622,None,,,,,,,,,,,379009,001,2024-12-08_15h32.18.431,Test,2024.2.4,None,2024-12-08 15h32.59.212260 +0100,
69,150,180,22,None,63,63,0,True,,,,left,2.4184363749809563,None,,,,,,,,,,,,,0,63,63,63,767.8781080420013,,,,,,,,,,,,,,,,,,,,,,,,,,,,,,,,,,,,,,,,,,,,,,,,,,,,,,,,,,,,,,,,,,,,,,,,,767.872511708003,767.8781080420013,768.8682051250362,769.863135749998,769.863135749998,769.863135749998,772.2877462920151,left,2.4184363749809563,None,,,,,,,,,,,379009,001,2024-12-08_15h32.18.431,Test,2024.2.4,None,2024-12-08 15h32.59.212260 +0100,
64,150,150,52,None,64,64,0,True,,,,right,1.3288529579876922,None,,,,,,,,,,,,,0,64,64,64,772.3033668750431,,,,,,,,,,,,,,,,,,,,,,,,,,,,,,,,,,,,,,,,,,,,,,,,,,,,,,,,,,,,,,,,,,,,,,,,,772.2967475830228,772.3033668750431,773.3017765420373,774.2869870000286,774.2869870000286,774.2869870000286,775.621808958007,right,1.3288529579876922,None,,,,,,,,,,,379009,001,2024-12-08_15h32.18.431,Test,2024.2.4,None,2024-12-08 15h32.59.212260 +0100,
65,150,150,30,None,65,65,0,True,,,,right,1.398805207980331,None,,,,,,,,,,,,,0,65,65,65,775.6373190000304,,,,,,,,,,,,,,,,,,,,,,,,,,,,,,,,,,,,,,,,,,,,,,,,,,,,,,,,,,,,,,,,,,,,,,,,,775.6305350000039,775.6373190000304,776.6341739580384,777.6199505000259,777.6199505000259,777.6199505000259,779.0215944999945,right,1.398805207980331,None,,,,,,,,,,,379009,001,2024-12-08_15h32.18.431,Test,2024.2.4,None,2024-12-08 15h32.59.212260 +0100,
23,150,120,8,None,66,66,0,False,,,,right,1.26920220797183,None,,,,,,,,,,,,,0,66,66,66,779.0355693330057,,,,,,,,,,,,,,,,,,,,,,,,,,,,,,,,,,,,,,,,,,,,,,,,,,,,,,,,,,,,,,,,,,,,,,,,,779.0295127500431,779.0355693330057,780.0295725000324,781.0201150830253,781.0201150830253,781.0201150830253,782.2985820830218,right,1.26920220797183,None,,,,,,,,,,,379009,001,2024-12-08_15h32.18.431,Test,2024.2.4,None,2024-12-08 15h32.59.212260 +0100,
12,150,60,18,None,67,67,0,False,,,,left,0.7785451670060866,None,,,,,,,,,,,,,0,67,67,67,782.3140337080113,,,,,,,,,,,,,,,,,,,,,,,,,,,,,,,,,,,,,,,,,,,,,,,,,,,,,,,,,,,,,,,,,,,,,,,,,782.3071068749996,782.3140337080113,783.3128922500182,784.2965037079994,784.2965037079994,784.2965037079994,785.0818175420281,left,0.7785451670060866,None,,,,,,,,,,,379009,001,2024-12-08_15h32.18.431,Test,2024.2.4,None,2024-12-08 15h32.59.212260 +0100,
24,150,120,56,None,68,68,0,False,,,,right,1.0394354580203071,None,,,,,,,,,,,,,0,68,68,68,785.0967975000385,,,,,,,,,,,,,,,,,,,,,,,,,,,,,,,,,,,,,,,,,,,,,,,,,,,,,,,,,,,,,,,,,,,,,,,,,785.0904692920158,785.0967975000385,786.0848468330223,787.0797688750317,787.0797688750317,787.0797688750317,788.1216224170057,right,1.0394354580203071,None,,,,,,,,,,,379009,001,2024-12-08_15h32.18.431,Test,2024.2.4,None,2024-12-08 15h32.59.212260 +0100,
32,150,180,9,None,69,69,0,False,,,,right,1.0844541249680333,None,,,,,,,,,,,,,0,69,69,69,788.1358789580408,,,,,,,,,,,,,,,,,,,,,,,,,,,,,,,,,,,,,,,,,,,,,,,,,,,,,,,,,,,,,,,,,,,,,,,,,788.129889792006,788.1358789580408,789.1296697920188,790.1193118329975,790.1193118329975,790.1193118329975,791.2148791670334,right,1.0844541249680333,None,,,,,,,,,,,379009,001,2024-12-08_15h32.18.431,Test,2024.2.4,None,2024-12-08 15h32.59.212260 +0100,
,,,,,,,,,,,,,,,,,,,,,,,,,,,,,,,,,,,,,,,,,,,,,,,,,,,,,,,,,,,,,,,,,,,,,,,,,,,,,,,,,,,,,,,,,,,,,,,,,,,,,,,,,,,,,,,,,,,,,791.2152082920074,791.2245679580374,791.2245679580374,794.5998777080094,space,3.3624637500033714,None,379009,001,2024-12-08_15h32.18.431,Test,2024.2.4,None,2024-12-08 15h32.59.212260 +0100,
