Trial_Number,Exposure_Duration,Displacement_Angle,Stimulus,Response,thisN,thisTrialN,thisRepN,Is_Distractor,key_resp_3.keys,key_resp_3.rt,key_resp_3.duration,key_resp_7.keys,key_resp_7.rt,key_resp_7.duration,trials.thisRepN,trials.thisTrialN,trials.thisN,trials.thisIndex,trials_2.thisRepN,trials_2.thisTrialN,trials_2.thisN,trials_2.thisIndex,trials_3.thisRepN,trials_3.thisTrialN,trials_3.thisN,trials_3.thisIndex,trials_4.thisRepN,trials_4.thisTrialN,trials_4.thisN,trials_4.thisIndex,thisRow.t,notes,Intro_to_experiment.started,important1_2.started,key_resp_8.started,Intro_to_experiment.stopped,key_resp_8.keys,key_resp_8.rt,key_resp_8.duration,important.started,important1.started,key_resp_4.started,important.stopped,key_resp_4.keys,key_resp_4.rt,key_resp_4.duration,training_instruction.started,key_resp_9.started,important1_3.started,training_instruction.stopped,key_resp_9.keys,key_resp_9.rt,key_resp_9.duration,training_trial.started,cross.started,image.started,aperture.started,cross.stopped,image.stopped,aperture.stopped,training_trial.stopped,New_instruction.started,text.started,key_resp_2.started,New_instruction.stopped,key_resp_2.keys,key_resp_2.rt,key_resp_2.duration,test_trial.started,cross2.started,cross2.stopped,image_2.started,key_resp_3.started,aperture_2.started,test_trial.stopped,trials_2.key_resp_3.keys,trials_2.key_resp_3.rt,trials_2.key_resp_3.duration,start_blok_2.started,key_resp_5.started,text_4.started,start_blok_2.stopped,key_resp_5.keys,key_resp_5.rt,key_resp_5.duration,training_2.started,cross_2.started,image_3.started,aperture_3.started,cross_2.stopped,image_3.stopped,aperture_3.stopped,training_2.stopped,nyeste_instruks.started,text_5.started,key_resp_6.started,nyeste_instruks.stopped,key_resp_6.keys,key_resp_6.rt,key_resp_6.duration,test_2.started,cross2_2.started,cross2_2.stopped,image_4.started,key_resp_7.started,aperture_4.started,test_2.stopped,trials_4.key_resp_7.keys,trials_4.key_resp_7.rt,trials_4.key_resp_7.duration,Instruction.started,Instruktion.started,key_resp.started,Instruction.stopped,key_resp.keys,key_resp.rt,key_resp.duration,participant,session,date,expName,psychopyVersion,frameRate,expStart,
,,,,,,,,,,,,,,,,,,,,,,,,,,,,,,,,,0.006104125001002103,0.016333125007804483,0.016333125007804483,67.6090671250131,space,67.55388191598468,None,,,,,,,,,,,,,,,,,,,,,,,,,,,,,,,,,,,,,,,,,,,,,,,,,,,,,,,,,,,,,,,,,,,,,,,,,,,,,,,386625,001,2024-12-08_14h02.43.627,Test,2024.2.4,None,2024-12-08 14h02.53.992954 +0100,
,,,,,,,,,,,,,,,,,,,,,,,,,,,,,,,,,,,,,,,,67.60935816599522,67.64655929099536,67.64655929099536,81.34200733300531,space,13.666825374995824,None,,,,,,,,,,,,,,,,,,,,,,,,,,,,,,,,,,,,,,,,,,,,,,,,,,,,,,,,,,,,,,,,,,,,,,,,386625,001,2024-12-08_14h02.43.627,Test,2024.2.4,None,2024-12-08 14h02.53.992954 +0100,
,,,,,,,,,,,,,,,,,,,,,,,,,,,,,,,,,,,,,,,,,,,,,,,81.34206587501103,81.34733545803465,81.34733545803465,93.67112283298047,space,12.3159982500365,None,,,,,,,,,,,,,,,,,,,,,,,,,,,,,,,,,,,,,,,,,,,,,,,,,,,,,,,,,,,,,,,,,386625,001,2024-12-08_14h02.43.627,Test,2024.2.4,None,2024-12-08 14h02.53.992954 +0100,
25,150,120,21,None,0,0,0,,,,,,,,0,0,0,24,,,,,,,,,,,,,93.74536270799581,,,,,,,,,,,,,,,,,,,,,,,93.73070108302636,93.74536270799581,93.86855720798485,93.86855720798485,93.93289183301385,95.56783304101555,95.56783304101555,95.55248349998146,,,,,,,,,,,,,,,,,,,,,,,,,,,,,,,,,,,,,,,,,,,,,,,,,,,,,,,,,386625,001,2024-12-08_14h02.43.627,Test,2024.2.4,None,2024-12-08 14h02.53.992954 +0100,
14,150,60,50,None,1,1,0,,,,,,,,0,1,1,13,,,,,,,,,,,,,95.56783304101555,,,,,,,,,,,,,,,,,,,,,,,95.56304941599956,95.57906616601394,95.76907995803049,95.76907995803049,95.76907995803049,97.46718879102264,97.46718879102264,97.45258358301362,,,,,,,,,,,,,,,,,,,,,,,,,,,,,,,,,,,,,,,,,,,,,,,,,,,,,,,,,386625,001,2024-12-08_14h02.43.627,Test,2024.2.4,None,2024-12-08 14h02.53.992954 +0100,
16,150,90,53,None,2,2,0,,,,,,,,0,2,2,15,,,,,,,,,,,,,97.46718879102264,,,,,,,,,,,,,,,,,,,,,,,97.46252449997701,97.47900966601446,97.6720994579955,97.6720994579955,97.6720994579955,99.37921983300475,99.37921983300475,99.36342804098967,,,,,,,,,,,,,,,,,,,,,,,,,,,,,,,,,,,,,,,,,,,,,,,,,,,,,,,,,386625,001,2024-12-08_14h02.43.627,Test,2024.2.4,None,2024-12-08 14h02.53.992954 +0100,
21,150,120,7,None,3,3,0,,,,,,,,0,3,3,20,,,,,,,,,,,,,99.37921983300475,,,,,,,,,,,,,,,,,,,,,,,99.37418412498664,99.37921983300475,99.5694825410028,99.5694825410028,99.5694825410028,101.26578237500507,101.26578237500507,101.25276045798091,,,,,,,,,,,,,,,,,,,,,,,,,,,,,,,,,,,,,,,,,,,,,,,,,,,,,,,,,386625,001,2024-12-08_14h02.43.627,Test,2024.2.4,None,2024-12-08 14h02.53.992954 +0100,
20,150,90,25,None,4,4,0,,,,,,,,0,4,4,19,,,,,,,,,,,,,101.26578237500507,,,,,,,,,,,,,,,,,,,,,,,101.26144466601545,101.27911612502066,101.46980012499262,101.46980012499262,101.46980012499262,103.16585141600808,103.16585141600808,103.15285850001965,,,,,,,,,,,,,,,,,,,,,,,,,,,,,,,,,,,,,,,,,,,,,,,,,,,,,,,,,386625,001,2024-12-08_14h02.43.627,Test,2024.2.4,None,2024-12-08 14h02.53.992954 +0100,
4,150,0,65,None,5,5,0,,,,,,,,0,5,5,3,,,,,,,,,,,,,103.16585141600808,,,,,,,,,,,,,,,,,,,,,,,103.16145483299624,103.17921287502395,103.36921366601018,103.36921366601018,103.36921366601018,105.06779204099439,105.06779204099439,105.05295995803317,,,,,,,,,,,,,,,,,,,,,,,,,,,,,,,,,,,,,,,,,,,,,,,,,,,,,,,,,386625,001,2024-12-08_14h02.43.627,Test,2024.2.4,None,2024-12-08 14h02.53.992954 +0100,
27,150,150,14,None,6,6,0,,,,,,,,0,6,6,26,,,,,,,,,,,,,105.06779204099439,,,,,,,,,,,,,,,,,,,,,,,105.06289920798736,105.07906729099341,105.26893141597975,105.26893141597975,105.26893141597975,106.97839970799396,106.97839970799396,106.96337512502214,,,,,,,,,,,,,,,,,,,,,,,,,,,,,,,,,,,,,,,,,,,,,,,,,,,,,,,,,386625,001,2024-12-08_14h02.43.627,Test,2024.2.4,None,2024-12-08 14h02.53.992954 +0100,
6,150,30,59,None,7,7,0,,,,,,,,0,7,7,5,,,,,,,,,,,,,106.97839970799396,,,,,,,,,,,,,,,,,,,,,,,106.97314458299661,106.97839970799396,107.16891895799199,107.16891895799199,107.16891895799199,108.86626316601178,108.86626316601178,108.85266037500696,,,,,,,,,,,,,,,,,,,,,,,,,,,,,,,,,,,,,,,,,,,,,,,,,,,,,,,,,386625,001,2024-12-08_14h02.43.627,Test,2024.2.4,None,2024-12-08 14h02.53.992954 +0100,
3,150,0,39,None,8,8,0,,,,,,,,0,8,8,2,,,,,,,,,,,,,108.86626316601178,,,,,,,,,,,,,,,,,,,,,,,108.86174266599119,108.87908304098528,109.0696791249793,109.0696791249793,109.0696791249793,110.7779092080309,110.7779092080309,110.763315875025,,,,,,,,,,,,,,,,,,,,,,,,,,,,,,,,,,,,,,,,,,,,,,,,,,,,,,,,,386625,001,2024-12-08_14h02.43.627,Test,2024.2.4,None,2024-12-08 14h02.53.992954 +0100,
30,150,150,18,None,9,9,0,,,,,,,,0,9,9,29,,,,,,,,,,,,,110.7779092080309,,,,,,,,,,,,,,,,,,,,,,,110.77239233301952,110.7779092080309,110.96950066601858,110.96950066601858,110.96950066601858,112.66551908297697,112.66551908297697,112.6527217910043,,,,,,,,,,,,,,,,,,,,,,,,,,,,,,,,,,,,,,,,,,,,,,,,,,,,,,,,,386625,001,2024-12-08_14h02.43.627,Test,2024.2.4,None,2024-12-08 14h02.53.992954 +0100,
9,150,30,55,None,10,10,0,,,,,,,,0,10,10,8,,,,,,,,,,,,,112.66551908297697,,,,,,,,,,,,,,,,,,,,,,,112.66136383300181,112.67906058300287,112.86943512503058,112.86943512503058,112.86943512503058,114.5794198330259,114.5794198330259,114.56376954098232,,,,,,,,,,,,,,,,,,,,,,,,,,,,,,,,,,,,,,,,,,,,,,,,,,,,,,,,,386625,001,2024-12-08_14h02.43.627,Test,2024.2.4,None,2024-12-08 14h02.53.992954 +0100,
34,150,180,57,None,11,11,0,,,,,,,,0,11,11,33,,,,,,,,,,,,,114.5794198330259,,,,,,,,,,,,,,,,,,,,,,,114.57406075001927,114.5794198330259,114.7688011249993,114.7688011249993,114.7688011249993,116.46679391601356,116.46679391601356,116.4525692500174,,,,,,,,,,,,,,,,,,,,,,,,,,,,,,,,,,,,,,,,,,,,,,,,,,,,,,,,,386625,001,2024-12-08_14h02.43.627,Test,2024.2.4,None,2024-12-08 14h02.53.992954 +0100,
10,150,30,52,None,12,12,0,,,,,,,,0,12,12,9,,,,,,,,,,,,,116.46679391601356,,,,,,,,,,,,,,,,,,,,,,,116.46182708302513,116.47969279100653,116.66939787502633,116.66939787502633,116.66939787502633,118.36733670800459,118.36733670800459,118.35366041603265,,,,,,,,,,,,,,,,,,,,,,,,,,,,,,,,,,,,,,,,,,,,,,,,,,,,,,,,,386625,001,2024-12-08_14h02.43.627,Test,2024.2.4,None,2024-12-08 14h02.53.992954 +0100,
35,150,180,4,None,13,13,0,,,,,,,,0,13,13,34,,,,,,,,,,,,,118.36733670800459,,,,,,,,,,,,,,,,,,,,,,,118.36245587503072,118.37907320802333,118.56968987500295,118.56968987500295,118.56968987500295,120.27788120799232,120.27788120799232,120.26361558301141,,,,,,,,,,,,,,,,,,,,,,,,,,,,,,,,,,,,,,,,,,,,,,,,,,,,,,,,,386625,001,2024-12-08_14h02.43.627,Test,2024.2.4,None,2024-12-08 14h02.53.992954 +0100,
31,150,180,37,None,14,14,0,,,,,,,,0,14,14,30,,,,,,,,,,,,,120.27788120799232,,,,,,,,,,,,,,,,,,,,,,,120.27241537498776,120.27788120799232,120.4695635830285,120.4695635830285,120.4695635830285,122.17799329099944,122.17799329099944,122.16336075001163,,,,,,,,,,,,,,,,,,,,,,,,,,,,,,,,,,,,,,,,,,,,,,,,,,,,,,,,,386625,001,2024-12-08_14h02.43.627,Test,2024.2.4,None,2024-12-08 14h02.53.992954 +0100,
26,150,150,48,None,15,15,0,,,,,,,,0,15,15,25,,,,,,,,,,,,,122.17799329099944,,,,,,,,,,,,,,,,,,,,,,,122.1726150829927,122.17799329099944,122.36942454101518,122.36942454101518,122.36942454101518,124.0661673329887,124.0661673329887,124.05271041602828,,,,,,,,,,,,,,,,,,,,,,,,,,,,,,,,,,,,,,,,,,,,,,,,,,,,,,,,,386625,001,2024-12-08_14h02.43.627,Test,2024.2.4,None,2024-12-08 14h02.53.992954 +0100,
15,150,60,5,None,16,16,0,,,,,,,,0,16,16,14,,,,,,,,,,,,,124.0661673329887,,,,,,,,,,,,,,,,,,,,,,,124.06141191598726,124.07903345802333,124.26950829097768,124.26950829097768,124.26950829097768,125.9774762080051,125.9774762080051,125.96337179100374,,,,,,,,,,,,,,,,,,,,,,,,,,,,,,,,,,,,,,,,,,,,,,,,,,,,,,,,,386625,001,2024-12-08_14h02.43.627,Test,2024.2.4,None,2024-12-08 14h02.53.992954 +0100,
24,150,120,22,None,17,17,0,,,,,,,,0,17,17,23,,,,,,,,,,,,,125.9774762080051,,,,,,,,,,,,,,,,,,,,,,,125.9719341659802,125.9774762080051,126.1692026249948,126.1692026249948,126.1692026249948,127.86548729101196,127.86548729101196,127.85274045797996,,,,,,,,,,,,,,,,,,,,,,,,,,,,,,,,,,,,,,,,,,,,,,,,,,,,,,,,,386625,001,2024-12-08_14h02.43.627,Test,2024.2.4,None,2024-12-08 14h02.53.992954 +0100,
7,150,30,19,None,18,18,0,,,,,,,,0,18,18,6,,,,,,,,,,,,,127.86548729101196,,,,,,,,,,,,,,,,,,,,,,,127.86107645800803,127.8792472910136,128.06909395800903,128.06909395800903,128.06909395800903,129.7649572499795,129.7649572499795,129.75268520799,,,,,,,,,,,,,,,,,,,,,,,,,,,,,,,,,,,,,,,,,,,,,,,,,,,,,,,,,386625,001,2024-12-08_14h02.43.627,Test,2024.2.4,None,2024-12-08 14h02.53.992954 +0100,
23,150,120,15,None,19,19,0,,,,,,,,0,19,19,22,,,,,,,,,,,,,129.7649572499795,,,,,,,,,,,,,,,,,,,,,,,129.76059162500314,129.77909829100827,129.9697410829831,129.9697410829831,129.9697410829831,131.6786589580006,131.6786589580006,131.66339133301517,,,,,,,,,,,,,,,,,,,,,,,,,,,,,,,,,,,,,,,,,,,,,,,,,,,,,,,,,386625,001,2024-12-08_14h02.43.627,Test,2024.2.4,None,2024-12-08 14h02.53.992954 +0100,
32,150,180,58,None,20,20,0,,,,,,,,0,20,20,31,,,,,,,,,,,,,131.6786589580006,,,,,,,,,,,,,,,,,,,,,,,131.6733052500058,131.6786589580006,131.86893579101888,131.86893579101888,131.86893579101888,133.564836458012,133.564836458012,133.55265333299758,,,,,,,,,,,,,,,,,,,,,,,,,,,,,,,,,,,,,,,,,,,,,,,,,,,,,,,,,386625,001,2024-12-08_14h02.43.627,Test,2024.2.4,None,2024-12-08 14h02.53.992954 +0100,
5,150,0,60,None,21,21,0,,,,,,,,0,21,21,4,,,,,,,,,,,,,133.564836458012,,,,,,,,,,,,,,,,,,,,,,,133.56032191601116,133.57906083302805,133.76906729099574,133.76906729099574,133.76906729099574,135.46443283301778,135.46443283301778,135.4522689160076,,,,,,,,,,,,,,,,,,,,,,,,,,,,,,,,,,,,,,,,,,,,,,,,,,,,,,,,,386625,001,2024-12-08_14h02.43.627,Test,2024.2.4,None,2024-12-08 14h02.53.992954 +0100,
29,150,150,17,None,22,22,0,,,,,,,,0,22,22,28,,,,,,,,,,,,,135.46443283301778,,,,,,,,,,,,,,,,,,,,,,,135.45997462503146,135.47909550002078,135.66957329103025,135.66957329103025,135.66957329103025,137.37802287499653,137.37802287499653,137.36342316598166,,,,,,,,,,,,,,,,,,,,,,,,,,,,,,,,,,,,,,,,,,,,,,,,,,,,,,,,,386625,001,2024-12-08_14h02.43.627,Test,2024.2.4,None,2024-12-08 14h02.53.992954 +0100,
2,150,0,56,None,23,23,0,,,,,,,,0,23,23,1,,,,,,,,,,,,,137.37802287499653,,,,,,,,,,,,,,,,,,,,,,,137.37259325000923,137.37802287499653,137.56920216599246,137.56920216599246,137.56920216599246,139.26500062498963,139.26500062498963,139.25274333299603,,,,,,,,,,,,,,,,,,,,,,,,,,,,,,,,,,,,,,,,,,,,,,,,,,,,,,,,,386625,001,2024-12-08_14h02.43.627,Test,2024.2.4,None,2024-12-08 14h02.53.992954 +0100,
19,150,90,28,None,24,24,0,,,,,,,,0,24,24,18,,,,,,,,,,,,,139.26500062498963,,,,,,,,,,,,,,,,,,,,,,,139.26096854102798,139.27913179103052,139.46882633300265,139.46882633300265,139.46882633300265,141.1643046659883,141.1643046659883,141.15248387499014,,,,,,,,,,,,,,,,,,,,,,,,,,,,,,,,,,,,,,,,,,,,,,,,,,,,,,,,,386625,001,2024-12-08_14h02.43.627,Test,2024.2.4,None,2024-12-08 14h02.53.992954 +0100,
17,150,90,38,None,25,25,0,,,,,,,,0,25,25,16,,,,,,,,,,,,,141.1643046659883,,,,,,,,,,,,,,,,,,,,,,,141.15988774999278,141.1791590829962,141.3693604579894,141.3693604579894,141.3693604579894,143.07737424998777,143.07737424998777,143.06344379100483,,,,,,,,,,,,,,,,,,,,,,,,,,,,,,,,,,,,,,,,,,,,,,,,,,,,,,,,,386625,001,2024-12-08_14h02.43.627,Test,2024.2.4,None,2024-12-08 14h02.53.992954 +0100,
28,150,150,42,None,26,26,0,,,,,,,,0,26,26,27,,,,,,,,,,,,,143.07737424998777,,,,,,,,,,,,,,,,,,,,,,,143.07222754100803,143.07737424998777,143.26887329103192,143.26887329103192,143.26887329103192,144.96494883298874,144.96494883298874,144.95254129101522,,,,,,,,,,,,,,,,,,,,,,,,,,,,,,,,,,,,,,,,,,,,,,,,,,,,,,,,,386625,001,2024-12-08_14h02.43.627,Test,2024.2.4,None,2024-12-08 14h02.53.992954 +0100,
22,150,120,27,None,27,27,0,,,,,,,,0,27,27,21,,,,,,,,,,,,,144.96494883298874,,,,,,,,,,,,,,,,,,,,,,,144.96061495802132,144.9791202910128,145.16941266600043,145.16941266600043,145.16941266600043,146.86635233298875,146.86635233298875,146.85267520800699,,,,,,,,,,,,,,,,,,,,,,,,,,,,,,,,,,,,,,,,,,,,,,,,,,,,,,,,,386625,001,2024-12-08_14h02.43.627,Test,2024.2.4,None,2024-12-08 14h02.53.992954 +0100,
33,150,180,43,None,28,28,0,,,,,,,,0,28,28,32,,,,,,,,,,,,,146.86635233298875,,,,,,,,,,,,,,,,,,,,,,,146.86181270802626,146.87900266598444,147.06944145797752,147.06944145797752,147.06944145797752,148.77831466600765,148.77831466600765,148.76386120798998,,,,,,,,,,,,,,,,,,,,,,,,,,,,,,,,,,,,,,,,,,,,,,,,,,,,,,,,,386625,001,2024-12-08_14h02.43.627,Test,2024.2.4,None,2024-12-08 14h02.53.992954 +0100,
13,150,60,10,None,29,29,0,,,,,,,,0,29,29,12,,,,,,,,,,,,,148.77831466600765,,,,,,,,,,,,,,,,,,,,,,,148.77309466601582,148.77831466600765,148.96910562500125,148.96910562500125,148.96910562500125,150.66829733300256,150.66829733300256,150.65372712502722,,,,,,,,,,,,,,,,,,,,,,,,,,,,,,,,,,,,,,,,,,,,,,,,,,,,,,,,,386625,001,2024-12-08_14h02.43.627,Test,2024.2.4,None,2024-12-08 14h02.53.992954 +0100,
11,150,60,30,None,30,30,0,,,,,,,,0,30,30,10,,,,,,,,,,,,,150.66829733300256,,,,,,,,,,,,,,,,,,,,,,,150.66331124998396,150.6790188330342,150.86914179101586,150.86914179101586,150.86914179101586,152.57831620803336,152.57831620803336,152.563668125018,,,,,,,,,,,,,,,,,,,,,,,,,,,,,,,,,,,,,,,,,,,,,,,,,,,,,,,,,386625,001,2024-12-08_14h02.43.627,Test,2024.2.4,None,2024-12-08 14h02.53.992954 +0100,
12,150,60,35,None,31,31,0,,,,,,,,0,31,31,11,,,,,,,,,,,,,152.57831620803336,,,,,,,,,,,,,,,,,,,,,,,152.57297049998306,152.57831620803336,152.76931075000903,152.76931075000903,152.76931075000903,154.47771816601744,154.47771816601744,154.46347887499724,,,,,,,,,,,,,,,,,,,,,,,,,,,,,,,,,,,,,,,,,,,,,,,,,,,,,,,,,386625,001,2024-12-08_14h02.43.627,Test,2024.2.4,None,2024-12-08 14h02.53.992954 +0100,
8,150,30,67,None,32,32,0,,,,,,,,0,32,32,7,,,,,,,,,,,,,154.47771816601744,,,,,,,,,,,,,,,,,,,,,,,154.4724575409782,154.47771816601744,154.6695961250225,154.6695961250225,154.6695961250225,156.36527175002266,156.36527175002266,156.35266550001688,,,,,,,,,,,,,,,,,,,,,,,,,,,,,,,,,,,,,,,,,,,,,,,,,,,,,,,,,386625,001,2024-12-08_14h02.43.627,Test,2024.2.4,None,2024-12-08 14h02.53.992954 +0100,
18,150,90,32,None,33,33,0,,,,,,,,0,33,33,17,,,,,,,,,,,,,156.36527175002266,,,,,,,,,,,,,,,,,,,,,,,156.36118120799074,156.37917679100065,156.56943691603374,156.56943691603374,156.56943691603374,158.26551412499975,158.26551412499975,158.25268074998166,,,,,,,,,,,,,,,,,,,,,,,,,,,,,,,,,,,,,,,,,,,,,,,,,,,,,,,,,386625,001,2024-12-08_14h02.43.627,Test,2024.2.4,None,2024-12-08 14h02.53.992954 +0100,
1,150,0,66,None,34,34,0,,,,,,,,0,34,34,0,,,,,,,,,,,,,158.26551412499975,,,,,,,,,,,,,,,,,,,,,,,158.26098800002364,158.279256290989,158.46930225001415,158.46930225001415,158.46930225001415,160.16256541601615,160.16256541601615,160.15251658298075,,,,,,,,,,,,,,,,,,,,,,,,,,,,,,,,,,,,,,,,,,,,,,,,,,,,,,,,,386625,001,2024-12-08_14h02.43.627,Test,2024.2.4,None,2024-12-08 14h02.53.992954 +0100,
,,,,,,,,,,,,,,,,,,,,,,,,,,,,,,,,,,,,,,,,,,,,,,,,,,,,,,,,,,,,,,160.15270933299325,160.17101979098516,160.17101979098516,175.0541782079963,space,14.877187457983382,None,,,,,,,,,,,,,,,,,,,,,,,,,,,,,,,,,,,,,,,,,,,,,,,,,,386625,001,2024-12-08_14h02.43.627,Test,2024.2.4,None,2024-12-08 14h02.53.992954 +0100,
43,150,30,11,None,0,0,0,True,right,1.1263018749887124,None,,,,,,,,0,0,0,0,,,,,,,,,175.08483345800778,,,,,,,,,,,,,,,,,,,,,,,,,,,,,,,,,,,,,,175.07620508299442,175.08483345800778,176.07916429103352,177.05331254098564,177.05331254098564,177.05331254098564,178.1831736250315,right,1.1263018749887124,None,,,,,,,,,,,,,,,,,,,,,,,,,,,,,,,,,,,,,,,,386625,001,2024-12-08_14h02.43.627,Test,2024.2.4,None,2024-12-08 14h02.53.992954 +0100,
32,150,180,58,None,1,1,0,False,left,0.7672272920026444,None,,,,,,,,0,1,1,1,,,,,,,,,178.28273137501674,,,,,,,,,,,,,,,,,,,,,,,,,,,,,,,,,,,,,,178.19181316602044,178.28273137501674,179.27919633302372,180.17927766602952,180.17927766602952,180.17927766602952,180.9577241250081,left,0.7672272920026444,None,,,,,,,,,,,,,,,,,,,,,,,,,,,,,,,,,,,,,,,,386625,001,2024-12-08_14h02.43.627,Test,2024.2.4,None,2024-12-08 14h02.53.992954 +0100,
65,150,150,31,None,2,2,0,True,right,0.663782124989666,None,,,,,,,,0,2,2,2,,,,,,,,,180.97066683298908,,,,,,,,,,,,,,,,,,,,,,,,,,,,,,,,,,,,,,180.9657811659854,180.97066683298908,181.9677002080134,182.95401220797794,182.95401220797794,182.95401220797794,183.62034454097738,right,0.663782124989666,None,,,,,,,,,,,,,,,,,,,,,,,,,,,,,,,,,,,,,,,,386625,001,2024-12-08_14h02.43.627,Test,2024.2.4,None,2024-12-08 14h02.53.992954 +0100,
42,150,30,23,None,3,3,0,True,right,0.9098826250410639,None,,,,,,,,0,3,3,3,,,,,,,,,183.6349983330001,,,,,,,,,,,,,,,,,,,,,,,,,,,,,,,,,,,,,,183.62863441603258,183.6349983330001,184.62910925003234,185.6195034160046,185.6195034160046,185.6195034160046,186.5318212499842,right,0.9098826250410639,None,,,,,,,,,,,,,,,,,,,,,,,,,,,,,,,,,,,,,,,,386625,001,2024-12-08_14h02.43.627,Test,2024.2.4,None,2024-12-08 14h02.53.992954 +0100,
55,150,90,40,None,4,4,0,True,right,0.6895158750121482,None,,,,,,,,0,4,4,4,,,,,,,,,186.54748599999584,,,,,,,,,,,,,,,,,,,,,,,,,,,,,,,,,,,,,,186.54083758301567,186.54748599999584,187.54571037500864,188.529282915988,188.529282915988,188.529282915988,189.22113216598518,right,0.6895158750121482,None,,,,,,,,,,,,,,,,,,,,,,,,,,,,,,,,,,,,,,,,386625,001,2024-12-08_14h02.43.627,Test,2024.2.4,None,2024-12-08 14h02.53.992954 +0100,
39,150,0,49,None,5,5,0,True,left,0.7928794999606907,None,,,,,,,,0,5,5,5,,,,,,,,,189.23675216600532,,,,,,,,,,,,,,,,,,,,,,,,,,,,,,,,,,,,,,189.2306039580144,189.23675216600532,190.23438608302968,191.21952816599514,191.21952816599514,191.21952816599514,192.0146734159789,left,0.7928794999606907,None,,,,,,,,,,,,,,,,,,,,,,,,,,,,,,,,,,,,,,,,386625,001,2024-12-08_14h02.43.627,Test,2024.2.4,None,2024-12-08 14h02.53.992954 +0100,
62,150,150,12,None,6,6,0,True,right,1.4804630000144243,None,,,,,,,,0,6,6,6,,,,,,,,,192.03026120801223,,,,,,,,,,,,,,,,,,,,,,,,,,,,,,,,,,,,,,192.0241270000115,192.03026120801223,193.02908379101427,194.0126900409814,194.0126900409814,194.0126900409814,195.4978485829779,right,1.4804630000144243,None,,,,,,,,,,,,,,,,,,,,,,,,,,,,,,,,,,,,,,,,386625,001,2024-12-08_14h02.43.627,Test,2024.2.4,None,2024-12-08 14h02.53.992954 +0100,
23,150,120,15,None,7,7,0,False,left,0.7742998329922557,None,,,,,,,,0,7,7,7,,,,,,,,,195.51341983303428,,,,,,,,,,,,,,,,,,,,,,,,,,,,,,,,,,,,,,195.50700291601242,195.51341983303428,196.5012020409922,197.49597012501908,197.49597012501908,197.49597012501908,198.28122716600774,left,0.7742998329922557,None,,,,,,,,,,,,,,,,,,,,,,,,,,,,,,,,,,,,,,,,386625,001,2024-12-08_14h02.43.627,Test,2024.2.4,None,2024-12-08 14h02.53.992954 +0100,
48,150,60,9,None,8,8,0,True,right,0.8181404169881716,None,,,,,,,,0,8,8,8,,,,,,,,,198.2964191660285,,,,,,,,,,,,,,,,,,,,,,,,,,,,,,,,,,,,,,198.2904177500168,198.2964191660285,199.28440720803337,200.279539457988,200.279539457988,200.279539457988,201.10412833298324,right,0.8181404169881716,None,,,,,,,,,,,,,,,,,,,,,,,,,,,,,,,,,,,,,,,,386625,001,2024-12-08_14h02.43.627,Test,2024.2.4,None,2024-12-08 14h02.53.992954 +0100,
53,150,90,26,None,9,9,0,True,left,0.8000405830098316,None,,,,,,,,0,9,9,9,,,,,,,,,201.11919054097962,,,,,,,,,,,,,,,,,,,,,,,,,,,,,,,,,,,,,,201.1131615830236,201.11919054097962,202.11824916600017,203.1029427080066,203.1029427080066,203.1029427080066,203.9131517080241,left,0.8000405830098316,None,,,,,,,,,,,,,,,,,,,,,,,,,,,,,,,,,,,,,,,,386625,001,2024-12-08_14h02.43.627,Test,2024.2.4,None,2024-12-08 14h02.53.992954 +0100,
13,150,60,10,None,10,10,0,False,right,0.8073774590156972,None,,,,,,,,0,10,10,10,,,,,,,,,203.9256397500285,,,,,,,,,,,,,,,,,,,,,,,,,,,,,,,,,,,,,,203.92099920799956,203.9256397500285,204.9178115830291,205.9031445410219,205.9031445410219,205.9031445410219,206.714911499992,right,0.8073774590156972,None,,,,,,,,,,,,,,,,,,,,,,,,,,,,,,,,,,,,,,,,386625,001,2024-12-08_14h02.43.627,Test,2024.2.4,None,2024-12-08 14h02.53.992954 +0100,
52,150,90,34,None,11,11,0,True,right,1.0075327079975978,None,,,,,,,,0,11,11,11,,,,,,,,,206.73893774999306,,,,,,,,,,,,,,,,,,,,,,,,,,,,,,,,,,,,,,206.73299741599476,206.73893774999306,207.7344495410216,208.71133333299076,208.71133333299076,208.71133333299076,209.72113108303165,right,1.0075327079975978,None,,,,,,,,,,,,,,,,,,,,,,,,,,,,,,,,,,,,,,,,386625,001,2024-12-08_14h02.43.627,Test,2024.2.4,None,2024-12-08 14h02.53.992954 +0100,
35,150,180,4,None,12,12,0,False,right,0.9289915839908645,None,,,,,,,,0,12,12,12,,,,,,,,,209.73673491599038,,,,,,,,,,,,,,,,,,,,,,,,,,,,,,,,,,,,,,209.73071241599973,209.73673491599038,210.73361704102717,211.7202814160264,211.7202814160264,211.7202814160264,212.65443387499545,right,0.9289915839908645,None,,,,,,,,,,,,,,,,,,,,,,,,,,,,,,,,,,,,,,,,386625,001,2024-12-08_14h02.43.627,Test,2024.2.4,None,2024-12-08 14h02.53.992954 +0100,
40,150,0,62,None,13,13,0,True,left,0.742892749956809,None,,,,,,,,0,13,13,13,,,,,,,,,212.66910920798546,,,,,,,,,,,,,,,,,,,,,,,,,,,,,,,,,,,,,,212.66322337498423,212.66910920798546,213.66253154102014,214.65401137497975,214.65401137497975,214.65401137497975,215.40748649998568,left,0.742892749956809,None,,,,,,,,,,,,,,,,,,,,,,,,,,,,,,,,,,,,,,,,386625,001,2024-12-08_14h02.43.627,Test,2024.2.4,None,2024-12-08 14h02.53.992954 +0100,
50,150,60,68,None,14,14,0,True,right,1.3139227920328267,None,,,,,,,,0,14,14,14,,,,,,,,,215.41953091602772,,,,,,,,,,,,,,,,,,,,,,,,,,,,,,,,,,,,,,215.414867583022,215.41953091602772,216.41779591602972,217.40279537503375,217.40279537503375,217.40279537503375,218.7205096249818,right,1.3139227920328267,None,,,,,,,,,,,,,,,,,,,,,,,,,,,,,,,,,,,,,,,,386625,001,2024-12-08_14h02.43.627,Test,2024.2.4,None,2024-12-08 14h02.53.992954 +0100,
29,150,150,17,None,15,15,0,False,right,0.8945940000121482,None,,,,,,,,0,15,15,15,,,,,,,,,218.7352062080172,,,,,,,,,,,,,,,,,,,,,,,,,,,,,,,,,,,,,,218.72855800000252,218.7352062080172,219.7291407500161,220.71960187499644,220.71960187499644,220.71960187499644,221.62139541603392,right,0.8945940000121482,None,,,,,,,,,,,,,,,,,,,,,,,,,,,,,,,,,,,,,,,,386625,001,2024-12-08_14h02.43.627,Test,2024.2.4,None,2024-12-08 14h02.53.992954 +0100,
16,150,90,53,None,16,16,0,False,left,0.6168254580115899,None,,,,,,,,0,16,16,16,,,,,,,,,221.63589066598797,,,,,,,,,,,,,,,,,,,,,,,,,,,,,,,,,,,,,,221.63010158302495,221.63589066598797,222.62912212498486,223.6196323329932,223.6196323329932,223.6196323329932,224.24805679102428,left,0.6168254580115899,None,,,,,,,,,,,,,,,,,,,,,,,,,,,,,,,,,,,,,,,,386625,001,2024-12-08_14h02.43.627,Test,2024.2.4,None,2024-12-08 14h02.53.992954 +0100,
5,150,0,60,None,17,17,0,False,left,1.5005001249955967,None,,,,,,,,0,17,17,17,,,,,,,,,224.26345475000562,,,,,,,,,,,,,,,,,,,,,,,,,,,,,,,,,,,,,,224.25694179098355,224.26345475000562,225.26254779100418,226.24597462499514,226.24597462499514,226.24597462499514,227.74929104099283,left,1.5005001249955967,None,,,,,,,,,,,,,,,,,,,,,,,,,,,,,,,,,,,,,,,,386625,001,2024-12-08_14h02.43.627,Test,2024.2.4,None,2024-12-08 14h02.53.992954 +0100,
11,150,60,30,None,18,18,0,False,right,0.9903856660239398,None,,,,,,,,0,18,18,18,,,,,,,,,227.76328075001948,,,,,,,,,,,,,,,,,,,,,,,,,,,,,,,,,,,,,,227.7574050410185,227.76328075001948,228.7510229999898,229.74601474998053,229.74601474998053,229.74601474998053,230.74814129102742,right,0.9903856660239398,None,,,,,,,,,,,,,,,,,,,,,,,,,,,,,,,,,,,,,,,,386625,001,2024-12-08_14h02.43.627,Test,2024.2.4,None,2024-12-08 14h02.53.992954 +0100,
7,150,30,19,None,19,19,0,False,right,1.0850622919970192,None,,,,,,,,0,19,19,19,,,,,,,,,230.76335129101062,,,,,,,,,,,,,,,,,,,,,,,,,,,,,,,,,,,,,,230.75652412499767,230.76335129101062,231.7503963750205,232.74616625002818,232.74616625002818,232.74616625002818,233.8376933329855,right,1.0850622919970192,None,,,,,,,,,,,,,,,,,,,,,,,,,,,,,,,,,,,,,,,,386625,001,2024-12-08_14h02.43.627,Test,2024.2.4,None,2024-12-08 14h02.53.992954 +0100,
28,150,150,42,None,20,20,0,False,right,1.33093633397948,None,,,,,,,,0,20,20,20,,,,,,,,,233.85213195800316,,,,,,,,,,,,,,,,,,,,,,,,,,,,,,,,,,,,,,233.84624587500002,233.85213195800316,234.84584758302663,235.83689174999017,235.83689174999017,235.83689174999017,237.17111070803367,right,1.33093633397948,None,,,,,,,,,,,,,,,,,,,,,,,,,,,,,,,,,,,,,,,,386625,001,2024-12-08_14h02.43.627,Test,2024.2.4,None,2024-12-08 14h02.53.992954 +0100,
2,150,0,56,None,21,21,0,False,left,1.0830485420301557,None,,,,,,,,0,21,21,21,,,,,,,,,237.18549945799168,,,,,,,,,,,,,,,,,,,,,,,,,,,,,,,,,,,,,,237.17949895799393,237.18549945799168,238.17932720802492,239.1705874580075,239.1705874580075,239.1705874580075,240.26474504102953,left,1.0830485420301557,None,,,,,,,,,,,,,,,,,,,,,,,,,,,,,,,,,,,,,,,,386625,001,2024-12-08_14h02.43.627,Test,2024.2.4,None,2024-12-08 14h02.53.992954 +0100,
41,150,30,44,None,22,22,0,True,right,1.1443439579452388,None,,,,,,,,0,22,22,22,,,,,,,,,240.2806149580283,,,,,,,,,,,,,,,,,,,,,,,,,,,,,,,,,,,,,,240.2740537080099,240.2806149580283,241.27930470800493,242.26266016601585,242.26266016601585,242.26266016601585,243.41449891601223,right,1.1443439579452388,None,,,,,,,,,,,,,,,,,,,,,,,,,,,,,,,,,,,,,,,,386625,001,2024-12-08_14h02.43.627,Test,2024.2.4,None,2024-12-08 14h02.53.992954 +0100,
6,150,30,59,None,23,23,0,False,left,1.4506474579684436,None,,,,,,,,0,23,23,23,,,,,,,,,243.4291209160001,,,,,,,,,,,,,,,,,,,,,,,,,,,,,,,,,,,,,,243.4231343329884,243.4291209160001,244.4178550830111,245.41253062500618,245.41253062500618,245.41253062500618,246.87362041597953,left,1.4506474579684436,None,,,,,,,,,,,,,,,,,,,,,,,,,,,,,,,,,,,,,,,,386625,001,2024-12-08_14h02.43.627,Test,2024.2.4,None,2024-12-08 14h02.53.992954 +0100,
51,150,90,2,None,24,24,0,True,right,1.5891240420169197,None,,,,,,,,0,24,24,24,,,,,,,,,246.8863422080176,,,,,,,,,,,,,,,,,,,,,,,,,,,,,,,,,,,,,,246.8812922500074,246.8863422080176,247.88439483300317,248.86988691601437,248.86988691601437,248.86988691601437,250.46482079097768,right,1.5891240420169197,None,,,,,,,,,,,,,,,,,,,,,,,,,,,,,,,,,,,,,,,,386625,001,2024-12-08_14h02.43.627,Test,2024.2.4,None,2024-12-08 14h02.53.992954 +0100,
34,150,180,57,None,25,25,0,False,right,0.9010728750145063,None,,,,,,,,0,25,25,25,,,,,,,,,250.47944708302384,,,,,,,,,,,,,,,,,,,,,,,,,,,,,,,,,,,,,,250.47305104101542,250.47944708302384,251.46793124999385,252.46225041599246,252.46225041599246,252.46225041599246,253.374222790997,right,0.9010728750145063,None,,,,,,,,,,,,,,,,,,,,,,,,,,,,,,,,,,,,,,,,386625,001,2024-12-08_14h02.43.627,Test,2024.2.4,None,2024-12-08 14h02.53.992954 +0100,
15,150,60,5,None,26,26,0,False,left,0.786140207957942,None,,,,,,,,0,26,26,26,,,,,,,,,253.38670779101085,,,,,,,,,,,,,,,,,,,,,,,,,,,,,,,,,,,,,,253.38189541600877,253.38670779101085,254.3840251659858,255.3695195830078,255.3695195830078,255.3695195830078,256.16474704100983,left,0.786140207957942,None,,,,,,,,,,,,,,,,,,,,,,,,,,,,,,,,,,,,,,,,386625,001,2024-12-08_14h02.43.627,Test,2024.2.4,None,2024-12-08 14h02.53.992954 +0100,
64,150,150,8,None,27,27,0,True,right,1.0500561249791645,None,,,,,,,,0,27,27,27,,,,,,,,,256.1799242499983,,,,,,,,,,,,,,,,,,,,,,,,,,,,,,,,,,,,,,256.17355662502814,256.1799242499983,257.167729415989,258.1626489579794,258.1626489579794,258.1626489579794,259.2153881660197,right,1.0500561249791645,None,,,,,,,,,,,,,,,,,,,,,,,,,,,,,,,,,,,,,,,,386625,001,2024-12-08_14h02.43.627,Test,2024.2.4,None,2024-12-08 14h02.53.992954 +0100,
46,150,60,3,None,28,28,0,True,left,0.757312458998058,None,,,,,,,,0,28,28,28,,,,,,,,,259.23015058302553,,,,,,,,,,,,,,,,,,,,,,,,,,,,,,,,,,,,,,259.22429829102475,259.23015058302553,260.2292155830073,261.21256329101743,261.21256329101743,261.21256329101743,261.98120799998287,left,0.757312458998058,None,,,,,,,,,,,,,,,,,,,,,,,,,,,,,,,,,,,,,,,,386625,001,2024-12-08_14h02.43.627,Test,2024.2.4,None,2024-12-08 14h02.53.992954 +0100,
33,150,180,43,None,29,29,0,False,left,1.124865417019464,None,,,,,,,,0,29,29,29,,,,,,,,,261.9962624160107,,,,,,,,,,,,,,,,,,,,,,,,,,,,,,,,,,,,,,261.98986208299175,261.9962624160107,262.98421424999833,263.97944462503074,263.97944462503074,263.97944462503074,265.1149889160297,left,1.124865417019464,None,,,,,,,,,,,,,,,,,,,,,,,,,,,,,,,,,,,,,,,,386625,001,2024-12-08_14h02.43.627,Test,2024.2.4,None,2024-12-08 14h02.53.992954 +0100,
70,150,180,70,None,30,30,0,True,left,1.641549666004721,None,,,,,,,,0,30,30,30,,,,,,,,,265.1301933330251,,,,,,,,,,,,,,,,,,,,,,,,,,,,,,,,,,,,,,265.1241462500184,265.1301933330251,266.1291045830003,267.1126633749809,267.1126633749809,267.1126633749809,268.76461950002704,left,1.641549666004721,None,,,,,,,,,,,,,,,,,,,,,,,,,,,,,,,,,,,,,,,,386625,001,2024-12-08_14h02.43.627,Test,2024.2.4,None,2024-12-08 14h02.53.992954 +0100,
69,150,180,63,None,31,31,0,True,left,0.8832608750090003,None,,,,,,,,0,31,31,31,,,,,,,,,268.78039329103194,,,,,,,,,,,,,,,,,,,,,,,,,,,,,,,,,,,,,,268.77362054103287,268.78039329103194,269.7790809579892,270.7628863750142,270.7628863750142,270.7628863750142,271.6491579579888,left,0.8832608750090003,None,,,,,,,,,,,,,,,,,,,,,,,,,,,,,,,,,,,,,,,,386625,001,2024-12-08_14h02.43.627,Test,2024.2.4,None,2024-12-08 14h02.53.992954 +0100,
38,150,0,64,None,32,32,0,True,left,1.2516088749980554,None,,,,,,,,0,32,32,32,,,,,,,,,271.66445949999616,,,,,,,,,,,,,,,,,,,,,,,,,,,,,,,,,,,,,,271.6580858749803,271.66445949999616,272.6624506249791,273.6462014580029,273.6462014580029,273.6462014580029,274.90429675002815,left,1.2516088749980554,None,,,,,,,,,,,,,,,,,,,,,,,,,,,,,,,,,,,,,,,,386625,001,2024-12-08_14h02.43.627,Test,2024.2.4,None,2024-12-08 14h02.53.992954 +0100,
24,150,120,22,None,33,33,0,False,right,0.984428083000239,None,,,,,,,,0,33,33,33,,,,,,,,,274.9207502910285,,,,,,,,,,,,,,,,,,,,,,,,,,,,,,,,,,,,,,274.91320341598475,274.9207502910285,275.917110749986,276.90291658299975,276.90291658299975,276.90291658299975,277.8978835410089,right,0.984428083000239,None,,,,,,,,,,,,,,,,,,,,,,,,,,,,,,,,,,,,,,,,386625,001,2024-12-08_14h02.43.627,Test,2024.2.4,None,2024-12-08 14h02.53.992954 +0100,
59,150,120,36,None,34,34,0,True,left,0.7711065420298837,None,,,,,,,,0,34,34,34,,,,,,,,,277.91396879102103,,,,,,,,,,,,,,,,,,,,,,,,,,,,,,,,,,,,,,277.90727995801717,277.91396879102103,278.9124629580183,279.89605645800475,279.89605645800475,279.89605645800475,280.67100358300377,left,0.7711065420298837,None,,,,,,,,,,,,,,,,,,,,,,,,,,,,,,,,,,,,,,,,386625,001,2024-12-08_14h02.43.627,Test,2024.2.4,None,2024-12-08 14h02.53.992954 +0100,
63,150,150,54,None,35,35,0,True,left,1.320651416957844,None,,,,,,,,0,35,35,35,,,,,,,,,280.6856194160064,,,,,,,,,,,,,,,,,,,,,,,,,,,,,,,,,,,,,,280.679613040993,280.6856194160064,281.6790986250271,282.6702791249845,282.6702791249845,282.6702791249845,283.998219540983,left,1.320651416957844,None,,,,,,,,,,,,,,,,,,,,,,,,,,,,,,,,,,,,,,,,386625,001,2024-12-08_14h02.43.627,Test,2024.2.4,None,2024-12-08 14h02.53.992954 +0100,
68,150,180,69,None,36,36,0,True,right,1.0578115000389516,None,,,,,,,,0,36,36,36,,,,,,,,,284.01412325003184,,,,,,,,,,,,,,,,,,,,,,,,,,,,,,,,,,,,,,284.00751520798076,284.01412325003184,285.0125076660188,285.9961397909792,285.9961397909792,285.9961397909792,287.0647201249958,right,1.0578115000389516,None,,,,,,,,,,,,,,,,,,,,,,,,,,,,,,,,,,,,,,,,386625,001,2024-12-08_14h02.43.627,Test,2024.2.4,None,2024-12-08 14h02.53.992954 +0100,
1,150,0,66,None,37,37,0,False,right,1.1883375409524888,None,,,,,,,,0,37,37,37,,,,,,,,,287.0802012499771,,,,,,,,,,,,,,,,,,,,,,,,,,,,,,,,,,,,,,287.07384791597724,287.0802012499771,288.0793066659826,289.06267250003293,289.06267250003293,289.06267250003293,290.25429424998583,right,1.1883375409524888,None,,,,,,,,,,,,,,,,,,,,,,,,,,,,,,,,,,,,,,,,386625,001,2024-12-08_14h02.43.627,Test,2024.2.4,None,2024-12-08 14h02.53.992954 +0100,
58,150,120,51,None,38,38,0,True,left,0.85945529199671,None,,,,,,,,0,38,38,38,,,,,,,,,290.26871874998324,,,,,,,,,,,,,,,,,,,,,,,,,,,,,,,,,,,,,,290.262628166005,290.26871874998324,291.26252858299995,292.2535200830316,292.2535200830316,292.2535200830316,293.1152406249894,left,0.85945529199671,None,,,,,,,,,,,,,,,,,,,,,,,,,,,,,,,,,,,,,,,,386625,001,2024-12-08_14h02.43.627,Test,2024.2.4,None,2024-12-08 14h02.53.992954 +0100,
27,150,150,14,None,39,39,0,False,right,0.6842450000112876,None,,,,,,,,0,39,39,39,,,,,,,,,293.13015679101227,,,,,,,,,,,,,,,,,,,,,,,,,,,,,,,,,,,,,,293.1236163750291,293.13015679101227,294.11719783302397,295.1126820410136,295.1126820410136,295.1126820410136,295.8040174160269,right,0.6842450000112876,None,,,,,,,,,,,,,,,,,,,,,,,,,,,,,,,,,,,,,,,,386625,001,2024-12-08_14h02.43.627,Test,2024.2.4,None,2024-12-08 14h02.53.992954 +0100,
57,150,120,47,None,40,40,0,True,left,1.1275748750194907,None,,,,,,,,0,40,40,40,,,,,,,,,295.81897333299275,,,,,,,,,,,,,,,,,,,,,,,,,,,,,,,,,,,,,,295.812863582978,295.81897333299275,296.81262058299035,297.8029433750198,297.8029433750198,297.8029433750198,298.9374289580155,left,1.1275748750194907,None,,,,,,,,,,,,,,,,,,,,,,,,,,,,,,,,,,,,,,,,386625,001,2024-12-08_14h02.43.627,Test,2024.2.4,None,2024-12-08 14h02.53.992954 +0100,
45,150,30,6,None,41,41,0,True,left,2.1008888329961337,None,,,,,,,,0,41,41,41,,,,,,,,,298.952260458027,,,,,,,,,,,,,,,,,,,,,,,,,,,,,,,,,,,,,,298.9461427080096,298.952260458027,299.94586545799393,300.93661891599186,300.93661891599186,300.93661891599186,303.0479362080223,left,2.1008888329961337,None,,,,,,,,,,,,,,,,,,,,,,,,,,,,,,,,,,,,,,,,386625,001,2024-12-08_14h02.43.627,Test,2024.2.4,None,2024-12-08 14h02.53.992954 +0100,
12,150,60,35,None,42,42,0,False,right,1.0837742920266464,None,,,,,,,,0,42,42,42,,,,,,,,,303.0634474160033,,,,,,,,,,,,,,,,,,,,,,,,,,,,,,,,,,,,,,303.0569146249909,303.0634474160033,304.0509058330208,305.0459666660172,305.0459666660172,305.0459666660172,306.13259495800594,right,1.0837742920266464,None,,,,,,,,,,,,,,,,,,,,,,,,,,,,,,,,,,,,,,,,386625,001,2024-12-08_14h02.43.627,Test,2024.2.4,None,2024-12-08 14h02.53.992954 +0100,
61,150,150,20,None,43,43,0,True,right,2.45488433400169,None,,,,,,,,0,43,43,43,,,,,,,,,306.14750558300875,,,,,,,,,,,,,,,,,,,,,,,,,,,,,,,,,,,,,,306.14153933298076,306.14750558300875,307.1459174579941,308.1292818330112,308.1292818330112,308.1292818330112,310.5868106249836,right,2.45488433400169,None,,,,,,,,,,,,,,,,,,,,,,,,,,,,,,,,,,,,,,,,386625,001,2024-12-08_14h02.43.627,Test,2024.2.4,None,2024-12-08 14h02.53.992954 +0100,
21,150,120,7,None,44,44,0,False,left,1.2099922499619424,None,,,,,,,,0,44,44,44,,,,,,,,,310.60078845801763,,,,,,,,,,,,,,,,,,,,,,,,,,,,,,,,,,,,,,310.59494483302115,310.60078845801763,311.59577820799313,312.58653324999614,312.58653324999614,312.58653324999614,313.80682533298386,left,1.2099922499619424,None,,,,,,,,,,,,,,,,,,,,,,,,,,,,,,,,,,,,,,,,386625,001,2024-12-08_14h02.43.627,Test,2024.2.4,None,2024-12-08 14h02.53.992954 +0100,
31,150,180,37,None,45,45,0,False,left,1.5660830410197377,None,,,,,,,,0,45,45,45,,,,,,,,,313.8190354160033,,,,,,,,,,,,,,,,,,,,,,,,,,,,,,,,,,,,,,313.8141586660058,313.8190354160033,314.8125374999945,315.8036754159839,315.8036754159839,315.8036754159839,317.38028683298035,left,1.5660830410197377,None,,,,,,,,,,,,,,,,,,,,,,,,,,,,,,,,,,,,,,,,386625,001,2024-12-08_14h02.43.627,Test,2024.2.4,None,2024-12-08 14h02.53.992954 +0100,
17,150,90,38,None,46,46,0,False,right,0.9580895830295049,None,,,,,,,,0,46,46,46,,,,,,,,,317.39170183299575,,,,,,,,,,,,,,,,,,,,,,,,,,,,,,,,,,,,,,317.3870646660216,317.39170183299575,318.38395483302884,319.3794310829835,319.3794310829835,319.3794310829835,320.34794495801907,right,0.9580895830295049,None,,,,,,,,,,,,,,,,,,,,,,,,,,,,,,,,,,,,,,,,386625,001,2024-12-08_14h02.43.627,Test,2024.2.4,None,2024-12-08 14h02.53.992954 +0100,
14,150,60,50,None,47,47,0,False,right,2.4376738329883665,None,,,,,,,,0,47,47,47,,,,,,,,,320.36399266601074,,,,,,,,,,,,,,,,,,,,,,,,,,,,,,,,,,,,,,320.3569493329851,320.36399266601074,321.3624785830034,322.34608733298955,322.34608733298955,322.34608733298955,324.7880245409906,right,2.4376738329883665,None,,,,,,,,,,,,,,,,,,,,,,,,,,,,,,,,,,,,,,,,386625,001,2024-12-08_14h02.43.627,Test,2024.2.4,None,2024-12-08 14h02.53.992954 +0100,
26,150,150,48,None,48,48,0,False,left,0.8537038749782369,None,,,,,,,,0,48,48,48,,,,,,,,,324.8032717499882,,,,,,,,,,,,,,,,,,,,,,,,,,,,,,,,,,,,,,324.79718279099325,324.8032717499882,325.8012132080039,326.7869703330216,326.7869703330216,326.7869703330216,327.648040375032,left,0.8537038749782369,None,,,,,,,,,,,,,,,,,,,,,,,,,,,,,,,,,,,,,,,,386625,001,2024-12-08_14h02.43.627,Test,2024.2.4,None,2024-12-08 14h02.53.992954 +0100,
30,150,150,18,None,49,49,0,False,left,0.7777312500402331,None,,,,,,,,0,49,49,49,,,,,,,,,327.66314854100347,,,,,,,,,,,,,,,,,,,,,,,,,,,,,,,,,,,,,,327.65668662497774,327.66314854100347,328.65134795801714,329.64602645800915,329.64602645800915,329.64602645800915,330.43133720802143,left,0.7777312500402331,None,,,,,,,,,,,,,,,,,,,,,,,,,,,,,,,,,,,,,,,,386625,001,2024-12-08_14h02.43.627,Test,2024.2.4,None,2024-12-08 14h02.53.992954 +0100,
8,150,30,67,None,50,50,0,False,right,0.6947653329698369,None,,,,,,,,0,50,50,50,,,,,,,,,330.44679541600635,,,,,,,,,,,,,,,,,,,,,,,,,,,,,,,,,,,,,,330.4400410410017,330.44679541600635,331.43457237503026,332.42934783297824,332.42934783297824,332.42934783297824,333.13141266599996,right,0.6947653329698369,None,,,,,,,,,,,,,,,,,,,,,,,,,,,,,,,,,,,,,,,,386625,001,2024-12-08_14h02.43.627,Test,2024.2.4,None,2024-12-08 14h02.53.992954 +0100,
3,150,0,39,None,51,51,0,False,left,0.6839076250325888,None,,,,,,,,0,51,51,51,,,,,,,,,333.14633433299605,,,,,,,,,,,,,,,,,,,,,,,,,,,,,,,,,,,,,,333.14029258303344,333.14633433299605,334.1346517910133,335.1292538330308,335.1292538330308,335.1292538330308,335.8235150410328,left,0.6839076250325888,None,,,,,,,,,,,,,,,,,,,,,,,,,,,,,,,,,,,,,,,,386625,001,2024-12-08_14h02.43.627,Test,2024.2.4,None,2024-12-08 14h02.53.992954 +0100,
54,150,90,29,None,52,52,0,True,left,1.7120807499741204,None,,,,,,,,0,52,52,52,,,,,,,,,335.83600295800716,,,,,,,,,,,,,,,,,,,,,,,,,,,,,,,,,,,,,,335.8309734159848,335.83600295800716,336.8344402909861,337.81924008298665,337.81924008298665,337.81924008298665,339.53809162502876,left,1.7120807499741204,None,,,,,,,,,,,,,,,,,,,,,,,,,,,,,,,,,,,,,,,,386625,001,2024-12-08_14h02.43.627,Test,2024.2.4,None,2024-12-08 14h02.53.992954 +0100,
10,150,30,52,None,53,53,0,False,left,2.0769265000126325,None,,,,,,,,0,53,53,53,,,,,,,,,339.55334058299195,,,,,,,,,,,,,,,,,,,,,,,,,,,,,,,,,,,,,,339.5468807499856,339.55334058299195,340.551411708002,341.5366054159822,341.5366054159822,341.5366054159822,343.6204194999882,left,2.0769265000126325,None,,,,,,,,,,,,,,,,,,,,,,,,,,,,,,,,,,,,,,,,386625,001,2024-12-08_14h02.43.627,Test,2024.2.4,None,2024-12-08 14h02.53.992954 +0100,
22,150,120,27,None,54,54,0,False,left,1.0991782080382109,None,,,,,,,,0,54,54,54,,,,,,,,,343.63525283301715,,,,,,,,,,,,,,,,,,,,,,,,,,,,,,,,,,,,,,343.6291679160204,343.63525283301715,344.629311333003,345.62000970798545,345.62000970798545,345.62000970798545,346.7295449579833,left,1.0991782080382109,None,,,,,,,,,,,,,,,,,,,,,,,,,,,,,,,,,,,,,,,,386625,001,2024-12-08_14h02.43.627,Test,2024.2.4,None,2024-12-08 14h02.53.992954 +0100,
66,150,180,13,None,55,55,0,True,left,0.7357812919653952,None,,,,,,,,0,55,55,55,,,,,,,,,346.74138037499506,,,,,,,,,,,,,,,,,,,,,,,,,,,,,,,,,,,,,,346.73673262499506,346.74138037499506,347.7340953749954,348.72010924998904,348.72010924998904,348.72010924998904,349.4648892080295,left,0.7357812919653952,None,,,,,,,,,,,,,,,,,,,,,,,,,,,,,,,,,,,,,,,,386625,001,2024-12-08_14h02.43.627,Test,2024.2.4,None,2024-12-08 14h02.53.992954 +0100,
20,150,90,25,None,56,56,0,False,left,0.9735740420292132,None,,,,,,,,0,56,56,56,,,,,,,,,349.47978858300485,,,,,,,,,,,,,,,,,,,,,,,,,,,,,,,,,,,,,,349.47296158300014,349.47978858300485,350.4674019580125,351.4627477910253,351.4627477910253,351.4627477910253,352.4463534160168,left,0.9735740420292132,None,,,,,,,,,,,,,,,,,,,,,,,,,,,,,,,,,,,,,,,,386625,001,2024-12-08_14h02.43.627,Test,2024.2.4,None,2024-12-08 14h02.53.992954 +0100,
37,150,0,24,None,57,57,0,True,left,0.8192043750314042,None,,,,,,,,0,57,57,57,,,,,,,,,352.45829283300554,,,,,,,,,,,,,,,,,,,,,,,,,,,,,,,,,,,,,,352.4537878750125,352.45829283300554,353.45107870799256,354.43645633303095,354.43645633303095,354.43645633303095,355.26463637501,left,0.8192043750314042,None,,,,,,,,,,,,,,,,,,,,,,,,,,,,,,,,,,,,,,,,386625,001,2024-12-08_14h02.43.627,Test,2024.2.4,None,2024-12-08 14h02.53.992954 +0100,
36,150,0,41,None,58,58,0,True,left,1.6530779160093516,None,,,,,,,,0,58,58,58,,,,,,,,,355.2797529579839,,,,,,,,,,,,,,,,,,,,,,,,,,,,,,,,,,,,,,355.2730660830275,355.2797529579839,356.2680622910266,357.26270224998007,357.26270224998007,357.26270224998007,358.92061395803466,left,1.6530779160093516,None,,,,,,,,,,,,,,,,,,,,,,,,,,,,,,,,,,,,,,,,386625,001,2024-12-08_14h02.43.627,Test,2024.2.4,None,2024-12-08 14h02.53.992954 +0100,
4,150,0,65,None,59,59,0,False,right,1.7162432920304127,None,,,,,,,,0,59,59,59,,,,,,,,,358.93424274999416,,,,,,,,,,,,,,,,,,,,,,,,,,,,,,,,,,,,,,358.9284940410289,358.93424274999416,359.9292258329806,360.9195274160011,360.9195274160011,360.9195274160011,362.6379393329844,right,1.7162432920304127,None,,,,,,,,,,,,,,,,,,,,,,,,,,,,,,,,,,,,,,,,386625,001,2024-12-08_14h02.43.627,Test,2024.2.4,None,2024-12-08 14h02.53.992954 +0100,
67,150,180,33,None,60,60,0,True,left,0.884137415967416,None,,,,,,,,0,60,60,60,,,,,,,,,362.65191391599365,,,,,,,,,,,,,,,,,,,,,,,,,,,,,,,,,,,,,,362.6462481250055,362.65191391599365,363.6459148330032,364.6364619579981,364.6364619579981,364.6364619579981,365.53140849998454,left,0.884137415967416,None,,,,,,,,,,,,,,,,,,,,,,,,,,,,,,,,,,,,,,,,386625,001,2024-12-08_14h02.43.627,Test,2024.2.4,None,2024-12-08 14h02.53.992954 +0100,
19,150,90,28,None,61,61,0,False,left,0.9411963750026189,None,,,,,,,,0,61,61,61,,,,,,,,,365.5463386250194,,,,,,,,,,,,,,,,,,,,,,,,,,,,,,,,,,,,,,365.5401046249899,365.5463386250194,366.5342764580273,367.5295214999933,367.5295214999933,367.5295214999933,368.4813280410017,left,0.9411963750026189,None,,,,,,,,,,,,,,,,,,,,,,,,,,,,,,,,,,,,,,,,386625,001,2024-12-08_14h02.43.627,Test,2024.2.4,None,2024-12-08 14h02.53.992954 +0100,
44,150,30,1,None,62,62,0,True,left,1.40295362501638,None,,,,,,,,0,62,62,62,,,,,,,,,368.49705091601936,,,,,,,,,,,,,,,,,,,,,,,,,,,,,,,,,,,,,,368.49032258300576,368.49705091601936,369.4959452500334,370.4793342910125,370.4793342910125,370.4793342910125,371.88869570801035,left,1.40295362501638,None,,,,,,,,,,,,,,,,,,,,,,,,,,,,,,,,,,,,,,,,386625,001,2024-12-08_14h02.43.627,Test,2024.2.4,None,2024-12-08 14h02.53.992954 +0100,
9,150,30,55,None,63,63,0,False,left,1.0766814590315334,None,,,,,,,,0,63,63,63,,,,,,,,,371.9040770829888,,,,,,,,,,,,,,,,,,,,,,,,,,,,,,,,,,,,,,371.8977174999891,371.9040770829888,372.901086665981,373.88647874997696,373.88647874997696,373.88647874997696,374.9736117499997,left,1.0766814590315334,None,,,,,,,,,,,,,,,,,,,,,,,,,,,,,,,,,,,,,,,,386625,001,2024-12-08_14h02.43.627,Test,2024.2.4,None,2024-12-08 14h02.53.992954 +0100,
25,150,120,21,None,64,64,0,False,left,1.4537938329740427,None,,,,,,,,0,64,64,64,,,,,,,,,374.9857985409908,,,,,,,,,,,,,,,,,,,,,,,,,,,,,,,,,,,,,,374.9808661250281,374.9857985409908,375.97921974997735,376.96952887502266,376.96952887502266,376.96952887502266,378.43210341600934,left,1.4537938329740427,None,,,,,,,,,,,,,,,,,,,,,,,,,,,,,,,,,,,,,,,,386625,001,2024-12-08_14h02.43.627,Test,2024.2.4,None,2024-12-08 14h02.53.992954 +0100,
56,150,120,61,None,65,65,0,True,left,1.259792416007258,None,,,,,,,,0,65,65,65,,,,,,,,,378.4477991660242,,,,,,,,,,,,,,,,,,,,,,,,,,,,,,,,,,,,,,378.4406089580152,378.4477991660242,379.4458371659857,380.42936820798786,380.42936820798786,380.42936820798786,381.69812670798274,left,1.259792416007258,None,,,,,,,,,,,,,,,,,,,,,,,,,,,,,,,,,,,,,,,,386625,001,2024-12-08_14h02.43.627,Test,2024.2.4,None,2024-12-08 14h02.53.992954 +0100,
18,150,90,32,None,66,66,0,False,left,1.000997917028144,None,,,,,,,,0,66,66,66,,,,,,,,,381.7134319579927,,,,,,,,,,,,,,,,,,,,,,,,,,,,,,,,,,,,,,381.7068286659778,381.7134319579927,382.7012275410234,383.6961940830224,383.6961940830224,383.6961940830224,384.7041673330241,left,1.000997917028144,None,,,,,,,,,,,,,,,,,,,,,,,,,,,,,,,,,,,,,,,,386625,001,2024-12-08_14h02.43.627,Test,2024.2.4,None,2024-12-08 14h02.53.992954 +0100,
47,150,60,16,None,67,67,0,True,left,0.9970157080097124,None,,,,,,,,0,67,67,67,,,,,,,,,384.7168002499966,,,,,,,,,,,,,,,,,,,,,,,,,,,,,,,,,,,,,,384.71132820798084,384.7168002499966,385.712505833013,386.7029927080148,386.7029927080148,386.7029927080148,387.7044805409969,left,0.9970157080097124,None,,,,,,,,,,,,,,,,,,,,,,,,,,,,,,,,,,,,,,,,386625,001,2024-12-08_14h02.43.627,Test,2024.2.4,None,2024-12-08 14h02.53.992954 +0100,
49,150,60,46,None,68,68,0,True,left,0.998108041996602,None,,,,,,,,0,68,68,68,,,,,,,,,387.71846554102376,,,,,,,,,,,,,,,,,,,,,,,,,,,,,,,,,,,,,,387.71278804098256,387.71846554102376,388.71255487500457,389.70287966600154,389.70287966600154,389.70287966600154,390.70372462499654,left,0.998108041996602,None,,,,,,,,,,,,,,,,,,,,,,,,,,,,,,,,,,,,,,,,386625,001,2024-12-08_14h02.43.627,Test,2024.2.4,None,2024-12-08 14h02.53.992954 +0100,
60,150,120,45,None,69,69,0,True,left,0.7272081670234911,None,,,,,,,,0,69,69,69,,,,,,,,,390.7174099580152,,,,,,,,,,,,,,,,,,,,,,,,,,,,,,,,,,,,,,390.71172391599976,390.7174099580152,391.7126282909885,392.7033390409779,392.7033390409779,392.7033390409779,393.4379690409987,left,0.7272081670234911,None,,,,,,,,,,,,,,,,,,,,,,,,,,,,,,,,,,,,,,,,386625,001,2024-12-08_14h02.43.627,Test,2024.2.4,None,2024-12-08 14h02.53.992954 +0100,
,,,,,,,,,,,,,,,,,,,,,,,,,,,,,,,,,,,,,,,,,,,,,,,,,,,,,,,,,,,,,,,,,,,,,,,,,,,,,,,393.4382095829933,393.4483570000157,393.4483570000157,398.29818058299134,space,4.847660582978278,None,,,,,,,,,,,,,,,,,,,,,,,,,,,,,,,,,386625,001,2024-12-08_14h02.43.627,Test,2024.2.4,None,2024-12-08 14h02.53.992954 +0100,
18,150,90,32,None,0,0,0,,,,,,,,,,,,,,,,0,0,0,17,,,,,398.32523370801937,,,,,,,,,,,,,,,,,,,,,,,,,,,,,,,,,,,,,,,,,,,,,,,,,,,,,,,398.31689716601977,398.32523370801937,398.4959607910132,398.4959607910132,398.51789533300325,400.19445166602964,400.19445166602964,400.1804982079775,,,,,,,,,,,,,,,,,,,,,,,,,386625,001,2024-12-08_14h02.43.627,Test,2024.2.4,None,2024-12-08 14h02.53.992954 +0100,
20,150,90,25,None,1,1,0,,,,,,,,,,,,,,,,0,1,1,19,,,,,400.19445166602964,,,,,,,,,,,,,,,,,,,,,,,,,,,,,,,,,,,,,,,,,,,,,,,,,,,,,,,400.189431915991,400.19925591599895,400.39602554100566,400.39602554100566,400.39602554100566,402.0938559159986,402.0938559159986,402.08035445801215,,,,,,,,,,,,,,,,,,,,,,,,,386625,001,2024-12-08_14h02.43.627,Test,2024.2.4,None,2024-12-08 14h02.53.992954 +0100,
34,150,180,57,None,2,2,0,,,,,,,,,,,,,,,,0,2,2,33,,,,,402.0938559159986,,,,,,,,,,,,,,,,,,,,,,,,,,,,,,,,,,,,,,,,,,,,,,,,,,,,,,,402.08892904099775,402.0977527499781,402.2961619159905,402.2961619159905,402.2961619159905,403.99402516603004,403.99402516603004,403.9802577079972,,,,,,,,,,,,,,,,,,,,,,,,,386625,001,2024-12-08_14h02.43.627,Test,2024.2.4,None,2024-12-08 14h02.53.992954 +0100,
23,150,120,15,None,3,3,0,,,,,,,,,,,,,,,,0,3,3,22,,,,,403.99402516603004,,,,,,,,,,,,,,,,,,,,,,,,,,,,,,,,,,,,,,,,,,,,,,,,,,,,,,,403.9890020000166,403.99873966601444,404.1960215829895,404.1960215829895,404.1960215829895,405.8938340410241,405.8938340410241,405.88031149999006,,,,,,,,,,,,,,,,,,,,,,,,,386625,001,2024-12-08_14h02.43.627,Test,2024.2.4,None,2024-12-08 14h02.53.992954 +0100,
17,150,90,38,None,4,4,0,,,,,,,,,,,,,,,,0,4,4,16,,,,,405.8938340410241,,,,,,,,,,,,,,,,,,,,,,,,,,,,,,,,,,,,,,,,,,,,,,,,,,,,,,,405.8890139160212,405.89906016603345,406.0961152079981,406.0961152079981,406.0961152079981,407.79394012503326,407.79394012503326,407.7802843750105,,,,,,,,,,,,,,,,,,,,,,,,,386625,001,2024-12-08_14h02.43.627,Test,2024.2.4,None,2024-12-08 14h02.53.992954 +0100,
27,150,150,14,None,5,5,0,,,,,,,,,,,,,,,,0,5,5,26,,,,,407.79394012503326,,,,,,,,,,,,,,,,,,,,,,,,,,,,,,,,,,,,,,,,,,,,,,,,,,,,,,,407.7888814160251,407.79868487501517,407.9959687499795,407.9959687499795,407.9959687499795,409.6932933750213,409.6932933750213,409.68026158300927,,,,,,,,,,,,,,,,,,,,,,,,,386625,001,2024-12-08_14h02.43.627,Test,2024.2.4,None,2024-12-08 14h02.53.992954 +0100,
30,150,150,18,None,6,6,0,,,,,,,,,,,,,,,,0,6,6,29,,,,,409.6932933750213,,,,,,,,,,,,,,,,,,,,,,,,,,,,,,,,,,,,,,,,,,,,,,,,,,,,,,,409.6884909159853,409.6972694580327,409.8960267910152,409.8960267910152,409.8960267910152,411.59382904099766,411.59382904099766,411.5801580410334,,,,,,,,,,,,,,,,,,,,,,,,,386625,001,2024-12-08_14h02.43.627,Test,2024.2.4,None,2024-12-08 14h02.53.992954 +0100,
5,150,0,60,None,7,7,0,,,,,,,,,,,,,,,,0,7,7,4,,,,,411.59382904099766,,,,,,,,,,,,,,,,,,,,,,,,,,,,,,,,,,,,,,,,,,,,,,,,,,,,,,,411.58896408299915,411.5988550410257,411.7961108330055,411.7961108330055,411.7961108330055,413.4930032910197,413.4930032910197,413.4801037500147,,,,,,,,,,,,,,,,,,,,,,,,,386625,001,2024-12-08_14h02.43.627,Test,2024.2.4,None,2024-12-08 14h02.53.992954 +0100,
19,150,90,28,None,8,8,0,,,,,,,,,,,,,,,,0,8,8,18,,,,,413.4930032910197,,,,,,,,,,,,,,,,,,,,,,,,,,,,,,,,,,,,,,,,,,,,,,,,,,,,,,,413.4880092910025,413.4977317500161,413.69598016602686,413.69598016602686,413.69598016602686,415.393588832987,415.393588832987,415.38028829102404,,,,,,,,,,,,,,,,,,,,,,,,,386625,001,2024-12-08_14h02.43.627,Test,2024.2.4,None,2024-12-08 14h02.53.992954 +0100,
10,150,30,52,None,9,9,0,,,,,,,,,,,,,,,,0,9,9,9,,,,,415.393588832987,,,,,,,,,,,,,,,,,,,,,,,,,,,,,,,,,,,,,,,,,,,,,,,,,,,,,,,415.3888162500225,415.3974663330009,415.5960450830171,415.5960450830171,415.5960450830171,417.2931890829932,417.2931890829932,417.2801859159954,,,,,,,,,,,,,,,,,,,,,,,,,386625,001,2024-12-08_14h02.43.627,Test,2024.2.4,None,2024-12-08 14h02.53.992954 +0100,
3,150,0,39,None,10,10,0,,,,,,,,,,,,,,,,0,10,10,2,,,,,417.2931890829932,,,,,,,,,,,,,,,,,,,,,,,,,,,,,,,,,,,,,,,,,,,,,,,,,,,,,,,417.28823474998353,417.29795637499774,417.4959290830302,417.4959290830302,417.4959290830302,419.19302362500457,419.19302362500457,419.1802311249776,,,,,,,,,,,,,,,,,,,,,,,,,386625,001,2024-12-08_14h02.43.627,Test,2024.2.4,None,2024-12-08 14h02.53.992954 +0100,
26,150,150,48,None,11,11,0,,,,,,,,,,,,,,,,0,11,11,25,,,,,419.19302362500457,,,,,,,,,,,,,,,,,,,,,,,,,,,,,,,,,,,,,,,,,,,,,,,,,,,,,,,419.18821670801844,419.19811295799445,419.3959969159914,419.3959969159914,419.3959969159914,421.0935895409784,421.0935895409784,421.08016558300005,,,,,,,,,,,,,,,,,,,,,,,,,386625,001,2024-12-08_14h02.43.627,Test,2024.2.4,None,2024-12-08 14h02.53.992954 +0100,
7,150,30,19,None,12,12,0,,,,,,,,,,,,,,,,0,12,12,6,,,,,421.0935895409784,,,,,,,,,,,,,,,,,,,,,,,,,,,,,,,,,,,,,,,,,,,,,,,,,,,,,,,421.08874012500746,421.09751033299835,421.29592041601427,421.29592041601427,421.29592041601427,422.9941747910343,422.9941747910343,422.98037241603015,,,,,,,,,,,,,,,,,,,,,,,,,386625,001,2024-12-08_14h02.43.627,Test,2024.2.4,None,2024-12-08 14h02.53.992954 +0100,
13,150,60,10,None,13,13,0,,,,,,,,,,,,,,,,0,13,13,12,,,,,422.9941747910343,,,,,,,,,,,,,,,,,,,,,,,,,,,,,,,,,,,,,,,,,,,,,,,,,,,,,,,422.9892232500133,422.99810433300445,423.1962213329971,423.1962213329971,423.1962213329971,424.89328587503405,424.89328587503405,424.8803485829849,,,,,,,,,,,,,,,,,,,,,,,,,386625,001,2024-12-08_14h02.43.627,Test,2024.2.4,None,2024-12-08 14h02.53.992954 +0100,
4,150,0,65,None,14,14,0,,,,,,,,,,,,,,,,0,14,14,3,,,,,424.89328587503405,,,,,,,,,,,,,,,,,,,,,,,,,,,,,,,,,,,,,,,,,,,,,,,,,,,,,,,424.8883219159907,424.89796633302467,425.0960206250311,425.0960206250311,425.0960206250311,426.79343974997755,426.79343974997755,426.78028033301234,,,,,,,,,,,,,,,,,,,,,,,,,386625,001,2024-12-08_14h02.43.627,Test,2024.2.4,None,2024-12-08 14h02.53.992954 +0100,
8,150,30,67,None,15,15,0,,,,,,,,,,,,,,,,0,15,15,7,,,,,426.79343974997755,,,,,,,,,,,,,,,,,,,,,,,,,,,,,,,,,,,,,,,,,,,,,,,,,,,,,,,426.78868658299325,426.79744125000434,426.9959327910328,426.9959327910328,426.9959327910328,428.6942305000266,428.6942305000266,428.6806227909983,,,,,,,,,,,,,,,,,,,,,,,,,386625,001,2024-12-08_14h02.43.627,Test,2024.2.4,None,2024-12-08 14h02.53.992954 +0100,
16,150,90,53,None,16,16,0,,,,,,,,,,,,,,,,0,16,16,15,,,,,428.6942305000266,,,,,,,,,,,,,,,,,,,,,,,,,,,,,,,,,,,,,,,,,,,,,,,,,,,,,,,428.6893862080178,428.69918091600994,428.8959935409948,428.8959935409948,428.8959935409948,430.59313083300367,430.59313083300367,430.58033104101196,,,,,,,,,,,,,,,,,,,,,,,,,386625,001,2024-12-08_14h02.43.627,Test,2024.2.4,None,2024-12-08 14h02.53.992954 +0100,
31,150,180,37,None,17,17,0,,,,,,,,,,,,,,,,0,17,17,30,,,,,430.59313083300367,,,,,,,,,,,,,,,,,,,,,,,,,,,,,,,,,,,,,,,,,,,,,,,,,,,,,,,430.58819837501505,430.5982349999831,430.7960861250176,430.7960861250176,430.7960861250176,432.4939524580259,432.4939524580259,432.4805928749847,,,,,,,,,,,,,,,,,,,,,,,,,386625,001,2024-12-08_14h02.43.627,Test,2024.2.4,None,2024-12-08 14h02.53.992954 +0100,
15,150,60,5,None,18,18,0,,,,,,,,,,,,,,,,0,18,18,14,,,,,432.4939524580259,,,,,,,,,,,,,,,,,,,,,,,,,,,,,,,,,,,,,,,,,,,,,,,,,,,,,,,432.48927387502044,432.4979005000205,432.69592329103034,432.69592329103034,432.69592329103034,434.3926024999819,434.3926024999819,434.38008949998766,,,,,,,,,,,,,,,,,,,,,,,,,386625,001,2024-12-08_14h02.43.627,Test,2024.2.4,None,2024-12-08 14h02.53.992954 +0100,
11,150,60,30,None,19,19,0,,,,,,,,,,,,,,,,0,19,19,10,,,,,434.3926024999819,,,,,,,,,,,,,,,,,,,,,,,,,,,,,,,,,,,,,,,,,,,,,,,,,,,,,,,434.387797916017,434.3969588750042,434.596057666,434.596057666,434.58471100003226,436.2939180000103,436.2939180000103,436.2801435830188,,,,,,,,,,,,,,,,,,,,,,,,,386625,001,2024-12-08_14h02.43.627,Test,2024.2.4,None,2024-12-08 14h02.53.992954 +0100,
35,150,180,4,None,20,20,0,,,,,,,,,,,,,,,,0,20,20,34,,,,,436.2939180000103,,,,,,,,,,,,,,,,,,,,,,,,,,,,,,,,,,,,,,,,,,,,,,,,,,,,,,,436.28903608297696,436.2987062080065,436.4959847080172,436.4959847080172,436.4959847080172,438.19346816599136,438.19346816599136,438.18024770799093,,,,,,,,,,,,,,,,,,,,,,,,,386625,001,2024-12-08_14h02.43.627,Test,2024.2.4,None,2024-12-08 14h02.53.992954 +0100,
29,150,150,17,None,21,21,0,,,,,,,,,,,,,,,,0,21,21,28,,,,,438.19346816599136,,,,,,,,,,,,,,,,,,,,,,,,,,,,,,,,,,,,,,,,,,,,,,,,,,,,,,,438.1884833750082,438.1985287499847,438.396026582981,438.396026582981,438.396026582981,440.09334449999733,440.09334449999733,440.0801739160088,,,,,,,,,,,,,,,,,,,,,,,,,386625,001,2024-12-08_14h02.43.627,Test,2024.2.4,None,2024-12-08 14h02.53.992954 +0100,
25,150,120,21,None,22,22,0,,,,,,,,,,,,,,,,0,22,22,24,,,,,440.09334449999733,,,,,,,,,,,,,,,,,,,,,,,,,,,,,,,,,,,,,,,,,,,,,,,,,,,,,,,440.08850529103074,440.09838724997826,440.2959893749794,440.2959893749794,440.2959893749794,441.99296154099284,441.99296154099284,441.9803420000244,,,,,,,,,,,,,,,,,,,,,,,,,386625,001,2024-12-08_14h02.43.627,Test,2024.2.4,None,2024-12-08 14h02.53.992954 +0100,
22,150,120,27,None,23,23,0,,,,,,,,,,,,,,,,0,23,23,21,,,,,441.99296154099284,,,,,,,,,,,,,,,,,,,,,,,,,,,,,,,,,,,,,,,,,,,,,,,,,,,,,,,441.98813079099637,441.99755583301885,442.1961427910137,442.1961427910137,442.1961427910137,443.8935861660284,443.8935861660284,443.8802698330255,,,,,,,,,,,,,,,,,,,,,,,,,386625,001,2024-12-08_14h02.43.627,Test,2024.2.4,None,2024-12-08 14h02.53.992954 +0100,
14,150,60,50,None,24,24,0,,,,,,,,,,,,,,,,0,24,24,13,,,,,443.8935861660284,,,,,,,,,,,,,,,,,,,,,,,,,,,,,,,,,,,,,,,,,,,,,,,,,,,,,,,443.8886327079963,443.89815537503455,444.0962742079864,444.0962742079864,444.0962742079864,445.79339720797725,445.79339720797725,445.7803464999888,,,,,,,,,,,,,,,,,,,,,,,,,386625,001,2024-12-08_14h02.43.627,Test,2024.2.4,None,2024-12-08 14h02.53.992954 +0100,
12,150,60,35,None,25,25,0,,,,,,,,,,,,,,,,0,25,25,11,,,,,445.79339720797725,,,,,,,,,,,,,,,,,,,,,,,,,,,,,,,,,,,,,,,,,,,,,,,,,,,,,,,445.7884669160121,445.7995277909795,445.9961419160245,445.9961419160245,445.9961419160245,447.69398995803203,447.69398995803203,447.6802323330194,,,,,,,,,,,,,,,,,,,,,,,,,386625,001,2024-12-08_14h02.43.627,Test,2024.2.4,None,2024-12-08 14h02.53.992954 +0100,
9,150,30,55,None,26,26,0,,,,,,,,,,,,,,,,0,26,26,8,,,,,447.69398995803203,,,,,,,,,,,,,,,,,,,,,,,,,,,,,,,,,,,,,,,,,,,,,,,,,,,,,,,447.68895120802335,447.6990020410158,447.8959900829941,447.8959900829941,447.8959900829941,449.59427062497707,449.59427062497707,449.58045120799216,,,,,,,,,,,,,,,,,,,,,,,,,386625,001,2024-12-08_14h02.43.627,Test,2024.2.4,None,2024-12-08 14h02.53.992954 +0100,
28,150,150,42,None,27,27,0,,,,,,,,,,,,,,,,0,27,27,27,,,,,449.59427062497707,,,,,,,,,,,,,,,,,,,,,,,,,,,,,,,,,,,,,,,,,,,,,,,,,,,,,,,449.58923350000987,449.59814608300803,449.7961105409777,449.7961105409777,449.7961105409777,451.49398720799945,451.49398720799945,451.48044200002914,,,,,,,,,,,,,,,,,,,,,,,,,386625,001,2024-12-08_14h02.43.627,Test,2024.2.4,None,2024-12-08 14h02.53.992954 +0100,
33,150,180,43,None,28,28,0,,,,,,,,,,,,,,,,0,28,28,32,,,,,451.49398720799945,,,,,,,,,,,,,,,,,,,,,,,,,,,,,,,,,,,,,,,,,,,,,,,,,,,,,,,451.48894662503153,451.49868087499635,451.6959369999822,451.6959369999822,451.6959369999822,453.3940685830312,453.3940685830312,453.3802845830214,,,,,,,,,,,,,,,,,,,,,,,,,386625,001,2024-12-08_14h02.43.627,Test,2024.2.4,None,2024-12-08 14h02.53.992954 +0100,
2,150,0,56,None,29,29,0,,,,,,,,,,,,,,,,0,29,29,1,,,,,453.3940685830312,,,,,,,,,,,,,,,,,,,,,,,,,,,,,,,,,,,,,,,,,,,,,,,,,,,,,,,453.38910174998455,453.3987729580258,453.5960136660142,453.5960136660142,453.5960136660142,455.2941276250058,455.2941276250058,455.2803696250194,,,,,,,,,,,,,,,,,,,,,,,,,386625,001,2024-12-08_14h02.43.627,Test,2024.2.4,None,2024-12-08 14h02.53.992954 +0100,
21,150,120,7,None,30,30,0,,,,,,,,,,,,,,,,0,30,30,20,,,,,455.2941276250058,,,,,,,,,,,,,,,,,,,,,,,,,,,,,,,,,,,,,,,,,,,,,,,,,,,,,,,455.2892622909858,455.29880291601876,455.4956712499843,455.4956712499843,455.4956712499843,457.19504025002243,457.19504025002243,457.1807487080223,,,,,,,,,,,,,,,,,,,,,,,,,386625,001,2024-12-08_14h02.43.627,Test,2024.2.4,None,2024-12-08 14h02.53.992954 +0100,
32,150,180,58,None,31,31,0,,,,,,,,,,,,,,,,0,31,31,31,,,,,457.19504025002243,,,,,,,,,,,,,,,,,,,,,,,,,,,,,,,,,,,,,,,,,,,,,,,,,,,,,,,457.1901027080021,457.1998558330233,457.3960129999905,457.3960129999905,457.3960129999905,459.0940661660279,459.0940661660279,459.08034962503007,,,,,,,,,,,,,,,,,,,,,,,,,386625,001,2024-12-08_14h02.43.627,Test,2024.2.4,None,2024-12-08 14h02.53.992954 +0100,
24,150,120,22,None,32,32,0,,,,,,,,,,,,,,,,0,32,32,23,,,,,459.0940661660279,,,,,,,,,,,,,,,,,,,,,,,,,,,,,,,,,,,,,,,,,,,,,,,,,,,,,,,459.08923924999544,459.09879420802463,459.29604149999795,459.29604149999795,459.29604149999795,460.99317912501283,460.99317912501283,460.9801635830081,,,,,,,,,,,,,,,,,,,,,,,,,386625,001,2024-12-08_14h02.43.627,Test,2024.2.4,None,2024-12-08 14h02.53.992954 +0100,
1,150,0,66,None,33,33,0,,,,,,,,,,,,,,,,0,33,33,0,,,,,460.99317912501283,,,,,,,,,,,,,,,,,,,,,,,,,,,,,,,,,,,,,,,,,,,,,,,,,,,,,,,460.98846454097657,460.99792370799696,461.19616641598986,461.19616641598986,461.19616641598986,462.8935584999854,462.8935584999854,462.88022437499603,,,,,,,,,,,,,,,,,,,,,,,,,386625,001,2024-12-08_14h02.43.627,Test,2024.2.4,None,2024-12-08 14h02.53.992954 +0100,
6,150,30,59,None,34,34,0,,,,,,,,,,,,,,,,0,34,34,5,,,,,462.8935584999854,,,,,,,,,,,,,,,,,,,,,,,,,,,,,,,,,,,,,,,,,,,,,,,,,,,,,,,462.8887889580219,462.89747458300553,463.09602245799033,463.09602245799033,463.09602245799033,464.7858339159866,464.7858339159866,464.78040004102513,,,,,,,,,,,,,,,,,,,,,,,,,386625,001,2024-12-08_14h02.43.627,Test,2024.2.4,None,2024-12-08 14h02.53.992954 +0100,
,,,,,,,,,,,,,,,,,,,,,,,,,,,,,,,,,,,,,,,,,,,,,,,,,,,,,,,,,,,,,,,,,,,,,,,,,,,,,,,,,,,,,,,,,,,,,,464.7806347080041,464.79448041599244,464.79448041599244,477.8625739160343,space,13.05228858400369,None,,,,,,,,,,,,,,,,,,386625,001,2024-12-08_14h02.43.627,Test,2024.2.4,None,2024-12-08 14h02.53.992954 +0100,
43,150,30,11,None,0,0,0,True,,,,right,1.157857000012882,None,,,,,,,,,,,,,0,0,0,0,477.99111745803384,,,,,,,,,,,,,,,,,,,,,,,,,,,,,,,,,,,,,,,,,,,,,,,,,,,,,,,,,,,,,,,,,,,,,,477.9867726250086,477.99111745803384,478.98371775000123,479.85603629099205,479.85603629099205,479.85603629099205,481.02128350001294,right,1.157857000012882,None,,,,,,,,386625,001,2024-12-08_14h02.43.627,Test,2024.2.4,None,2024-12-08 14h02.53.992954 +0100,
32,150,180,58,None,1,1,0,False,,,,right,0.8255474159959704,None,,,,,,,,,,,,,0,1,1,1,481.0369207499898,,,,,,,,,,,,,,,,,,,,,,,,,,,,,,,,,,,,,,,,,,,,,,,,,,,,,,,,,,,,,,,,,,,,,,481.0302626659977,481.0369207499898,482.0339154159883,483.02067991602235,483.02067991602235,483.02067991602235,483.84923950000666,right,0.8255474159959704,None,,,,,,,,386625,001,2024-12-08_14h02.43.627,Test,2024.2.4,None,2024-12-08 14h02.53.992954 +0100,
65,150,150,31,None,2,2,0,True,,,,left,0.9706211669836193,None,,,,,,,,,,,,,0,2,2,2,483.86457283300115,,,,,,,,,,,,,,,,,,,,,,,,,,,,,,,,,,,,,,,,,,,,,,,,,,,,,,,,,,,,,,,,,,,,,,483.85776037501637,483.86457283300115,484.86247962497873,485.8461021659896,485.8461021659896,485.8461021659896,486.8212579159881,left,0.9706211669836193,None,,,,,,,,386625,001,2024-12-08_14h02.43.627,Test,2024.2.4,None,2024-12-08 14h02.53.992954 +0100,
42,150,30,23,None,3,3,0,True,,,,left,1.2881322920438834,None,,,,,,,,,,,,,0,3,3,3,486.8361817910336,,,,,,,,,,,,,,,,,,,,,,,,,,,,,,,,,,,,,,,,,,,,,,,,,,,,,,,,,,,,,,,,,,,,,,486.8299260410131,486.8361817910336,487.834512832982,488.81985079101287,488.81985079101287,488.81985079101287,490.1146541250055,left,1.2881322920438834,None,,,,,,,,386625,001,2024-12-08_14h02.43.627,Test,2024.2.4,None,2024-12-08 14h02.53.992954 +0100,
55,150,90,40,None,4,4,0,True,,,,left,1.3600942499469966,None,,,,,,,,,,,,,0,4,4,4,490.1295805830159,,,,,,,,,,,,,,,,,,,,,,,,,,,,,,,,,,,,,,,,,,,,,,,,,,,,,,,,,,,,,,,,,,,,,,490.1234900410054,490.1295805830159,491.1178051659954,492.11269249999896,492.11269249999896,492.11269249999896,493.48142416600604,left,1.3600942499469966,None,,,,,,,,386625,001,2024-12-08_14h02.43.627,Test,2024.2.4,None,2024-12-08 14h02.53.992954 +0100,
39,150,0,49,None,5,5,0,True,,,,left,0.7507198749808595,None,,,,,,,,,,,,,0,5,5,5,493.4973961249925,,,,,,,,,,,,,,,,,,,,,,,,,,,,,,,,,,,,,,,,,,,,,,,,,,,,,,,,,,,,,,,,,,,,,,493.49059708300047,493.4973961249925,494.49590916599846,495.47946770797716,495.47946770797716,495.47946770797716,496.241037291009,left,0.7507198749808595,None,,,,,,,,386625,001,2024-12-08_14h02.43.627,Test,2024.2.4,None,2024-12-08 14h02.53.992954 +0100,
62,150,150,12,None,6,6,0,True,,,,left,0.9872053749859333,None,,,,,,,,,,,,,0,6,6,6,496.25245170801645,,,,,,,,,,,,,,,,,,,,,,,,,,,,,,,,,,,,,,,,,,,,,,,,,,,,,,,,,,,,,,,,,,,,,,496.24773629102856,496.25245170801645,497.24586412502686,498.2366110830335,498.2366110830335,498.2366110830335,499.2313208330306,left,0.9872053749859333,None,,,,,,,,386625,001,2024-12-08_14h02.43.627,Test,2024.2.4,None,2024-12-08 14h02.53.992954 +0100,
23,150,120,15,None,7,7,0,False,,,,left,0.8953704999876209,None,,,,,,,,,,,,,0,7,7,7,499.24499883298995,,,,,,,,,,,,,,,,,,,,,,,,,,,,,,,,,,,,,,,,,,,,,,,,,,,,,,,,,,,,,,,,,,,,,,499.23888762498973,499.24499883298995,500.23427745798836,501.2292938330211,501.2292938330211,501.2292938330211,502.1315010410035,left,0.8953704999876209,None,,,,,,,,386625,001,2024-12-08_14h02.43.627,Test,2024.2.4,None,2024-12-08 14h02.53.992954 +0100,
48,150,60,9,None,8,8,0,True,,,,right,1.3510808339924552,None,,,,,,,,,,,,,0,8,8,8,502.14704345801147,,,,,,,,,,,,,,,,,,,,,,,,,,,,,,,,,,,,,,,,,,,,,,,,,,,,,,,,,,,,,,,,,,,,,,502.14055991597706,502.14704345801147,503.1459310830105,504.1294752500253,504.1294752500253,504.1294752500253,505.48735000001034,right,1.3510808339924552,None,,,,,,,,386625,001,2024-12-08_14h02.43.627,Test,2024.2.4,None,2024-12-08 14h02.53.992954 +0100,
53,150,90,26,None,9,9,0,True,,,,left,1.1484168330207467,None,,,,,,,,,,,,,0,9,9,9,505.5023661250016,,,,,,,,,,,,,,,,,,,,,,,,,,,,,,,,,,,,,,,,,,,,,,,,,,,,,,,,,,,,,,,,,,,,,,505.496050457994,505.5023661250016,506.4959655830171,507.4866991660092,507.4866991660092,507.4866991660092,508.63776729098754,left,1.1484168330207467,None,,,,,,,,386625,001,2024-12-08_14h02.43.627,Test,2024.2.4,None,2024-12-08 14h02.53.992954 +0100,
13,150,60,10,None,10,10,0,False,,,,right,0.9097240419941954,None,,,,,,,,,,,,,0,10,10,10,508.65323562501,,,,,,,,,,,,,,,,,,,,,,,,,,,,,,,,,,,,,,,,,,,,,,,,,,,,,,,,,,,,,,,,,,,,,,508.646649790986,508.65323562501,509.64599450002424,510.63660791597795,510.63660791597795,510.63660791597795,511.557081957988,right,0.9097240419941954,None,,,,,,,,386625,001,2024-12-08_14h02.43.627,Test,2024.2.4,None,2024-12-08 14h02.53.992954 +0100,
52,150,90,34,None,11,11,0,True,,,,left,0.9373584999702871,None,,,,,,,,,,,,,0,11,11,11,511.56939412502106,,,,,,,,,,,,,,,,,,,,,,,,,,,,,,,,,,,,,,,,,,,,,,,,,,,,,,,,,,,,,,,,,,,,,,511.5642879580264,511.56939412502106,512.567584000004,513.5529114999808,513.5529114999808,513.5529114999808,514.498076791002,left,0.9373584999702871,None,,,,,,,,386625,001,2024-12-08_14h02.43.627,Test,2024.2.4,None,2024-12-08 14h02.53.992954 +0100,
35,150,180,4,None,12,12,0,False,,,,right,0.8743530419887975,None,,,,,,,,,,,,,0,12,12,12,514.5137779579964,,,,,,,,,,,,,,,,,,,,,,,,,,,,,,,,,,,,,,,,,,,,,,,,,,,,,,,,,,,,,,,,,,,,,,514.5069991659839,514.5137779579964,515.5125983330072,516.4960370410117,516.4960370410117,516.4960370410117,517.3811295410269,right,0.8743530419887975,None,,,,,,,,386625,001,2024-12-08_14h02.43.627,Test,2024.2.4,None,2024-12-08 14h02.53.992954 +0100,
40,150,0,62,None,13,13,0,True,,,,left,2.284747417026665,None,,,,,,,,,,,,,0,13,13,13,517.4014157499769,,,,,,,,,,,,,,,,,,,,,,,,,,,,,,,,,,,,,,,,,,,,,,,,,,,,,,,,,,,,,,,,,,,,,,517.3952598749893,517.4014157499769,518.3960326660308,519.379391791008,519.379391791008,519.379391791008,521.670952666027,left,2.284747417026665,None,,,,,,,,386625,001,2024-12-08_14h02.43.627,Test,2024.2.4,None,2024-12-08 14h02.53.992954 +0100,
50,150,60,68,None,14,14,0,True,,,,left,1.664642499992624,None,,,,,,,,,,,,,0,14,14,14,521.6853474160307,,,,,,,,,,,,,,,,,,,,,,,,,,,,,,,,,,,,,,,,,,,,,,,,,,,,,,,,,,,,,,,,,,,,,,521.6794561250135,521.6853474160307,522.6792796659865,523.6705086249858,523.6705086249858,523.6705086249858,525.3378842080128,left,1.664642499992624,None,,,,,,,,386625,001,2024-12-08_14h02.43.627,Test,2024.2.4,None,2024-12-08 14h02.53.992954 +0100,
29,150,150,17,None,15,15,0,False,,,,right,1.5607431659591384,None,,,,,,,,,,,,,0,15,15,15,525.3528924999991,,,,,,,,,,,,,,,,,,,,,,,,,,,,,,,,,,,,,,,,,,,,,,,,,,,,,,,,,,,,,,,,,,,,,,525.3467470409814,525.3528924999991,526.3506424159859,527.3371846249793,527.3371846249793,527.3371846249793,528.9044807910104,right,1.5607431659591384,None,,,,,,,,386625,001,2024-12-08_14h02.43.627,Test,2024.2.4,None,2024-12-08 14h02.53.992954 +0100,
16,150,90,53,None,16,16,0,False,,,,left,0.872012417006772,None,,,,,,,,,,,,,0,16,16,16,528.9202757499879,,,,,,,,,,,,,,,,,,,,,,,,,,,,,,,,,,,,,,,,,,,,,,,,,,,,,,,,,,,,,,,,,,,,,,528.9137741660234,528.9202757499879,529.9171085830312,530.9034993330133,530.9034993330133,530.9034993330133,531.7821142500034,left,0.872012417006772,None,,,,,,,,386625,001,2024-12-08_14h02.43.627,Test,2024.2.4,None,2024-12-08 14h02.53.992954 +0100,
5,150,0,60,None,17,17,0,False,,,,left,1.010835875000339,None,,,,,,,,,,,,,0,17,17,17,531.7975212910096,,,,,,,,,,,,,,,,,,,,,,,,,,,,,,,,,,,,,,,,,,,,,,,,,,,,,,,,,,,,,,,,,,,,,,531.7912203749875,531.7975212910096,532.7959704999812,533.7793203329784,533.7793203329784,533.7793203329784,534.798050708021,left,1.010835875000339,None,,,,,,,,386625,001,2024-12-08_14h02.43.627,Test,2024.2.4,None,2024-12-08 14h02.53.992954 +0100,
11,150,60,30,None,18,18,0,False,,,,left,0.9836005830438808,None,,,,,,,,,,,,,0,18,18,18,534.8139397500199,,,,,,,,,,,,,,,,,,,,,,,,,,,,,,,,,,,,,,,,,,,,,,,,,,,,,,,,,,,,,,,,,,,,,,534.8071632910287,534.8139397500199,535.812659749994,536.7959639999899,536.7959639999899,536.7959639999899,537.782571208023,left,0.9836005830438808,None,,,,,,,,386625,001,2024-12-08_14h02.43.627,Test,2024.2.4,None,2024-12-08 14h02.53.992954 +0100,
7,150,30,19,None,19,19,0,False,,,,left,0.8340064160292968,None,,,,,,,,,,,,,0,19,19,19,537.7974817079958,,,,,,,,,,,,,,,,,,,,,,,,,,,,,,,,,,,,,,,,,,,,,,,,,,,,,,,,,,,,,,,,,,,,,,537.7915057080099,537.7974817079958,538.7959179580212,539.7794950410025,539.7794950410025,539.7794950410025,540.624353457999,left,0.8340064160292968,None,,,,,,,,386625,001,2024-12-08_14h02.43.627,Test,2024.2.4,None,2024-12-08 14h02.53.992954 +0100,
28,150,150,42,None,20,20,0,False,,,,left,0.8031534579931758,None,,,,,,,,,,,,,0,20,20,20,540.6360016249819,,,,,,,,,,,,,,,,,,,,,,,,,,,,,,,,,,,,,,,,,,,,,,,,,,,,,,,,,,,,,,,,,,,,,,540.6313079160172,540.6360016249819,541.6292008750024,542.6199682080187,542.6199682080187,542.6199682080187,543.4313545409823,left,0.8031534579931758,None,,,,,,,,386625,001,2024-12-08_14h02.43.627,Test,2024.2.4,None,2024-12-08 14h02.53.992954 +0100,
2,150,0,56,None,21,21,0,False,,,,left,0.768015083973296,None,,,,,,,,,,,,,0,21,21,21,543.4467506249784,,,,,,,,,,,,,,,,,,,,,,,,,,,,,,,,,,,,,,,,,,,,,,,,,,,,,,,,,,,,,,,,,,,,,,543.4401094579953,543.4467506249784,544.4348448750097,545.4294772080029,545.4294772080029,545.4294772080029,546.2043402909767,left,0.768015083973296,None,,,,,,,,386625,001,2024-12-08_14h02.43.627,Test,2024.2.4,None,2024-12-08 14h02.53.992954 +0100,
41,150,30,44,None,22,22,0,True,,,,left,1.376577457995154,None,,,,,,,,,,,,,0,22,22,22,546.2195626249886,,,,,,,,,,,,,,,,,,,,,,,,,,,,,,,,,,,,,,,,,,,,,,,,,,,,,,,,,,,,,,,,,,,,,,546.2134176249965,546.2195626249886,547.2127915410092,548.204024458013,548.204024458013,548.204024458013,549.5877378330333,left,1.376577457995154,None,,,,,,,,386625,001,2024-12-08_14h02.43.627,Test,2024.2.4,None,2024-12-08 14h02.53.992954 +0100,
6,150,30,59,None,23,23,0,False,,,,right,1.6518824169761501,None,,,,,,,,,,,,,0,23,23,23,549.6032829579781,,,,,,,,,,,,,,,,,,,,,,,,,,,,,,,,,,,,,,,,,,,,,,,,,,,,,,,,,,,,,,,,,,,,,,549.5966756659909,549.6032829579781,550.6005663329852,551.5866081659915,551.5866081659915,551.5866081659915,553.248018791026,right,1.6518824169761501,None,,,,,,,,386625,001,2024-12-08_14h02.43.627,Test,2024.2.4,None,2024-12-08 14h02.53.992954 +0100,
51,150,90,2,None,24,24,0,True,,,,left,0.7600308749824762,None,,,,,,,,,,,,,0,24,24,24,553.2633093750337,,,,,,,,,,,,,,,,,,,,,,,,,,,,,,,,,,,,,,,,,,,,,,,,,,,,,,,,,,,,,,,,,,,,,,553.2569477080251,553.2633093750337,554.251260375022,555.2459887500154,555.2459887500154,555.2459887500154,556.0146503330325,left,0.7600308749824762,None,,,,,,,,386625,001,2024-12-08_14h02.43.627,Test,2024.2.4,None,2024-12-08 14h02.53.992954 +0100,
34,150,180,57,None,25,25,0,False,,,,left,1.0013553330209106,None,,,,,,,,,,,,,0,25,25,25,556.029461875034,,,,,,,,,,,,,,,,,,,,,,,,,,,,,,,,,,,,,,,,,,,,,,,,,,,,,,,,,,,,,,,,,,,,,,556.022953458014,556.029461875034,557.0180059160339,558.0128780410159,558.0128780410159,558.0128780410159,559.0208105830243,left,1.0013553330209106,None,,,,,,,,386625,001,2024-12-08_14h02.43.627,Test,2024.2.4,None,2024-12-08 14h02.53.992954 +0100,
15,150,60,5,None,26,26,0,False,,,,right,1.1163269590470009,None,,,,,,,,,,,,,0,26,26,26,559.0358712910092,,,,,,,,,,,,,,,,,,,,,,,,,,,,,,,,,,,,,,,,,,,,,,,,,,,,,,,,,,,,,,,,,,,,,,559.0296348750126,559.0358712910092,560.0293174579856,561.0196695830091,561.0196695830091,561.0196695830091,562.1483044580091,right,1.1163269590470009,None,,,,,,,,386625,001,2024-12-08_14h02.43.627,Test,2024.2.4,None,2024-12-08 14h02.53.992954 +0100,
64,150,150,8,None,27,27,0,True,,,,left,0.88822187500773,None,,,,,,,,,,,,,0,27,27,27,562.1634905000101,,,,,,,,,,,,,,,,,,,,,,,,,,,,,,,,,,,,,,,,,,,,,,,,,,,,,,,,,,,,,,,,,,,,,,562.1568545830087,562.1634905000101,563.1505028749816,564.1460926249856,564.1460926249856,564.1460926249856,565.0378594580106,left,0.88822187500773,None,,,,,,,,386625,001,2024-12-08_14h02.43.627,Test,2024.2.4,None,2024-12-08 14h02.53.992954 +0100,
46,150,60,3,None,28,28,0,True,,,,right,1.143771041999571,None,,,,,,,,,,,,,0,28,28,28,565.0535513330251,,,,,,,,,,,,,,,,,,,,,,,,,,,,,,,,,,,,,,,,,,,,,,,,,,,,,,,,,,,,,,,,,,,,,,565.0471269580303,565.0535513330251,566.0507140000118,567.0368999160128,567.0368999160128,567.0368999160128,568.1881068330258,right,1.143771041999571,None,,,,,,,,386625,001,2024-12-08_14h02.43.627,Test,2024.2.4,None,2024-12-08 14h02.53.992954 +0100,
33,150,180,43,None,29,29,0,False,,,,right,1.4732141249696724,None,,,,,,,,,,,,,0,29,29,29,568.2033959580003,,,,,,,,,,,,,,,,,,,,,,,,,,,,,,,,,,,,,,,,,,,,,,,,,,,,,,,,,,,,,,,,,,,,,,568.1970948749804,568.2033959580003,569.201487082988,570.187105457997,570.187105457997,570.187105457997,571.6645968329976,right,1.4732141249696724,None,,,,,,,,386625,001,2024-12-08_14h02.43.627,Test,2024.2.4,None,2024-12-08 14h02.53.992954 +0100,
70,150,180,70,None,30,30,0,True,,,,left,0.8883604999864474,None,,,,,,,,,,,,,0,30,30,30,571.6791483749985,,,,,,,,,,,,,,,,,,,,,,,,,,,,,,,,,,,,,,,,,,,,,,,,,,,,,,,,,,,,,,,,,,,,,,571.6728108749958,571.6791483749985,572.6683000409976,573.6627941250335,573.6627941250335,573.6627941250335,574.5544556659879,left,0.8883604999864474,None,,,,,,,,386625,001,2024-12-08_14h02.43.627,Test,2024.2.4,None,2024-12-08 14h02.53.992954 +0100,
69,150,180,63,None,31,31,0,True,,,,left,1.0159352920018137,None,,,,,,,,,,,,,0,31,31,31,574.5686187910032,,,,,,,,,,,,,,,,,,,,,,,,,,,,,,,,,,,,,,,,,,,,,,,,,,,,,,,,,,,,,,,,,,,,,,574.5625915830024,574.5686187910032,575.5627296250314,576.5530178329791,576.5530178329791,576.5530178329791,577.5712259159773,left,1.0159352920018137,None,,,,,,,,386625,001,2024-12-08_14h02.43.627,Test,2024.2.4,None,2024-12-08 14h02.53.992954 +0100,
38,150,0,64,None,32,32,0,True,,,,left,0.9200191670097411,None,,,,,,,,,,,,,0,32,32,32,577.5864311250043,,,,,,,,,,,,,,,,,,,,,,,,,,,,,,,,,,,,,,,,,,,,,,,,,,,,,,,,,,,,,,,,,,,,,,577.5801802080241,577.5864311250043,578.5848232909921,579.5699209580198,579.5699209580198,579.5699209580198,580.4982401250163,left,0.9200191670097411,None,,,,,,,,386625,001,2024-12-08_14h02.43.627,Test,2024.2.4,None,2024-12-08 14h02.53.992954 +0100,
24,150,120,22,None,33,33,0,False,,,,right,1.0943717919872142,None,,,,,,,,,,,,,0,33,33,33,580.5137710830313,,,,,,,,,,,,,,,,,,,,,,,,,,,,,,,,,,,,,,,,,,,,,,,,,,,,,,,,,,,,,,,,,,,,,,580.5073984999908,580.5137710830313,581.5126531249844,582.4962473750347,582.4962473750347,582.4962473750347,583.5980434999801,right,1.0943717919872142,None,,,,,,,,386625,001,2024-12-08_14h02.43.627,Test,2024.2.4,None,2024-12-08 14h02.53.992954 +0100,
59,150,120,36,None,34,34,0,True,,,,left,1.3277109590126202,None,,,,,,,,,,,,,0,34,34,34,583.6115501250024,,,,,,,,,,,,,,,,,,,,,,,,,,,,,,,,,,,,,,,,,,,,,,,,,,,,,,,,,,,,,,,,,,,,,,583.6058759579901,583.6115501250024,584.6007324579987,585.5962357079843,585.5962357079843,585.5962357079843,586.9314390409854,left,1.3277109590126202,None,,,,,,,,386625,001,2024-12-08_14h02.43.627,Test,2024.2.4,None,2024-12-08 14h02.53.992954 +0100,
63,150,150,54,None,35,35,0,True,,,,right,1.3527250419720076,None,,,,,,,,,,,,,0,35,35,35,586.9445982500329,,,,,,,,,,,,,,,,,,,,,,,,,,,,,,,,,,,,,,,,,,,,,,,,,,,,,,,,,,,,,,,,,,,,,,586.9387193750008,586.9445982500329,587.9345270409831,588.9294514160138,588.9294514160138,588.9294514160138,590.2873505409807,right,1.3527250419720076,None,,,,,,,,386625,001,2024-12-08_14h02.43.627,Test,2024.2.4,None,2024-12-08 14h02.53.992954 +0100,
68,150,180,69,None,36,36,0,True,,,,left,1.6759680840186775,None,,,,,,,,,,,,,0,36,36,36,590.3013807910029,,,,,,,,,,,,,,,,,,,,,,,,,,,,,,,,,,,,,,,,,,,,,,,,,,,,,,,,,,,,,,,,,,,,,,590.2948567499989,590.3013807910029,591.2959197500022,592.2869006249821,592.2869006249821,592.2869006249821,593.9658392500132,left,1.6759680840186775,None,,,,,,,,386625,001,2024-12-08_14h02.43.627,Test,2024.2.4,None,2024-12-08 14h02.53.992954 +0100,
1,150,0,66,None,37,37,0,False,,,,right,1.5667792919557542,None,,,,,,,,,,,,,0,37,37,37,593.9802680829889,,,,,,,,,,,,,,,,,,,,,,,,,,,,,,,,,,,,,,,,,,,,,,,,,,,,,,,,,,,,,,,,,,,,,,593.9740619580261,593.9802680829889,594.967996915977,595.9627387499786,595.9627387499786,595.9627387499786,597.5317342909984,right,1.5667792919557542,None,,,,,,,,386625,001,2024-12-08_14h02.43.627,Test,2024.2.4,None,2024-12-08 14h02.53.992954 +0100,
58,150,120,51,None,38,38,0,True,,,,right,1.2206868329667486,None,,,,,,,,,,,,,0,38,38,38,597.5462135410053,,,,,,,,,,,,,,,,,,,,,,,,,,,,,,,,,,,,,,,,,,,,,,,,,,,,,,,,,,,,,,,,,,,,,,597.5403219580185,597.5462135410053,598.5344908330007,599.5294586250093,599.5294586250093,599.5294586250093,600.7539433329948,right,1.2206868329667486,None,,,,,,,,386625,001,2024-12-08_14h02.43.627,Test,2024.2.4,None,2024-12-08 14h02.53.992954 +0100,
27,150,150,14,None,39,39,0,False,,,,right,1.5812726659933105,None,,,,,,,,,,,,,0,39,39,39,600.7688620410045,,,,,,,,,,,,,,,,,,,,,,,,,,,,,,,,,,,,,,,,,,,,,,,,,,,,,,,,,,,,,,,,,,,,,,600.7626922079944,600.7688620410045,601.7626067079837,602.7534028749797,602.7534028749797,602.7534028749797,604.3377481250209,right,1.5812726659933105,None,,,,,,,,386625,001,2024-12-08_14h02.43.627,Test,2024.2.4,None,2024-12-08 14h02.53.992954 +0100,
57,150,120,47,None,40,40,0,True,,,,left,0.8158185000065714,None,,,,,,,,,,,,,0,40,40,40,604.3505862500169,,,,,,,,,,,,,,,,,,,,,,,,,,,,,,,,,,,,,,,,,,,,,,,,,,,,,,,,,,,,,,,,,,,,,,604.3450142079964,604.3505862500169,605.3459182910156,606.3366342079826,606.3366342079826,606.3366342079826,607.1548745000036,left,0.8158185000065714,None,,,,,,,,386625,001,2024-12-08_14h02.43.627,Test,2024.2.4,None,2024-12-08 14h02.53.992954 +0100,
45,150,30,6,None,41,41,0,True,,,,left,1.392970334040001,None,,,,,,,,,,,,,0,41,41,41,607.1705297909793,,,,,,,,,,,,,,,,,,,,,,,,,,,,,,,,,,,,,,,,,,,,,,,,,,,,,,,,,,,,,,,,,,,,,,607.163949290989,607.1705297909793,608.1673721250263,609.1535280410317,609.1535280410317,609.1535280410317,610.5494790829835,left,1.392970334040001,None,,,,,,,,386625,001,2024-12-08_14h02.43.627,Test,2024.2.4,None,2024-12-08 14h02.53.992954 +0100,
12,150,60,35,None,42,42,0,False,,,,left,1.634571875038091,None,,,,,,,,,,,,,0,42,42,42,610.5647531659924,,,,,,,,,,,,,,,,,,,,,,,,,,,,,,,,,,,,,,,,,,,,,,,,,,,,,,,,,,,,,,,,,,,,,,610.5585452499799,610.5647531659924,611.5627032910124,612.5460999159841,612.5460999159841,612.5460999159841,614.1873637500103,left,1.634571875038091,None,,,,,,,,386625,001,2024-12-08_14h02.43.627,Test,2024.2.4,None,2024-12-08 14h02.53.992954 +0100,
61,150,150,20,None,43,43,0,True,,,,right,0.960586457978934,None,,,,,,,,,,,,,0,43,43,43,614.2017641660059,,,,,,,,,,,,,,,,,,,,,,,,,,,,,,,,,,,,,,,,,,,,,,,,,,,,,,,,,,,,,,,,,,,,,,614.1954587079817,614.2017641660059,615.1958713330096,616.1867617079988,616.1867617079988,616.1867617079988,617.1546621249872,right,0.960586457978934,None,,,,,,,,386625,001,2024-12-08_14h02.43.627,Test,2024.2.4,None,2024-12-08 14h02.53.992954 +0100,
21,150,120,7,None,44,44,0,False,,,,left,1.1611043330049142,None,,,,,,,,,,,,,0,44,44,44,617.1699427079875,,,,,,,,,,,,,,,,,,,,,,,,,,,,,,,,,,,,,,,,,,,,,,,,,,,,,,,,,,,,,,,,,,,,,,617.1637048330158,617.1699427079875,618.167447875021,619.1530528750154,619.1530528750154,619.1530528750154,620.3208768750192,left,1.1611043330049142,None,,,,,,,,386625,001,2024-12-08_14h02.43.627,Test,2024.2.4,None,2024-12-08 14h02.53.992954 +0100,
31,150,180,37,None,45,45,0,False,,,,left,1.0134202089975588,None,,,,,,,,,,,,,0,45,45,45,620.3363780829823,,,,,,,,,,,,,,,,,,,,,,,,,,,,,,,,,,,,,,,,,,,,,,,,,,,,,,,,,,,,,,,,,,,,,,620.3299945000326,620.3363780829823,621.3338520830148,622.3196433749981,622.3196433749981,622.3196433749981,623.3372323749936,left,1.0134202089975588,None,,,,,,,,386625,001,2024-12-08_14h02.43.627,Test,2024.2.4,None,2024-12-08 14h02.53.992954 +0100,
17,150,90,38,None,46,46,0,False,,,,right,1.1651418330147862,None,,,,,,,,,,,,,0,46,46,46,623.3505808750051,,,,,,,,,,,,,,,,,,,,,,,,,,,,,,,,,,,,,,,,,,,,,,,,,,,,,,,,,,,,,,,,,,,,,,623.3450147910044,623.3505808750051,624.3459073749837,625.3371107500279,625.3371107500279,625.3371107500279,626.5046960830223,right,1.1651418330147862,None,,,,,,,,386625,001,2024-12-08_14h02.43.627,Test,2024.2.4,None,2024-12-08 14h02.53.992954 +0100,
14,150,60,50,None,47,47,0,False,,,,left,1.199833624996245,None,,,,,,,,,,,,,0,47,47,47,626.5195747080143,,,,,,,,,,,,,,,,,,,,,,,,,,,,,,,,,,,,,,,,,,,,,,,,,,,,,,,,,,,,,,,,,,,,,,626.5136150409817,626.5195747080143,627.5172677080263,628.5030191660044,628.5030191660044,628.5030191660044,629.705035166,left,1.199833624996245,None,,,,,,,,386625,001,2024-12-08_14h02.43.627,Test,2024.2.4,None,2024-12-08 14h02.53.992954 +0100,
26,150,150,48,None,48,48,0,False,,,,left,1.2846935000270605,None,,,,,,,,,,,,,0,48,48,48,629.7194332079962,,,,,,,,,,,,,,,,,,,,,,,,,,,,,,,,,,,,,,,,,,,,,,,,,,,,,,,,,,,,,,,,,,,,,,629.7135152909905,629.7194332079962,630.7126871660003,631.7036688749795,631.7036688749795,631.7036688749795,632.9982499579783,left,1.2846935000270605,None,,,,,,,,386625,001,2024-12-08_14h02.43.627,Test,2024.2.4,None,2024-12-08 14h02.53.992954 +0100,
30,150,150,18,None,49,49,0,False,,,,left,1.1125619999947958,None,,,,,,,,,,,,,0,49,49,49,633.0129097499885,,,,,,,,,,,,,,,,,,,,,,,,,,,,,,,,,,,,,,,,,,,,,,,,,,,,,,,,,,,,,,,,,,,,,,633.0066920830286,633.0129097499885,634.0013444999931,634.9959980000276,634.9959980000276,634.9959980000276,636.1149045409984,left,1.1125619999947958,None,,,,,,,,386625,001,2024-12-08_14h02.43.627,Test,2024.2.4,None,2024-12-08 14h02.53.992954 +0100,
8,150,30,67,None,50,50,0,False,,,,left,1.1864125419524498,None,,,,,,,,,,,,,0,50,50,50,636.1299243749818,,,,,,,,,,,,,,,,,,,,,,,,,,,,,,,,,,,,,,,,,,,,,,,,,,,,,,,,,,,,,,,,,,,,,,636.1234147080104,636.1299243749818,637.1179447500035,638.1128945830278,638.1128945830278,638.1128945830278,639.3042066660128,left,1.1864125419524498,None,,,,,,,,386625,001,2024-12-08_14h02.43.627,Test,2024.2.4,None,2024-12-08 14h02.53.992954 +0100,
3,150,0,39,None,51,51,0,False,,,,left,1.0988418749766424,None,,,,,,,,,,,,,0,51,51,51,639.3193214160274,,,,,,,,,,,,,,,,,,,,,,,,,,,,,,,,,,,,,,,,,,,,,,,,,,,,,,,,,,,,,,,,,,,,,,639.3132419160102,639.3193214160274,640.3172383329947,641.3030265829875,641.3030265829875,641.3030265829875,642.4046507080202,left,1.0988418749766424,None,,,,,,,,386625,001,2024-12-08_14h02.43.627,Test,2024.2.4,None,2024-12-08 14h02.53.992954 +0100,
54,150,90,29,None,52,52,0,True,,,,left,1.1479203330236487,None,,,,,,,,,,,,,0,52,52,52,642.4195313330274,,,,,,,,,,,,,,,,,,,,,,,,,,,,,,,,,,,,,,,,,,,,,,,,,,,,,,,,,,,,,,,,,,,,,,642.4135842079995,642.4195313330274,643.4181255000294,644.4038113750285,644.4038113750285,644.4038113750285,645.5543661250267,left,1.1479203330236487,None,,,,,,,,386625,001,2024-12-08_14h02.43.627,Test,2024.2.4,None,2024-12-08 14h02.53.992954 +0100,
10,150,30,52,None,53,53,0,False,,,,left,1.326659833022859,None,,,,,,,,,,,,,0,53,53,53,645.568216582993,,,,,,,,,,,,,,,,,,,,,,,,,,,,,,,,,,,,,,,,,,,,,,,,,,,,,,,,,,,,,,,,,,,,,,645.5622863750323,645.568216582993,646.5628470000229,647.5529600000009,647.5529600000009,647.5529600000009,648.8825260000303,left,1.326659833022859,None,,,,,,,,386625,001,2024-12-08_14h02.43.627,Test,2024.2.4,None,2024-12-08 14h02.53.992954 +0100,
22,150,120,27,None,54,54,0,False,,,,right,0.9348204170237295,None,,,,,,,,,,,,,0,54,54,54,648.8976007500314,,,,,,,,,,,,,,,,,,,,,,,,,,,,,,,,,,,,,,,,,,,,,,,,,,,,,,,,,,,,,,,,,,,,,,648.8915010000346,648.8976007500314,649.8961595409783,650.8794358330197,650.8794358330197,650.8794358330197,651.8211219160003,right,0.9348204170237295,None,,,,,,,,386625,001,2024-12-08_14h02.43.627,Test,2024.2.4,None,2024-12-08 14h02.53.992954 +0100,
66,150,180,13,None,55,55,0,True,,,,left,1.133947167021688,None,,,,,,,,,,,,,0,55,55,55,651.8364348750329,,,,,,,,,,,,,,,,,,,,,,,,,,,,,,,,,,,,,,,,,,,,,,,,,,,,,,,,,,,,,,,,,,,,,,651.8301002910011,651.8364348750329,652.8345074999961,653.8201707080007,653.8201707080007,653.8201707080007,654.9646655829856,left,1.133947167021688,None,,,,,,,,386625,001,2024-12-08_14h02.43.627,Test,2024.2.4,None,2024-12-08 14h02.53.992954 +0100,
20,150,90,25,None,56,56,0,False,,,,left,0.8543119169771671,None,,,,,,,,,,,,,0,56,56,56,654.9797017080127,,,,,,,,,,,,,,,,,,,,,,,,,,,,,,,,,,,,,,,,,,,,,,,,,,,,,,,,,,,,,,,,,,,,,,654.9729612080264,654.9797017080127,655.9679480409832,656.9628892909968,656.9628892909968,656.9628892909968,657.8213019160321,left,0.8543119169771671,None,,,,,,,,386625,001,2024-12-08_14h02.43.627,Test,2024.2.4,None,2024-12-08 14h02.53.992954 +0100,
37,150,0,24,None,57,57,0,True,,,,left,1.4716777499997988,None,,,,,,,,,,,,,0,57,57,57,657.8359412080026,,,,,,,,,,,,,,,,,,,,,,,,,,,,,,,,,,,,,,,,,,,,,,,,,,,,,,,,,,,,,,,,,,,,,,657.8303059579921,657.8359412080026,658.8293911250075,659.8196785830078,659.8196785830078,659.8196785830078,661.2979673329974,left,1.4716777499997988,None,,,,,,,,386625,001,2024-12-08_14h02.43.627,Test,2024.2.4,None,2024-12-08 14h02.53.992954 +0100,
36,150,0,41,None,58,58,0,True,,,,left,0.8738090420374647,None,,,,,,,,,,,,,0,58,58,58,661.3127865000279,,,,,,,,,,,,,,,,,,,,,,,,,,,,,,,,,,,,,,,,,,,,,,,,,,,,,,,,,,,,,,,,,,,,,,661.3069846659782,661.3127865000279,662.3007518330123,663.2961366660311,663.2961366660311,663.2961366660311,664.1822500409908,left,0.8738090420374647,None,,,,,,,,386625,001,2024-12-08_14h02.43.627,Test,2024.2.4,None,2024-12-08 14h02.53.992954 +0100,
4,150,0,65,None,59,59,0,False,,,,right,1.69185624999227,None,,,,,,,,,,,,,0,59,59,59,664.1975363750244,,,,,,,,,,,,,,,,,,,,,,,,,,,,,,,,,,,,,,,,,,,,,,,,,,,,,,,,,,,,,,,,,,,,,,664.1906569999992,664.1975363750244,665.1959892080049,666.1793412910192,666.1793412910192,666.1793412910192,667.8815540409996,right,1.69185624999227,None,,,,,,,,386625,001,2024-12-08_14h02.43.627,Test,2024.2.4,None,2024-12-08 14h02.53.992954 +0100,
67,150,180,33,None,60,60,0,True,,,,left,0.9300100000109524,None,,,,,,,,,,,,,0,60,60,60,667.8969125410076,,,,,,,,,,,,,,,,,,,,,,,,,,,,,,,,,,,,,,,,,,,,,,,,,,,,,,,,,,,,,,,,,,,,,,667.8907852910343,667.8969125410076,668.8838705410017,669.8794414580334,669.8794414580334,669.8794414580334,670.8147145410185,left,0.9300100000109524,None,,,,,,,,386625,001,2024-12-08_14h02.43.627,Test,2024.2.4,None,2024-12-08 14h02.53.992954 +0100,
19,150,90,28,None,61,61,0,False,,,,left,0.5906498749973252,None,,,,,,,,,,,,,0,61,61,61,670.8300712499768,,,,,,,,,,,,,,,,,,,,,,,,,,,,,,,,,,,,,,,,,,,,,,,,,,,,,,,,,,,,,,,,,,,,,,670.8238523330074,670.8300712499768,671.8187922909856,672.8128111250116,672.8128111250116,672.8128111250116,673.415281500027,left,0.5906498749973252,None,,,,,,,,386625,001,2024-12-08_14h02.43.627,Test,2024.2.4,None,2024-12-08 14h02.53.992954 +0100,
44,150,30,1,None,62,62,0,True,,,,left,1.2425827920087613,None,,,,,,,,,,,,,0,62,62,62,673.4310547910281,,,,,,,,,,,,,,,,,,,,,,,,,,,,,,,,,,,,,,,,,,,,,,,,,,,,,,,,,,,,,,,,,,,,,,673.4243512499961,673.4310547910281,674.4292675830075,675.4128201249987,675.4128201249987,675.4128201249987,676.6650127909961,left,1.2425827920087613,None,,,,,,,,386625,001,2024-12-08_14h02.43.627,Test,2024.2.4,None,2024-12-08 14h02.53.992954 +0100,
9,150,30,55,None,63,63,0,False,,,,left,1.0515754590160213,None,,,,,,,,,,,,,0,63,63,63,676.6801022500149,,,,,,,,,,,,,,,,,,,,,,,,,,,,,,,,,,,,,,,,,,,,,,,,,,,,,,,,,,,,,,,,,,,,,,676.6739805000252,676.6801022500149,677.6678466250305,678.6628251249786,678.6628251249786,678.6628251249786,679.7209358330001,left,1.0515754590160213,None,,,,,,,,386625,001,2024-12-08_14h02.43.627,Test,2024.2.4,None,2024-12-08 14h02.53.992954 +0100,
25,150,120,21,None,64,64,0,False,,,,left,2.195308791997377,None,,,,,,,,,,,,,0,64,64,64,679.7355123750167,,,,,,,,,,,,,,,,,,,,,,,,,,,,,,,,,,,,,,,,,,,,,,,,,,,,,,,,,,,,,,,,,,,,,,679.7296883329982,679.7355123750167,680.7293342080084,681.7199295830214,681.7199295830214,681.7199295830214,683.9210947910324,left,2.195308791997377,None,,,,,,,,386625,001,2024-12-08_14h02.43.627,Test,2024.2.4,None,2024-12-08 14h02.53.992954 +0100,
56,150,120,61,None,65,65,0,True,,,,left,1.1047504169982858,None,,,,,,,,,,,,,0,65,65,65,683.9373922080267,,,,,,,,,,,,,,,,,,,,,,,,,,,,,,,,,,,,,,,,,,,,,,,,,,,,,,,,,,,,,,,,,,,,,,683.9303873329773,683.9373922080267,684.9347027079784,685.9197679160279,685.9197679160279,685.9197679160279,687.0314384999801,left,1.1047504169982858,None,,,,,,,,386625,001,2024-12-08_14h02.43.627,Test,2024.2.4,None,2024-12-08 14h02.53.992954 +0100,
18,150,90,32,None,66,66,0,False,,,,left,1.1877114999806508,None,,,,,,,,,,,,,0,66,66,66,687.0460990000283,,,,,,,,,,,,,,,,,,,,,,,,,,,,,,,,,,,,,,,,,,,,,,,,,,,,,,,,,,,,,,,,,,,,,,687.0399104160024,687.0460990000283,688.033811250003,689.0295117080095,689.0295117080095,689.0295117080095,690.2205193330301,left,1.1877114999806508,None,,,,,,,,386625,001,2024-12-08_14h02.43.627,Test,2024.2.4,None,2024-12-08 14h02.53.992954 +0100,
47,150,60,16,None,67,67,0,True,,,,left,2.275892457982991,None,,,,,,,,,,,,,0,67,67,67,690.2355480830302,,,,,,,,,,,,,,,,,,,,,,,,,,,,,,,,,,,,,,,,,,,,,,,,,,,,,,,,,,,,,,,,,,,,,,690.2294957499835,690.2355480830302,691.2294169579982,692.2208079579868,692.2208079579868,692.2208079579868,694.5071165410336,left,2.275892457982991,None,,,,,,,,386625,001,2024-12-08_14h02.43.627,Test,2024.2.4,None,2024-12-08 14h02.53.992954 +0100,
49,150,60,46,None,68,68,0,True,,,,left,0.5163185419514775,None,,,,,,,,,,,,,0,68,68,68,694.5192910410115,,,,,,,,,,,,,,,,,,,,,,,,,,,,,,,,,,,,,,,,,,,,,,,,,,,,,,,,,,,,,,,,,,,,,,694.5145785409841,694.5192910410115,695.5127030829899,696.503012000001,696.503012000001,696.503012000001,697.0215128330165,left,0.5163185419514775,None,,,,,,,,386625,001,2024-12-08_14h02.43.627,Test,2024.2.4,None,2024-12-08 14h02.53.992954 +0100,
60,150,120,45,None,69,69,0,True,,,,left,0.84737154195318,None,,,,,,,,,,,,,0,69,69,69,697.0360233749961,,,,,,,,,,,,,,,,,,,,,,,,,,,,,,,,,,,,,,,,,,,,,,,,,,,,,,,,,,,,,,,,,,,,,,697.030010291026,697.0360233749961,698.0292536250199,699.0197690000059,699.0197690000059,699.0197690000059,699.8709678330342,left,0.84737154195318,None,,,,,,,,386625,001,2024-12-08_14h02.43.627,Test,2024.2.4,None,2024-12-08 14h02.53.992954 +0100,
,,,,,,,,,,,,,,,,,,,,,,,,,,,,,,,,,,,,,,,,,,,,,,,,,,,,,,,,,,,,,,,,,,,,,,,,,,,,,,,,,,,,,,,,,,,,,,,,,,,,,,,,,,,,,,,699.8713127080118,699.8813706660294,699.8813706660294,702.6986140829977,space,2.814744332979899,None,386625,001,2024-12-08_14h02.43.627,Test,2024.2.4,None,2024-12-08 14h02.53.992954 +0100,
