Trial_Number,Exposure_Duration,Displacement_Angle,Stimulus,Response,thisN,thisTrialN,thisRepN,Is_Distractor,key_resp_3.keys,key_resp_3.rt,key_resp_3.duration,key_resp_7.keys,key_resp_7.rt,key_resp_7.duration,trials.thisRepN,trials.thisTrialN,trials.thisN,trials.thisIndex,trials_2.thisRepN,trials_2.thisTrialN,trials_2.thisN,trials_2.thisIndex,trials_3.thisRepN,trials_3.thisTrialN,trials_3.thisN,trials_3.thisIndex,trials_4.thisRepN,trials_4.thisTrialN,trials_4.thisN,trials_4.thisIndex,thisRow.t,notes,Intro_to_experiment.started,important1_2.started,key_resp_8.started,Intro_to_experiment.stopped,key_resp_8.keys,key_resp_8.rt,key_resp_8.duration,important.started,important1.started,key_resp_4.started,important.stopped,key_resp_4.keys,key_resp_4.rt,key_resp_4.duration,instruction.started,text_7.started,key_resp_9.started,text_7.stopped,instruction.stopped,key_resp_9.keys,key_resp_9.rt,key_resp_9.duration,training_trial.started,cross.started,image.started,aperture.started,cross.stopped,image.stopped,aperture.stopped,training_trial.stopped,New_instruction.started,text.started,key_resp_2.started,New_instruction.stopped,key_resp_2.keys,key_resp_2.rt,key_resp_2.duration,test_trial.started,cross2.started,cross2.stopped,image_2.started,key_resp_3.started,aperture_2.started,test_trial.stopped,trials_2.key_resp_3.keys,trials_2.key_resp_3.rt,trials_2.key_resp_3.duration,start_blok_2.started,key_resp_5.started,text_4.started,start_blok_2.stopped,key_resp_5.keys,key_resp_5.rt,key_resp_5.duration,training_2.started,cross_2.started,image_3.started,aperture_3.started,cross_2.stopped,image_3.stopped,aperture_3.stopped,training_2.stopped,nyeste_instruks.started,text_5.started,key_resp_6.started,nyeste_instruks.stopped,key_resp_6.keys,key_resp_6.rt,key_resp_6.duration,test_2.started,cross2_2.started,cross2_2.stopped,image_4.started,key_resp_7.started,aperture_4.started,test_2.stopped,trials_4.key_resp_7.keys,trials_4.key_resp_7.rt,trials_4.key_resp_7.duration,Instruction1.started,Instruktion.started,key_resp.started,Instruction1.stopped,key_resp.keys,key_resp.rt,key_resp.duration,participant,session,date,expName,psychopyVersion,frameRate,expStart,
,,,,,,,,,,,,,,,,,,,,,,,,,,,,,,,,,0.007955038000091008,0.01842468400013786,0.01842468400013786,75.57295961,space,75.52142797300007,None,,,,,,,,,,,,,,,,,,,,,,,,,,,,,,,,,,,,,,,,,,,,,,,,,,,,,,,,,,,,,,,,,,,,,,,,,,,,,,,,392221,001,2024-11-28_15h38.25.666,Test,2024.2.1,59.55546750873984,2024-11-28 15h38.36.151035 +0100,
,,,,,,,,,,,,,,,,,,,,,,,,,,,,,,,,,,,,,,,,75.57304716399995,75.59303344,75.59303344,94.56597876000001,space,18.956216099999892,None,,,,,,,,,,,,,,,,,,,,,,,,,,,,,,,,,,,,,,,,,,,,,,,,,,,,,,,,,,,,,,,,,,,,,,,,,392221,001,2024-11-28_15h38.25.666,Test,2024.2.1,59.55546750873984,2024-11-28 15h38.36.151035 +0100,
,,,,,,,,,,,,,,,,,,,,,,,,,,,,,,,,,,,,,,,,,,,,,,,94.56604871700006,94.58051868300004,94.58051868300004,95.58130028699998,113.88466252000012,space,19.288417951999918,None,,,,,,,,,,,,,,,,,,,,,,,,,,,,,,,,,,,,,,,,,,,,,,,,,,,,,,,,,,,,,,,,,392221,001,2024-11-28_15h38.25.666,Test,2024.2.1,59.55546750873984,2024-11-28 15h38.36.151035 +0100,
33,150,180,21,None,0,0,0,,,,,,,,0,0,0,32,,,,,,,,,,,,,113.9251361900001,,,,,,,,,,,,,,,,,,,,,,,,113.91555963300016,113.9251361900001,114.09878872200011,114.09878872200011,114.13181198699999,115.80180626000015,115.80180626000015,115.78421971300008,,,,,,,,,,,,,,,,,,,,,,,,,,,,,,,,,,,,,,,,,,,,,,,,,,,,,,,,,392221,001,2024-11-28_15h38.25.666,Test,2024.2.1,59.55546750873984,2024-11-28 15h38.36.151035 +0100,
14,150,60,36,None,1,1,0,,,,,,,,0,1,1,13,,,,,,,,,,,,,115.80180626000015,,,,,,,,,,,,,,,,,,,,,,,,115.79378790999999,115.80180626000015,115.99957247800012,115.99957247800012,116.01549442800001,117.70398407800008,117.70398407800008,117.68418350499996,,,,,,,,,,,,,,,,,,,,,,,,,,,,,,,,,,,,,,,,,,,,,,,,,,,,,,,,,392221,001,2024-11-28_15h38.25.666,Test,2024.2.1,59.55546750873984,2024-11-28 15h38.36.151035 +0100,
5,150,0,64,None,2,2,0,,,,,,,,0,2,2,4,,,,,,,,,,,,,117.70398407800008,,,,,,,,,,,,,,,,,,,,,,,,117.69489175000012,117.70398407800008,117.89901051800007,117.89901051800007,117.9159644230001,119.60295213600011,119.60295213600011,119.584436697,,,,,,,,,,,,,,,,,,,,,,,,,,,,,,,,,,,,,,,,,,,,,,,,,,,,,,,,,392221,001,2024-11-28_15h38.25.666,Test,2024.2.1,59.55546750873984,2024-11-28 15h38.36.151035 +0100,
11,150,60,48,None,3,3,0,,,,,,,,0,3,3,10,,,,,,,,,,,,,119.60295213600011,,,,,,,,,,,,,,,,,,,,,,,,119.59472871499997,119.60295213600011,119.79979613700016,119.79979613700016,119.81579708799995,121.50306092599999,121.50306092599999,121.48457894600006,,,,,,,,,,,,,,,,,,,,,,,,,,,,,,,,,,,,,,,,,,,,,,,,,,,,,,,,,392221,001,2024-11-28_15h38.25.666,Test,2024.2.1,59.55546750873984,2024-11-28 15h38.36.151035 +0100,
29,150,150,27,None,4,4,0,,,,,,,,0,4,4,28,,,,,,,,,,,,,121.50306092599999,,,,,,,,,,,,,,,,,,,,,,,,121.49503122500005,121.50306092599999,121.69898218399999,121.69898218399999,121.71624952900015,123.39930016400012,123.39930016400012,123.38393330600002,,,,,,,,,,,,,,,,,,,,,,,,,,,,,,,,,,,,,,,,,,,,,,,,,,,,,,,,,392221,001,2024-11-28_15h38.25.666,Test,2024.2.1,59.55546750873984,2024-11-28 15h38.36.151035 +0100,
22,150,120,68,None,5,5,0,,,,,,,,0,5,5,21,,,,,,,,,,,,,123.39930016400012,,,,,,,,,,,,,,,,,,,,,,,,123.3897720110001,123.39930016400012,123.59965440600013,123.59965440600013,123.59965440600013,125.2996869860001,125.2996869860001,125.28365448900013,,,,,,,,,,,,,,,,,,,,,,,,,,,,,,,,,,,,,,,,,,,,,,,,,,,,,,,,,392221,001,2024-11-28_15h38.25.666,Test,2024.2.1,59.55546750873984,2024-11-28 15h38.36.151035 +0100,
31,150,180,10,None,6,6,0,,,,,,,,0,6,6,30,,,,,,,,,,,,,125.2996869860001,,,,,,,,,,,,,,,,,,,,,,,,125.2897837370001,125.2996869860001,125.48300826700006,125.48300826700006,125.50016078399995,127.18273072500006,127.18273072500006,127.16760847900014,,,,,,,,,,,,,,,,,,,,,,,,,,,,,,,,,,,,,,,,,,,,,,,,,,,,,,,,,392221,001,2024-11-28_15h38.25.666,Test,2024.2.1,59.55546750873984,2024-11-28 15h38.36.151035 +0100,
17,150,90,43,None,7,7,0,,,,,,,,0,7,7,16,,,,,,,,,,,,,127.18273072500006,,,,,,,,,,,,,,,,,,,,,,,,127.17337429899999,127.20017467900016,127.40000723200001,127.40000723200001,127.40000723200001,129.09948060200009,129.09948060200009,129.08431110200013,,,,,,,,,,,,,,,,,,,,,,,,,,,,,,,,,,,,,,,,,,,,,,,,,,,,,,,,,392221,001,2024-11-28_15h38.25.666,Test,2024.2.1,59.55546750873984,2024-11-28 15h38.36.151035 +0100,
28,150,150,19,None,8,8,0,,,,,,,,0,8,8,27,,,,,,,,,,,,,129.09948060200009,,,,,,,,,,,,,,,,,,,,,,,,129.09035419199995,129.09948060200009,129.3002394570001,129.3002394570001,129.3002394570001,131.00412673699998,131.00412673699998,130.98543881499995,,,,,,,,,,,,,,,,,,,,,,,,,,,,,,,,,,,,,,,,,,,,,,,,,,,,,,,,,392221,001,2024-11-28_15h38.25.666,Test,2024.2.1,59.55546750873984,2024-11-28 15h38.36.151035 +0100,
35,150,180,26,None,9,9,0,,,,,,,,0,9,9,34,,,,,,,,,,,,,131.00412673699998,,,,,,,,,,,,,,,,,,,,,,,,130.9959631260001,131.00412673699998,131.183578743,131.183578743,131.2165522780001,132.88335296500009,132.88335296500009,132.86756128800016,,,,,,,,,,,,,,,,,,,,,,,,,,,,,,,,,,,,,,,,,,,,,,,,,,,,,,,,,392221,001,2024-11-28_15h38.25.666,Test,2024.2.1,59.55546750873984,2024-11-28 15h38.36.151035 +0100,
30,150,150,14,None,10,10,0,,,,,,,,0,10,10,29,,,,,,,,,,,,,132.88335296500009,,,,,,,,,,,,,,,,,,,,,,,,132.8756463080001,132.90045264700007,133.10038576600004,133.10038576600004,133.10038576600004,134.80415219600013,134.80415219600013,134.78564655500008,,,,,,,,,,,,,,,,,,,,,,,,,,,,,,,,,,,,,,,,,,,,,,,,,,,,,,,,,392221,001,2024-11-28_15h38.25.666,Test,2024.2.1,59.55546750873984,2024-11-28 15h38.36.151035 +0100,
2,150,0,22,None,11,11,0,,,,,,,,0,11,11,1,,,,,,,,,,,,,134.80415219600013,,,,,,,,,,,,,,,,,,,,,,,,134.79579906100003,134.80415219600013,134.98372654000013,134.98372654000013,135.01641252600007,136.68884742499995,136.68884742499995,136.6694074720001,,,,,,,,,,,,,,,,,,,,,,,,,,,,,,,,,,,,,,,,,,,,,,,,,,,,,,,,,392221,001,2024-11-28_15h38.25.666,Test,2024.2.1,59.55546750873984,2024-11-28 15h38.36.151035 +0100,
13,150,60,46,None,12,12,0,,,,,,,,0,12,12,12,,,,,,,,,,,,,136.68884742499995,,,,,,,,,,,,,,,,,,,,,,,,136.68155455800002,136.68884742499995,136.88448444300002,136.88448444300002,136.90050210799996,138.5841846610001,138.5841846610001,138.5679422600001,,,,,,,,,,,,,,,,,,,,,,,,,,,,,,,,,,,,,,,,,,,,,,,,,,,,,,,,,392221,001,2024-11-28_15h38.25.666,Test,2024.2.1,59.55546750873984,2024-11-28 15h38.36.151035 +0100,
23,150,120,54,None,13,13,0,,,,,,,,0,13,13,22,,,,,,,,,,,,,138.5841846610001,,,,,,,,,,,,,,,,,,,,,,,,138.57291014700013,138.5841846610001,138.80075017700005,138.80075017700005,138.7836702720001,140.5007129180001,140.5007129180001,140.48472611300008,,,,,,,,,,,,,,,,,,,,,,,,,,,,,,,,,,,,,,,,,,,,,,,,,,,,,,,,,392221,001,2024-11-28_15h38.25.666,Test,2024.2.1,59.55546750873984,2024-11-28 15h38.36.151035 +0100,
20,150,90,20,None,14,14,0,,,,,,,,0,14,14,19,,,,,,,,,,,,,140.5007129180001,,,,,,,,,,,,,,,,,,,,,,,,140.492636983,140.5007129180001,140.685071568,140.685071568,140.70152493800015,142.38399966400016,142.38399966400016,142.36832526600006,,,,,,,,,,,,,,,,,,,,,,,,,,,,,,,,,,,,,,,,,,,,,,,,,,,,,,,,,392221,001,2024-11-28_15h38.25.666,Test,2024.2.1,59.55546750873984,2024-11-28 15h38.36.151035 +0100,
21,150,120,40,None,15,15,0,,,,,,,,0,15,15,20,,,,,,,,,,,,,142.38399966400016,,,,,,,,,,,,,,,,,,,,,,,,142.37241410299998,142.38399966400016,142.58396507299994,142.58396507299994,142.58396507299994,144.28391378600008,144.28391378600008,144.26814930399996,,,,,,,,,,,,,,,,,,,,,,,,,,,,,,,,,,,,,,,,,,,,,,,,,,,,,,,,,392221,001,2024-11-28_15h38.25.666,Test,2024.2.1,59.55546750873984,2024-11-28 15h38.36.151035 +0100,
4,150,0,69,None,16,16,0,,,,,,,,0,16,16,3,,,,,,,,,,,,,144.28391378600008,,,,,,,,,,,,,,,,,,,,,,,,144.27456694700004,144.28391378600008,144.48437656700003,144.48437656700003,144.48437656700003,146.18425367700002,146.18425367700002,146.1685290150001,,,,,,,,,,,,,,,,,,,,,,,,,,,,,,,,,,,,,,,,,,,,,,,,,,,,,,,,,392221,001,2024-11-28_15h38.25.666,Test,2024.2.1,59.55546750873984,2024-11-28 15h38.36.151035 +0100,
34,150,180,7,None,17,17,0,,,,,,,,0,17,17,33,,,,,,,,,,,,,146.18425367700002,,,,,,,,,,,,,,,,,,,,,,,,146.17636026200012,146.18425367700002,146.38427701399996,146.38427701399996,146.38427701399996,148.084066635,148.084066635,148.06897001000016,,,,,,,,,,,,,,,,,,,,,,,,,,,,,,,,,,,,,,,,,,,,,,,,,,,,,,,,,392221,001,2024-11-28_15h38.25.666,Test,2024.2.1,59.55546750873984,2024-11-28 15h38.36.151035 +0100,
16,150,90,4,None,18,18,0,,,,,,,,0,18,18,15,,,,,,,,,,,,,148.084066635,,,,,,,,,,,,,,,,,,,,,,,,148.07512641400012,148.084066635,148.28444783200007,148.28444783200007,148.28444783200007,149.9846014950001,149.9846014950001,149.96867899300014,,,,,,,,,,,,,,,,,,,,,,,,,,,,,,,,,,,,,,,,,,,,,,,,,,,,,,,,,392221,001,2024-11-28_15h38.25.666,Test,2024.2.1,59.55546750873984,2024-11-28 15h38.36.151035 +0100,
15,150,60,44,None,19,19,0,,,,,,,,0,19,19,14,,,,,,,,,,,,,149.9846014950001,,,,,,,,,,,,,,,,,,,,,,,,149.9748814730001,149.9846014950001,150.18536336700004,150.18536336700004,150.18536336700004,151.89173919500013,151.89173919500013,151.87691451599994,,,,,,,,,,,,,,,,,,,,,,,,,,,,,,,,,,,,,,,,,,,,,,,,,,,,,,,,,392221,001,2024-11-28_15h38.25.666,Test,2024.2.1,59.55546750873984,2024-11-28 15h38.36.151035 +0100,
10,150,30,17,None,20,20,0,,,,,,,,0,20,20,9,,,,,,,,,,,,,151.89173919500013,,,,,,,,,,,,,,,,,,,,,,,,151.8838644550001,151.89173919500013,152.08460882999998,152.08460882999998,152.10138533500003,153.78587304000007,153.78587304000007,153.77013526300016,,,,,,,,,,,,,,,,,,,,,,,,,,,,,,,,,,,,,,,,,,,,,,,,,,,,,,,,,392221,001,2024-11-28_15h38.25.666,Test,2024.2.1,59.55546750873984,2024-11-28 15h38.36.151035 +0100,
9,150,30,63,None,21,21,0,,,,,,,,0,21,21,8,,,,,,,,,,,,,153.78587304000007,,,,,,,,,,,,,,,,,,,,,,,,153.77814079099994,153.78587304000007,153.9856876240001,153.9856876240001,153.9856876240001,155.68478829100013,155.68478829100013,155.66957422099995,,,,,,,,,,,,,,,,,,,,,,,,,,,,,,,,,,,,,,,,,,,,,,,,,,,,,,,,,392221,001,2024-11-28_15h38.25.666,Test,2024.2.1,59.55546750873984,2024-11-28 15h38.36.151035 +0100,
24,150,120,53,None,22,22,0,,,,,,,,0,22,22,23,,,,,,,,,,,,,155.68478829100013,,,,,,,,,,,,,,,,,,,,,,,,155.67511505300013,155.68478829100013,155.88514329400004,155.88514329400004,155.88514329400004,157.58566969599997,157.58566969599997,157.56931673100007,,,,,,,,,,,,,,,,,,,,,,,,,,,,,,,,,,,,,,,,,,,,,,,,,,,,,,,,,392221,001,2024-11-28_15h38.25.666,Test,2024.2.1,59.55546750873984,2024-11-28 15h38.36.151035 +0100,
12,150,60,5,None,23,23,0,,,,,,,,0,23,23,11,,,,,,,,,,,,,157.58566969599997,,,,,,,,,,,,,,,,,,,,,,,,157.5750310420001,157.58566969599997,157.78548867900008,157.78548867900008,157.78548867900008,159.48887855099997,159.48887855099997,159.47051727500002,,,,,,,,,,,,,,,,,,,,,,,,,,,,,,,,,,,,,,,,,,,,,,,,,,,,,,,,,392221,001,2024-11-28_15h38.25.666,Test,2024.2.1,59.55546750873984,2024-11-28 15h38.36.151035 +0100,
3,150,0,66,None,24,24,0,,,,,,,,0,24,24,2,,,,,,,,,,,,,159.48887855099997,,,,,,,,,,,,,,,,,,,,,,,,159.48069493599996,159.48887855099997,159.68559752700003,159.68559752700003,159.70195590900016,161.38933367100003,161.38933367100003,161.37091986600012,,,,,,,,,,,,,,,,,,,,,,,,,,,,,,,,,,,,,,,,,,,,,,,,,,,,,,,,,392221,001,2024-11-28_15h38.25.666,Test,2024.2.1,59.55546750873984,2024-11-28 15h38.36.151035 +0100,
1,150,0,59,None,25,25,0,,,,,,,,0,25,25,0,,,,,,,,,,,,,161.38933367100003,,,,,,,,,,,,,,,,,,,,,,,,161.38122353200015,161.38933367100003,161.585339816,161.585339816,161.6023838860001,163.28594810200002,163.28594810200002,163.27029357300012,,,,,,,,,,,,,,,,,,,,,,,,,,,,,,,,,,,,,,,,,,,,,,,,,,,,,,,,,392221,001,2024-11-28_15h38.25.666,Test,2024.2.1,59.55546750873984,2024-11-28 15h38.36.151035 +0100,
8,150,30,29,None,26,26,0,,,,,,,,0,26,26,7,,,,,,,,,,,,,163.28594810200002,,,,,,,,,,,,,,,,,,,,,,,,163.2780518520001,163.28594810200002,163.48567650200016,163.48567650200016,163.48567650200016,165.18976731099997,165.18976731099997,165.17120233700007,,,,,,,,,,,,,,,,,,,,,,,,,,,,,,,,,,,,,,,,,,,,,,,,,,,,,,,,,392221,001,2024-11-28_15h38.25.666,Test,2024.2.1,59.55546750873984,2024-11-28 15h38.36.151035 +0100,
32,150,180,13,None,27,27,0,,,,,,,,0,27,27,31,,,,,,,,,,,,,165.18976731099997,,,,,,,,,,,,,,,,,,,,,,,,165.18077349300006,165.18976731099997,165.38536042400005,165.38536042400005,165.40211925500012,167.08906244600007,167.08906244600007,167.07130525799994,,,,,,,,,,,,,,,,,,,,,,,,,,,,,,,,,,,,,,,,,,,,,,,,,,,,,,,,,392221,001,2024-11-28_15h38.25.666,Test,2024.2.1,59.55546750873984,2024-11-28 15h38.36.151035 +0100,
18,150,90,41,None,28,28,0,,,,,,,,0,28,28,17,,,,,,,,,,,,,167.08906244600007,,,,,,,,,,,,,,,,,,,,,,,,167.08074635499997,167.08906244600007,167.28623344800008,167.28623344800008,167.30255233799994,168.98540906200014,168.98540906200014,168.97074827799997,,,,,,,,,,,,,,,,,,,,,,,,,,,,,,,,,,,,,,,,,,,,,,,,,,,,,,,,,392221,001,2024-11-28_15h38.25.666,Test,2024.2.1,59.55546750873984,2024-11-28 15h38.36.151035 +0100,
26,150,150,9,None,29,29,0,,,,,,,,0,29,29,25,,,,,,,,,,,,,168.98540906200014,,,,,,,,,,,,,,,,,,,,,,,,168.97694899600015,168.98540906200014,169.186654482,169.186654482,169.186654482,170.88926041500008,170.88926041500008,170.87144724400014,,,,,,,,,,,,,,,,,,,,,,,,,,,,,,,,,,,,,,,,,,,,,,,,,,,,,,,,,392221,001,2024-11-28_15h38.25.666,Test,2024.2.1,59.55546750873984,2024-11-28 15h38.36.151035 +0100,
27,150,150,11,None,30,30,0,,,,,,,,0,30,30,26,,,,,,,,,,,,,170.88926041500008,,,,,,,,,,,,,,,,,,,,,,,,170.88091263800015,170.88926041500008,171.08722155500004,171.08722155500004,171.10410223200006,172.78949383100007,172.78949383100007,172.77175481200015,,,,,,,,,,,,,,,,,,,,,,,,,,,,,,,,,,,,,,,,,,,,,,,,,,,,,,,,,392221,001,2024-11-28_15h38.25.666,Test,2024.2.1,59.55546750873984,2024-11-28 15h38.36.151035 +0100,
7,150,30,28,None,31,31,0,,,,,,,,0,31,31,6,,,,,,,,,,,,,172.78949383100007,,,,,,,,,,,,,,,,,,,,,,,,172.78143426199995,172.78949383100007,172.98676524100006,172.98676524100006,173.00292886500006,174.68683734399997,174.68683734399997,174.67086459100005,,,,,,,,,,,,,,,,,,,,,,,,,,,,,,,,,,,,,,,,,,,,,,,,,,,,,,,,,392221,001,2024-11-28_15h38.25.666,Test,2024.2.1,59.55546750873984,2024-11-28 15h38.36.151035 +0100,
6,150,30,1,None,32,32,0,,,,,,,,0,32,32,5,,,,,,,,,,,,,174.68683734399997,,,,,,,,,,,,,,,,,,,,,,,,174.67861484800005,174.68683734399997,174.887635306,174.887635306,174.887635306,176.59051723400012,176.59051723400012,176.57215991399994,,,,,,,,,,,,,,,,,,,,,,,,,,,,,,,,,,,,,,,,,,,,,,,,,,,,,,,,,392221,001,2024-11-28_15h38.25.666,Test,2024.2.1,59.55546750873984,2024-11-28 15h38.36.151035 +0100,
19,150,90,31,None,33,33,0,,,,,,,,0,33,33,18,,,,,,,,,,,,,176.59051723400012,,,,,,,,,,,,,,,,,,,,,,,,176.58215630600012,176.59051723400012,176.78710965799996,176.78710965799996,176.80327746400008,178.486708831,178.486708831,178.47122920100014,,,,,,,,,,,,,,,,,,,,,,,,,,,,,,,,,,,,,,,,,,,,,,,,,,,,,,,,,392221,001,2024-11-28_15h38.25.666,Test,2024.2.1,59.55546750873984,2024-11-28 15h38.36.151035 +0100,
25,150,120,38,None,34,34,0,,,,,,,,0,34,34,24,,,,,,,,,,,,,178.486708831,,,,,,,,,,,,,,,,,,,,,,,,178.47889956100016,178.486708831,178.686618382,178.686618382,178.686618382,180.387578417,180.387578417,180.37215425099998,,,,,,,,,,,,,,,,,,,,,,,,,,,,,,,,,,,,,,,,,,,,,,,,,,,,,,,,,392221,001,2024-11-28_15h38.25.666,Test,2024.2.1,59.55546750873984,2024-11-28 15h38.36.151035 +0100,
,,,,,,,,,,,,,,,,,,,,,,,,,,,,,,,,,,,,,,,,,,,,,,,,,,,,,,,,,,,,,,,180.37236582700007,180.387578417,180.387578417,195.28879097599997,space,14.888822863000087,None,,,,,,,,,,,,,,,,,,,,,,,,,,,,,,,,,,,,,,,,,,,,,,,,,,392221,001,2024-11-28_15h38.25.666,Test,2024.2.1,59.55546750873984,2024-11-28 15h38.36.151035 +0100,
34,150,180,7,None,0,0,0,False,right,1.2760264710000229,None,,,,,,,,0,0,0,0,,,,,,,,,195.31487024600005,,,,,,,,,,,,,,,,,,,,,,,,,,,,,,,,,,,,,,,195.305194238,195.31487024600005,196.32256491700014,197.28818868200005,197.28818868200005,197.28818868200005,198.5725316600001,right,1.2760264710000229,None,,,,,,,,,,,,,,,,,,,,,,,,,,,,,,,,,,,,,,,,392221,001,2024-11-28_15h38.25.666,Test,2024.2.1,59.55546750873984,2024-11-28 15h38.36.151035 +0100,
11,150,60,48,None,1,1,0,False,right,0.6348526399999628,None,,,,,,,,0,1,1,1,,,,,,,,,198.60725972700016,,,,,,,,,,,,,,,,,,,,,,,,,,,,,,,,,,,,,,,198.57811243000015,198.60725972700016,199.62155177199998,200.5714082290001,200.5714082290001,200.5714082290001,201.22304160199997,right,0.6348526399999628,None,,,,,,,,,,,,,,,,,,,,,,,,,,,,,,,,,,,,,,,,392221,001,2024-11-28_15h38.25.666,Test,2024.2.1,59.55546750873984,2024-11-28 15h38.36.151035 +0100,
3,150,0,66,None,2,2,0,False,right,0.7638756480000666,None,,,,,,,,0,2,2,2,,,,,,,,,201.2384925450001,,,,,,,,,,,,,,,,,,,,,,,,,,,,,,,,,,,,,,,201.22654554700011,201.2384925450001,202.23883676700007,203.23855290699998,203.23855290699998,203.23855290699998,204.00726098099994,right,0.7638756480000666,None,,,,,,,,,,,,,,,,,,,,,,,,,,,,,,,,,,,,,,,,392221,001,2024-11-28_15h38.25.666,Test,2024.2.1,59.55546750873984,2024-11-28 15h38.36.151035 +0100,
46,150,60,25,None,3,3,0,True,left,0.857507188999989,None,,,,,,,,0,3,3,3,,,,,,,,,204.0219038770001,,,,,,,,,,,,,,,,,,,,,,,,,,,,,,,,,,,,,,,204.0130913810001,204.0219038770001,205.02188061700008,206.00448032300005,206.00448032300005,206.00448032300005,206.87305031699998,left,0.857507188999989,None,,,,,,,,,,,,,,,,,,,,,,,,,,,,,,,,,,,,,,,,392221,001,2024-11-28_15h38.25.666,Test,2024.2.1,59.55546750873984,2024-11-28 15h38.36.151035 +0100,
58,150,120,30,None,4,4,0,True,left,1.0135473500001808,None,,,,,,,,0,4,4,4,,,,,,,,,206.88845474999994,,,,,,,,,,,,,,,,,,,,,,,,,,,,,,,,,,,,,,,206.879223658,206.88845474999994,207.889574133,208.87268614599998,208.87268614599998,208.87268614599998,209.89271788099995,left,1.0135473500001808,None,,,,,,,,,,,,,,,,,,,,,,,,,,,,,,,,,,,,,,,,392221,001,2024-11-28_15h38.25.666,Test,2024.2.1,59.55546750873984,2024-11-28 15h38.36.151035 +0100,
67,150,180,3,None,5,5,0,True,left,0.9029069390001041,None,,,,,,,,0,5,5,5,,,,,,,,,209.90827249100016,,,,,,,,,,,,,,,,,,,,,,,,,,,,,,,,,,,,,,,209.89886563899995,209.90827249100016,210.9233721810001,211.9056518110001,211.9056518110001,211.9056518110001,212.82419703899996,left,0.9029069390001041,None,,,,,,,,,,,,,,,,,,,,,,,,,,,,,,,,,,,,,,,,392221,001,2024-11-28_15h38.25.666,Test,2024.2.1,59.55546750873984,2024-11-28 15h38.36.151035 +0100,
53,150,90,55,None,6,6,0,True,right,1.1341029990001061,None,,,,,,,,0,6,6,6,,,,,,,,,212.8397448820001,,,,,,,,,,,,,,,,,,,,,,,,,,,,,,,,,,,,,,,212.83039869899994,212.8397448820001,213.83997651699997,214.8233472270001,214.8233472270001,214.8233472270001,215.97506847700015,right,1.1341029990001061,None,,,,,,,,,,,,,,,,,,,,,,,,,,,,,,,,,,,,,,,,392221,001,2024-11-28_15h38.25.666,Test,2024.2.1,59.55546750873984,2024-11-28 15h38.36.151035 +0100,
35,150,180,26,None,7,7,0,False,left,0.7553122019999137,None,,,,,,,,0,7,7,7,,,,,,,,,215.98942477900005,,,,,,,,,,,,,,,,,,,,,,,,,,,,,,,,,,,,,,,215.980916384,215.98942477900005,216.98938046000012,217.99029707700015,217.99029707700015,217.99029707700015,218.75815510500001,left,0.7553122019999137,None,,,,,,,,,,,,,,,,,,,,,,,,,,,,,,,,,,,,,,,,392221,001,2024-11-28_15h38.25.666,Test,2024.2.1,59.55546750873984,2024-11-28 15h38.36.151035 +0100,
59,150,120,33,None,8,8,0,True,right,0.9013847920000444,None,,,,,,,,0,8,8,8,,,,,,,,,218.77357780500006,,,,,,,,,,,,,,,,,,,,,,,,,,,,,,,,,,,,,,,218.76398115799998,218.77357780500006,219.77280044400004,220.773118157,220.773118157,220.773118157,221.67841861800002,right,0.9013847920000444,None,,,,,,,,,,,,,,,,,,,,,,,,,,,,,,,,,,,,,,,,392221,001,2024-11-28_15h38.25.666,Test,2024.2.1,59.55546750873984,2024-11-28 15h38.36.151035 +0100,
41,150,30,39,None,9,9,0,True,left,0.8945935550000286,None,,,,,,,,0,9,9,9,,,,,,,,,221.69514643699995,,,,,,,,,,,,,,,,,,,,,,,,,,,,,,,,,,,,,,,221.6869645490001,221.69514643699995,222.70718691000002,223.69065568600013,223.69065568600013,223.69065568600013,224.58960255600005,left,0.8945935550000286,None,,,,,,,,,,,,,,,,,,,,,,,,,,,,,,,,,,,,,,,,392221,001,2024-11-28_15h38.25.666,Test,2024.2.1,59.55546750873984,2024-11-28 15h38.36.151035 +0100,
33,150,180,21,None,10,10,0,False,right,1.1023763999999119,None,,,,,,,,0,10,10,10,,,,,,,,,224.61416485600012,,,,,,,,,,,,,,,,,,,,,,,,,,,,,,,,,,,,,,,224.59461551200002,224.61416485600012,225.6240770070001,226.5900351150001,226.5900351150001,226.5900351150001,227.70889637200003,right,1.1023763999999119,None,,,,,,,,,,,,,,,,,,,,,,,,,,,,,,,,,,,,,,,,392221,001,2024-11-28_15h38.25.666,Test,2024.2.1,59.55546750873984,2024-11-28 15h38.36.151035 +0100,
20,150,90,20,None,11,11,0,False,left,1.1171998879999592,None,,,,,,,,0,11,11,11,,,,,,,,,227.72279332100015,,,,,,,,,,,,,,,,,,,,,,,,,,,,,,,,,,,,,,,227.71228020500007,227.72279332100015,228.724001801,229.72354063300008,229.72354063300008,229.72354063300008,230.843186952,left,1.1171998879999592,None,,,,,,,,,,,,,,,,,,,,,,,,,,,,,,,,,,,,,,,,392221,001,2024-11-28_15h38.25.666,Test,2024.2.1,59.55546750873984,2024-11-28 15h38.36.151035 +0100,
12,150,60,5,None,12,12,0,False,left,0.886987377999958,None,,,,,,,,0,12,12,12,,,,,,,,,230.85631621400012,,,,,,,,,,,,,,,,,,,,,,,,,,,,,,,,,,,,,,,230.846925436,230.85631621400012,231.85764718600012,232.857627482,232.857627482,232.857627482,233.75921585000015,left,0.886987377999958,None,,,,,,,,,,,,,,,,,,,,,,,,,,,,,,,,,,,,,,,,392221,001,2024-11-28_15h38.25.666,Test,2024.2.1,59.55546750873984,2024-11-28 15h38.36.151035 +0100,
2,150,0,22,None,13,13,0,False,right,1.2342903890000798,None,,,,,,,,0,13,13,13,,,,,,,,,233.77351109100005,,,,,,,,,,,,,,,,,,,,,,,,,,,,,,,,,,,,,,,233.76465426100003,233.77351109100005,234.77383436200012,235.77390135500013,235.77390135500013,235.77390135500013,237.02665869199996,right,1.2342903890000798,None,,,,,,,,,,,,,,,,,,,,,,,,,,,,,,,,,,,,,,,,392221,001,2024-11-28_15h38.25.666,Test,2024.2.1,59.55546750873984,2024-11-28 15h38.36.151035 +0100,
65,150,150,8,None,14,14,0,True,left,0.8975913310000578,None,,,,,,,,0,14,14,14,,,,,,,,,237.04296511100006,,,,,,,,,,,,,,,,,,,,,,,,,,,,,,,,,,,,,,,237.03358892300002,237.04296511100006,238.05878079500008,239.04168359200003,239.04168359200003,239.04168359200003,239.94321020899997,left,0.8975913310000578,None,,,,,,,,,,,,,,,,,,,,,,,,,,,,,,,,,,,,,,,,392221,001,2024-11-28_15h38.25.666,Test,2024.2.1,59.55546750873984,2024-11-28 15h38.36.151035 +0100,
64,150,150,34,None,15,15,0,True,left,0.9432918299999073,None,,,,,,,,0,15,15,15,,,,,,,,,239.96798201800016,,,,,,,,,,,,,,,,,,,,,,,,,,,,,,,,,,,,,,,239.95945566499995,239.96798201800016,240.97511728400013,241.95783609499995,241.95783609499995,241.95783609499995,242.91078203100005,left,0.9432918299999073,None,,,,,,,,,,,,,,,,,,,,,,,,,,,,,,,,,,,,,,,,392221,001,2024-11-28_15h38.25.666,Test,2024.2.1,59.55546750873984,2024-11-28 15h38.36.151035 +0100,
70,150,180,42,None,16,16,0,True,left,1.4669204580000041,None,,,,,,,,0,16,16,16,,,,,,,,,242.92745645500008,,,,,,,,,,,,,,,,,,,,,,,,,,,,,,,,,,,,,,,242.9180299720001,242.92745645500008,243.94138141899998,244.92545058400015,244.92545058400015,244.92545058400015,246.40956429300013,left,1.4669204580000041,None,,,,,,,,,,,,,,,,,,,,,,,,,,,,,,,,,,,,,,,,392221,001,2024-11-28_15h38.25.666,Test,2024.2.1,59.55546750873984,2024-11-28 15h38.36.151035 +0100,
57,150,120,32,None,17,17,0,True,right,0.9972115709999798,None,,,,,,,,0,17,17,17,,,,,,,,,246.42571611400012,,,,,,,,,,,,,,,,,,,,,,,,,,,,,,,,,,,,,,,246.4159449230001,246.42571611400012,247.42551898700003,248.42477151100002,248.42477151100002,248.42477151100002,249.42689014200005,right,0.9972115709999798,None,,,,,,,,,,,,,,,,,,,,,,,,,,,,,,,,,,,,,,,,392221,001,2024-11-28_15h38.25.666,Test,2024.2.1,59.55546750873984,2024-11-28 15h38.36.151035 +0100,
22,150,120,68,None,18,18,0,False,right,1.0523591419998866,None,,,,,,,,0,18,18,18,,,,,,,,,249.44131486700007,,,,,,,,,,,,,,,,,,,,,,,,,,,,,,,,,,,,,,,249.4324814260001,249.44131486700007,250.44272895200015,251.44246985300015,251.44246985300015,251.44246985300015,252.50975652400007,right,1.0523591419998866,None,,,,,,,,,,,,,,,,,,,,,,,,,,,,,,,,,,,,,,,,392221,001,2024-11-28_15h38.25.666,Test,2024.2.1,59.55546750873984,2024-11-28 15h38.36.151035 +0100,
7,150,30,28,None,19,19,0,False,left,1.2907569609999427,None,,,,,,,,0,19,19,19,,,,,,,,,252.52455346200009,,,,,,,,,,,,,,,,,,,,,,,,,,,,,,,,,,,,,,,252.5133021250001,252.52455346200009,253.526054446,254.52580613700002,254.52580613700002,254.52580613700002,255.82663771800003,left,1.2907569609999427,None,,,,,,,,,,,,,,,,,,,,,,,,,,,,,,,,,,,,,,,,392221,001,2024-11-28_15h38.25.666,Test,2024.2.1,59.55546750873984,2024-11-28 15h38.36.151035 +0100,
68,150,180,45,None,20,20,0,True,left,0.8213338400000794,None,,,,,,,,0,20,20,20,,,,,,,,,255.8414430150001,,,,,,,,,,,,,,,,,,,,,,,,,,,,,,,,,,,,,,,255.8321848180001,255.8414430150001,256.8419295420001,257.82624203399996,257.82624203399996,257.82624203399996,258.65991349700016,left,0.8213338400000794,None,,,,,,,,,,,,,,,,,,,,,,,,,,,,,,,,,,,,,,,,392221,001,2024-11-28_15h38.25.666,Test,2024.2.1,59.55546750873984,2024-11-28 15h38.36.151035 +0100,
19,150,90,31,None,21,21,0,False,right,1.1817913550000867,None,,,,,,,,0,21,21,21,,,,,,,,,258.676051143,,,,,,,,,,,,,,,,,,,,,,,,,,,,,,,,,,,,,,,258.66333659500015,258.676051143,259.67598218600006,260.659916438,260.659916438,260.659916438,261.84711734000007,right,1.1817913550000867,None,,,,,,,,,,,,,,,,,,,,,,,,,,,,,,,,,,,,,,,,392221,001,2024-11-28_15h38.25.666,Test,2024.2.1,59.55546750873984,2024-11-28 15h38.36.151035 +0100,
43,150,30,18,None,22,22,0,True,left,0.8733230670000012,None,,,,,,,,0,22,22,22,,,,,,,,,261.862995103,,,,,,,,,,,,,,,,,,,,,,,,,,,,,,,,,,,,,,,261.85443061,261.862995103,262.876320478,263.86026100799995,263.86026100799995,263.86026100799995,264.7446168910001,left,0.8733230670000012,None,,,,,,,,,,,,,,,,,,,,,,,,,,,,,,,,,,,,,,,,392221,001,2024-11-28_15h38.25.666,Test,2024.2.1,59.55546750873984,2024-11-28 15h38.36.151035 +0100,
60,150,120,2,None,23,23,0,True,right,0.8035583230000611,None,,,,,,,,0,23,23,23,,,,,,,,,264.7606208540001,,,,,,,,,,,,,,,,,,,,,,,,,,,,,,,,,,,,,,,264.75104027600014,264.7606208540001,265.775927161,266.75943570100003,266.75943570100003,266.75943570100003,267.5780977720001,right,0.8035583230000611,None,,,,,,,,,,,,,,,,,,,,,,,,,,,,,,,,,,,,,,,,392221,001,2024-11-28_15h38.25.666,Test,2024.2.1,59.55546750873984,2024-11-28 15h38.36.151035 +0100,
44,150,30,70,None,24,24,0,True,left,1.4833511369999997,None,,,,,,,,0,24,24,24,,,,,,,,,267.5943223510001,,,,,,,,,,,,,,,,,,,,,,,,,,,,,,,,,,,,,,,267.5854579510001,267.5943223510001,268.593559699,269.5938138670001,269.5938138670001,269.5938138670001,271.0794617230001,left,1.4833511369999997,None,,,,,,,,,,,,,,,,,,,,,,,,,,,,,,,,,,,,,,,,392221,001,2024-11-28_15h38.25.666,Test,2024.2.1,59.55546750873984,2024-11-28 15h38.36.151035 +0100,
4,150,0,69,None,25,25,0,False,left,1.3377441390000513,None,,,,,,,,0,25,25,25,,,,,,,,,271.0938742410001,,,,,,,,,,,,,,,,,,,,,,,,,,,,,,,,,,,,,,,271.08418284699997,271.0938742410001,272.09363948500004,273.09337837199996,273.09337837199996,273.09337837199996,274.44416104200013,left,1.3377441390000513,None,,,,,,,,,,,,,,,,,,,,,,,,,,,,,,,,,,,,,,,,392221,001,2024-11-28_15h38.25.666,Test,2024.2.1,59.55546750873984,2024-11-28 15h38.36.151035 +0100,
1,150,0,59,None,26,26,0,False,right,0.6986254460000509,None,,,,,,,,0,26,26,26,,,,,,,,,274.4598854630001,,,,,,,,,,,,,,,,,,,,,,,,,,,,,,,,,,,,,,,274.44768779000015,274.4598854630001,275.46023451500014,276.44462184500003,276.44462184500003,276.44462184500003,277.14662686400015,right,0.6986254460000509,None,,,,,,,,,,,,,,,,,,,,,,,,,,,,,,,,,,,,,,,,392221,001,2024-11-28_15h38.25.666,Test,2024.2.1,59.55546750873984,2024-11-28 15h38.36.151035 +0100,
29,150,150,27,None,27,27,0,False,right,1.1340679760000967,None,,,,,,,,0,27,27,27,,,,,,,,,277.16360345299995,,,,,,,,,,,,,,,,,,,,,,,,,,,,,,,,,,,,,,,277.153946614,277.16360345299995,278.17800854100005,279.1611798670001,279.1611798670001,279.1611798670001,280.31229545500014,right,1.1340679760000967,None,,,,,,,,,,,,,,,,,,,,,,,,,,,,,,,,,,,,,,,,392221,001,2024-11-28_15h38.25.666,Test,2024.2.1,59.55546750873984,2024-11-28 15h38.36.151035 +0100,
16,150,90,4,None,28,28,0,False,right,0.9286389979999967,None,,,,,,,,0,28,28,28,,,,,,,,,280.326565758,,,,,,,,,,,,,,,,,,,,,,,,,,,,,,,,,,,,,,,280.31590953299997,280.326565758,281.327453633,282.3274376480001,282.3274376480001,282.3274376480001,283.26222648399994,right,0.9286389979999967,None,,,,,,,,,,,,,,,,,,,,,,,,,,,,,,,,,,,,,,,,392221,001,2024-11-28_15h38.25.666,Test,2024.2.1,59.55546750873984,2024-11-28 15h38.36.151035 +0100,
69,150,180,58,None,29,29,0,True,left,0.8051313180001216,None,,,,,,,,0,29,29,29,,,,,,,,,283.277210879,,,,,,,,,,,,,,,,,,,,,,,,,,,,,,,,,,,,,,,283.26808987899994,283.277210879,284.2777415370001,285.27783194200015,285.27783194200015,285.27783194200015,286.0960641890001,left,0.8051313180001216,None,,,,,,,,,,,,,,,,,,,,,,,,,,,,,,,,,,,,,,,,392221,001,2024-11-28_15h38.25.666,Test,2024.2.1,59.55546750873984,2024-11-28 15h38.36.151035 +0100,
30,150,150,14,None,30,30,0,False,right,0.8253022799999599,None,,,,,,,,0,30,30,30,,,,,,,,,286.111467359,,,,,,,,,,,,,,,,,,,,,,,,,,,,,,,,,,,,,,,286.10172277000015,286.111467359,287.11081229399997,288.111777373,288.111777373,288.111777373,288.9457559970001,right,0.8253022799999599,None,,,,,,,,,,,,,,,,,,,,,,,,,,,,,,,,,,,,,,,,392221,001,2024-11-28_15h38.25.666,Test,2024.2.1,59.55546750873984,2024-11-28 15h38.36.151035 +0100,
24,150,120,53,None,31,31,0,False,left,0.7324790360000861,None,,,,,,,,0,31,31,31,,,,,,,,,288.960704135,,,,,,,,,,,,,,,,,,,,,,,,,,,,,,,,,,,,,,,288.949291312,288.960704135,289.96179392399995,290.94530198000007,290.94530198000007,290.94530198000007,291.6803528790001,left,0.7324790360000861,None,,,,,,,,,,,,,,,,,,,,,,,,,,,,,,,,,,,,,,,,392221,001,2024-11-28_15h38.25.666,Test,2024.2.1,59.55546750873984,2024-11-28 15h38.36.151035 +0100,
15,150,60,44,None,32,32,0,False,right,0.907536872000037,None,,,,,,,,0,32,32,32,,,,,,,,,291.69394776700005,,,,,,,,,,,,,,,,,,,,,,,,,,,,,,,,,,,,,,,291.683842766,291.69394776700005,292.69536746100016,293.695396417,293.695396417,293.695396417,294.61374398,right,0.907536872000037,None,,,,,,,,,,,,,,,,,,,,,,,,,,,,,,,,,,,,,,,,392221,001,2024-11-28_15h38.25.666,Test,2024.2.1,59.55546750873984,2024-11-28 15h38.36.151035 +0100,
38,150,0,62,None,33,33,0,True,left,0.7828668460001609,None,,,,,,,,0,33,33,33,,,,,,,,,294.62873036199994,,,,,,,,,,,,,,,,,,,,,,,,,,,,,,,,,,,,,,,294.61973780300013,294.62873036199994,295.62795768599995,296.6289858120001,296.6289858120001,296.6289858120001,297.41847249700004,left,0.7828668460001609,None,,,,,,,,,,,,,,,,,,,,,,,,,,,,,,,,,,,,,,,,392221,001,2024-11-28_15h38.25.666,Test,2024.2.1,59.55546750873984,2024-11-28 15h38.36.151035 +0100,
39,150,0,37,None,34,34,0,True,left,0.8807859450000706,None,,,,,,,,0,34,34,34,,,,,,,,,297.4332523170001,,,,,,,,,,,,,,,,,,,,,,,,,,,,,,,,,,,,,,,297.425748591,297.4332523170001,298.445072771,299.428457708,299.428457708,299.428457708,300.31413155200016,left,0.8807859450000706,None,,,,,,,,,,,,,,,,,,,,,,,,,,,,,,,,,,,,,,,,392221,001,2024-11-28_15h38.25.666,Test,2024.2.1,59.55546750873984,2024-11-28 15h38.36.151035 +0100,
52,150,90,6,None,35,35,0,True,right,1.0403625510000438,None,,,,,,,,0,35,35,35,,,,,,,,,300.329111626,,,,,,,,,,,,,,,,,,,,,,,,,,,,,,,,,,,,,,,300.32020281500013,300.329111626,301.32860283800005,302.32847392100007,302.32847392100007,302.32847392100007,303.3804905270001,right,1.0403625510000438,None,,,,,,,,,,,,,,,,,,,,,,,,,,,,,,,,,,,,,,,,392221,001,2024-11-28_15h38.25.666,Test,2024.2.1,59.55546750873984,2024-11-28 15h38.36.151035 +0100,
25,150,120,38,None,36,36,0,False,right,0.9640142609998748,None,,,,,,,,0,36,36,36,,,,,,,,,303.39476629399996,,,,,,,,,,,,,,,,,,,,,,,,,,,,,,,,,,,,,,,303.383806566,303.39476629399996,304.3965069420001,305.37949366700013,305.37949366700013,305.37949366700013,306.34750587999997,right,0.9640142609998748,None,,,,,,,,,,,,,,,,,,,,,,,,,,,,,,,,,,,,,,,,392221,001,2024-11-28_15h38.25.666,Test,2024.2.1,59.55546750873984,2024-11-28 15h38.36.151035 +0100,
61,150,150,52,None,37,37,0,True,right,0.9601486920000752,None,,,,,,,,0,37,37,37,,,,,,,,,306.3624143700001,,,,,,,,,,,,,,,,,,,,,,,,,,,,,,,,,,,,,,,306.353530135,306.3624143700001,307.362528654,308.3622984620001,308.3622984620001,308.3622984620001,309.33124105800016,right,0.9601486920000752,None,,,,,,,,,,,,,,,,,,,,,,,,,,,,,,,,,,,,,,,,392221,001,2024-11-28_15h38.25.666,Test,2024.2.1,59.55546750873984,2024-11-28 15h38.36.151035 +0100,
18,150,90,41,None,38,38,0,False,right,0.7888425839998945,None,,,,,,,,0,38,38,38,,,,,,,,,309.345502098,,,,,,,,,,,,,,,,,,,,,,,,,,,,,,,,,,,,,,,309.3346662020001,309.345502098,310.3459920980001,311.346913353,311.346913353,311.346913353,312.14698155300016,right,0.7888425839998945,None,,,,,,,,,,,,,,,,,,,,,,,,,,,,,,,,,,,,,,,,392221,001,2024-11-28_15h38.25.666,Test,2024.2.1,59.55546750873984,2024-11-28 15h38.36.151035 +0100,
54,150,90,12,None,39,39,0,True,right,0.810470443999975,None,,,,,,,,0,39,39,39,,,,,,,,,312.162890283,,,,,,,,,,,,,,,,,,,,,,,,,,,,,,,,,,,,,,,312.152843414,312.162890283,313.1634953360001,314.1467810910001,314.1467810910001,314.1467810910001,314.96447155500005,right,0.810470443999975,None,,,,,,,,,,,,,,,,,,,,,,,,,,,,,,,,,,,,,,,,392221,001,2024-11-28_15h38.25.666,Test,2024.2.1,59.55546750873984,2024-11-28 15h38.36.151035 +0100,
23,150,120,54,None,40,40,0,False,right,1.1579578020000554,None,,,,,,,,0,40,40,40,,,,,,,,,314.97934922800005,,,,,,,,,,,,,,,,,,,,,,,,,,,,,,,,,,,,,,,314.9679013120001,314.97934922800005,315.9807217530001,316.96374515699995,316.96374515699995,316.96374515699995,318.13118473300005,right,1.1579578020000554,None,,,,,,,,,,,,,,,,,,,,,,,,,,,,,,,,,,,,,,,,392221,001,2024-11-28_15h38.25.666,Test,2024.2.1,59.55546750873984,2024-11-28 15h38.36.151035 +0100,
6,150,30,1,None,41,41,0,False,right,0.9039499170000909,None,,,,,,,,0,41,41,41,,,,,,,,,318.146441871,,,,,,,,,,,,,,,,,,,,,,,,,,,,,,,,,,,,,,,318.13469394699996,318.146441871,319.1473143840001,320.14691977100006,320.14691977100006,320.14691977100006,321.06449133499996,right,0.9039499170000909,None,,,,,,,,,,,,,,,,,,,,,,,,,,,,,,,,,,,,,,,,392221,001,2024-11-28_15h38.25.666,Test,2024.2.1,59.55546750873984,2024-11-28 15h38.36.151035 +0100,
66,150,180,51,None,42,42,0,True,right,1.1347022959998867,None,,,,,,,,0,42,42,42,,,,,,,,,321.0793626740001,,,,,,,,,,,,,,,,,,,,,,,,,,,,,,,,,,,,,,,321.0703391730001,321.0793626740001,322.080948607,323.079907304,323.079907304,323.079907304,324.2321668940001,right,1.1347022959998867,None,,,,,,,,,,,,,,,,,,,,,,,,,,,,,,,,,,,,,,,,392221,001,2024-11-28_15h38.25.666,Test,2024.2.1,59.55546750873984,2024-11-28 15h38.36.151035 +0100,
40,150,0,24,None,43,43,0,True,left,0.801617411000052,None,,,,,,,,0,43,43,43,,,,,,,,,324.24812817500015,,,,,,,,,,,,,,,,,,,,,,,,,,,,,,,,,,,,,,,324.23842267500004,324.24812817500015,325.262665665,326.247289252,326.247289252,326.247289252,327.0644947190001,left,0.801617411000052,None,,,,,,,,,,,,,,,,,,,,,,,,,,,,,,,,,,,,,,,,392221,001,2024-11-28_15h38.25.666,Test,2024.2.1,59.55546750873984,2024-11-28 15h38.36.151035 +0100,
21,150,120,40,None,44,44,0,False,right,1.0464825340000061,None,,,,,,,,0,44,44,44,,,,,,,,,327.079885937,,,,,,,,,,,,,,,,,,,,,,,,,,,,,,,,,,,,,,,327.06814691,327.079885937,328.08052736700006,329.06450997599995,329.06450997599995,329.06450997599995,330.116033302,right,1.0464825340000061,None,,,,,,,,,,,,,,,,,,,,,,,,,,,,,,,,,,,,,,,,392221,001,2024-11-28_15h38.25.666,Test,2024.2.1,59.55546750873984,2024-11-28 15h38.36.151035 +0100,
5,150,0,64,None,45,45,0,False,left,0.9570179789998292,None,,,,,,,,0,45,45,45,,,,,,,,,330.130270335,,,,,,,,,,,,,,,,,,,,,,,,,,,,,,,,,,,,,,,330.121446782,330.130270335,331.1305467960001,332.11516498000015,332.11516498000015,332.11516498000015,333.08255808800004,left,0.9570179789998292,None,,,,,,,,,,,,,,,,,,,,,,,,,,,,,,,,,,,,,,,,392221,001,2024-11-28_15h38.25.666,Test,2024.2.1,59.55546750873984,2024-11-28 15h38.36.151035 +0100,
51,150,90,65,None,46,46,0,True,left,0.8756363820000388,None,,,,,,,,0,46,46,46,,,,,,,,,333.098447244,,,,,,,,,,,,,,,,,,,,,,,,,,,,,,,,,,,,,,,333.08992321799997,333.098447244,334.09786929300003,335.0819499470001,335.0819499470001,335.0819499470001,335.9664059060001,left,0.8756363820000388,None,,,,,,,,,,,,,,,,,,,,,,,,,,,,,,,,,,,,,,,,392221,001,2024-11-28_15h38.25.666,Test,2024.2.1,59.55546750873984,2024-11-28 15h38.36.151035 +0100,
62,150,150,15,None,47,47,0,True,left,0.8520941249998941,None,,,,,,,,0,47,47,47,,,,,,,,,335.98122212600015,,,,,,,,,,,,,,,,,,,,,,,,,,,,,,,,,,,,,,,335.972407384,335.98122212600015,336.98185469300006,337.98044190099995,337.98044190099995,337.98044190099995,338.8491980870001,left,0.8520941249998941,None,,,,,,,,,,,,,,,,,,,,,,,,,,,,,,,,,,,,,,,,392221,001,2024-11-28_15h38.25.666,Test,2024.2.1,59.55546750873984,2024-11-28 15h38.36.151035 +0100,
32,150,180,13,None,48,48,0,False,left,1.2190395640000133,None,,,,,,,,0,48,48,48,,,,,,,,,338.86424855099995,,,,,,,,,,,,,,,,,,,,,,,,,,,,,,,,,,,,,,,338.85263319,338.86424855099995,339.8653124110001,340.8483054640001,340.8483054640001,340.8483054640001,342.08288283800016,left,1.2190395640000133,None,,,,,,,,,,,,,,,,,,,,,,,,,,,,,,,,,,,,,,,,392221,001,2024-11-28_15h38.25.666,Test,2024.2.1,59.55546750873984,2024-11-28 15h38.36.151035 +0100,
10,150,30,17,None,49,49,0,False,right,1.3161563230000866,None,,,,,,,,0,49,49,49,,,,,,,,,342.097461179,,,,,,,,,,,,,,,,,,,,,,,,,,,,,,,,,,,,,,,342.08622251299994,342.097461179,343.097935453,344.082371663,344.082371663,344.082371663,345.40073426699996,right,1.3161563230000866,None,,,,,,,,,,,,,,,,,,,,,,,,,,,,,,,,,,,,,,,,392221,001,2024-11-28_15h38.25.666,Test,2024.2.1,59.55546750873984,2024-11-28 15h38.36.151035 +0100,
42,150,30,57,None,50,50,0,True,left,1.1164600080001037,None,,,,,,,,0,50,50,50,,,,,,,,,345.41597505699997,,,,,,,,,,,,,,,,,,,,,,,,,,,,,,,,,,,,,,,345.40683186399997,345.41597505699997,346.414690372,347.41591042000005,347.41591042000005,347.41591042000005,348.534674169,left,1.1164600080001037,None,,,,,,,,,,,,,,,,,,,,,,,,,,,,,,,,,,,,,,,,392221,001,2024-11-28_15h38.25.666,Test,2024.2.1,59.55546750873984,2024-11-28 15h38.36.151035 +0100,
45,150,30,61,None,51,51,0,True,left,0.8708551810000245,None,,,,,,,,0,51,51,51,,,,,,,,,348.54879638500006,,,,,,,,,,,,,,,,,,,,,,,,,,,,,,,,,,,,,,,348.540269825,348.54879638500006,349.549324995,350.5494756370001,350.5494756370001,350.5494756370001,351.43391154799997,left,0.8708551810000245,None,,,,,,,,,,,,,,,,,,,,,,,,,,,,,,,,,,,,,,,,392221,001,2024-11-28_15h38.25.666,Test,2024.2.1,59.55546750873984,2024-11-28 15h38.36.151035 +0100,
56,150,120,47,None,52,52,0,True,left,1.2391765150000538,None,,,,,,,,0,52,52,52,,,,,,,,,351.44917874600014,,,,,,,,,,,,,,,,,,,,,,,,,,,,,,,,,,,,,,,351.44049376099997,351.44917874600014,352.448548521,353.43339078500003,353.43339078500003,353.43339078500003,354.6841255280001,left,1.2391765150000538,None,,,,,,,,,,,,,,,,,,,,,,,,,,,,,,,,,,,,,,,,392221,001,2024-11-28_15h38.25.666,Test,2024.2.1,59.55546750873984,2024-11-28 15h38.36.151035 +0100,
28,150,150,19,None,53,53,0,False,left,0.9964503579999473,None,,,,,,,,0,53,53,53,,,,,,,,,354.714414648,,,,,,,,,,,,,,,,,,,,,,,,,,,,,,,,,,,,,,,354.69147146800015,354.714414648,355.71566227100016,356.700133736,356.700133736,356.700133736,357.7030877110001,left,0.9964503579999473,None,,,,,,,,,,,,,,,,,,,,,,,,,,,,,,,,,,,,,,,,392221,001,2024-11-28_15h38.25.666,Test,2024.2.1,59.55546750873984,2024-11-28 15h38.36.151035 +0100,
14,150,60,36,None,54,54,0,False,left,0.7841868719999638,None,,,,,,,,0,54,54,54,,,,,,,,,357.718266027,,,,,,,,,,,,,,,,,,,,,,,,,,,,,,,,,,,,,,,357.709471377,357.718266027,358.73299374600015,359.71677759299996,359.71677759299996,359.71677759299996,360.5171380700001,left,0.7841868719999638,None,,,,,,,,,,,,,,,,,,,,,,,,,,,,,,,,,,,,,,,,392221,001,2024-11-28_15h38.25.666,Test,2024.2.1,59.55546750873984,2024-11-28 15h38.36.151035 +0100,
47,150,60,50,None,55,55,0,True,left,0.7829540630000338,None,,,,,,,,0,55,55,55,,,,,,,,,360.53198671400014,,,,,,,,,,,,,,,,,,,,,,,,,,,,,,,,,,,,,,,360.5214602860001,360.53198671400014,361.53301811000006,362.51687726,362.51687726,362.51687726,363.3022102780001,left,0.7829540630000338,None,,,,,,,,,,,,,,,,,,,,,,,,,,,,,,,,,,,,,,,,392221,001,2024-11-28_15h38.25.666,Test,2024.2.1,59.55546750873984,2024-11-28 15h38.36.151035 +0100,
13,150,60,46,None,56,56,0,False,left,0.9116175409999414,None,,,,,,,,0,56,56,56,,,,,,,,,363.3181049980001,,,,,,,,,,,,,,,,,,,,,,,,,,,,,,,,,,,,,,,363.308858266,363.3181049980001,364.333492146,365.316079145,365.316079145,365.316079145,366.23625411500007,left,0.9116175409999414,None,,,,,,,,,,,,,,,,,,,,,,,,,,,,,,,,,,,,,,,,392221,001,2024-11-28_15h38.25.666,Test,2024.2.1,59.55546750873984,2024-11-28 15h38.36.151035 +0100,
50,150,60,49,None,57,57,0,True,right,1.2511954710000737,None,,,,,,,,0,57,57,57,,,,,,,,,366.252737903,,,,,,,,,,,,,,,,,,,,,,,,,,,,,,,,,,,,,,,366.243883979,366.252737903,367.266449791,368.25033188500015,368.25033188500015,368.25033188500015,369.505221054,right,1.2511954710000737,None,,,,,,,,,,,,,,,,,,,,,,,,,,,,,,,,,,,,,,,,392221,001,2024-11-28_15h38.25.666,Test,2024.2.1,59.55546750873984,2024-11-28 15h38.36.151035 +0100,
63,150,150,67,None,58,58,0,True,left,1.0766832759998124,None,,,,,,,,0,58,58,58,,,,,,,,,369.521907713,,,,,,,,,,,,,,,,,,,,,,,,,,,,,,,,,,,,,,,369.51413624099996,369.521907713,370.5326180520001,371.51665541400007,371.51665541400007,371.51665541400007,372.6024302840001,left,1.0766832759998124,None,,,,,,,,,,,,,,,,,,,,,,,,,,,,,,,,,,,,,,,,392221,001,2024-11-28_15h38.25.666,Test,2024.2.1,59.55546750873984,2024-11-28 15h38.36.151035 +0100,
8,150,30,29,None,59,59,0,False,right,0.6585309510001025,None,,,,,,,,0,59,59,59,,,,,,,,,372.61669131300005,,,,,,,,,,,,,,,,,,,,,,,,,,,,,,,,,,,,,,,372.605873859,372.61669131300005,373.61767601500014,374.61761481400004,374.61761481400004,374.61761481400004,375.285712998,right,0.6585309510001025,None,,,,,,,,,,,,,,,,,,,,,,,,,,,,,,,,,,,,,,,,392221,001,2024-11-28_15h38.25.666,Test,2024.2.1,59.55546750873984,2024-11-28 15h38.36.151035 +0100,
36,150,0,35,None,60,60,0,True,right,0.7516200819998176,None,,,,,,,,0,60,60,60,,,,,,,,,375.30016917700004,,,,,,,,,,,,,,,,,,,,,,,,,,,,,,,,,,,,,,,375.29097615900014,375.30016917700004,376.301120956,377.2844871720001,377.2844871720001,377.2844871720001,378.052098163,right,0.7516200819998176,None,,,,,,,,,,,,,,,,,,,,,,,,,,,,,,,,,,,,,,,,392221,001,2024-11-28_15h38.25.666,Test,2024.2.1,59.55546750873984,2024-11-28 15h38.36.151035 +0100,
26,150,150,9,None,61,61,0,False,right,0.789507045999926,None,,,,,,,,0,61,61,61,,,,,,,,,378.06716776200005,,,,,,,,,,,,,,,,,,,,,,,,,,,,,,,,,,,,,,,378.055515305,378.06716776200005,379.06711253000003,380.06809265100014,380.06809265100014,380.06809265100014,380.86924085500004,right,0.789507045999926,None,,,,,,,,,,,,,,,,,,,,,,,,,,,,,,,,,,,,,,,,392221,001,2024-11-28_15h38.25.666,Test,2024.2.1,59.55546750873984,2024-11-28 15h38.36.151035 +0100,
49,150,60,56,None,62,62,0,True,right,0.7273552429999199,None,,,,,,,,0,62,62,62,,,,,,,,,380.885081827,,,,,,,,,,,,,,,,,,,,,,,,,,,,,,,,,,,,,,,380.8763569,380.885081827,381.88402288500015,382.885383436,382.885383436,382.885383436,383.61938252899995,right,0.7273552429999199,None,,,,,,,,,,,,,,,,,,,,,,,,,,,,,,,,,,,,,,,,392221,001,2024-11-28_15h38.25.666,Test,2024.2.1,59.55546750873984,2024-11-28 15h38.36.151035 +0100,
55,150,90,16,None,63,63,0,True,right,1.0649646560000292,None,,,,,,,,0,63,63,63,,,,,,,,,383.63404002000016,,,,,,,,,,,,,,,,,,,,,,,,,,,,,,,,,,,,,,,383.62491986200007,383.63404002000016,384.63505160399995,385.61850023400007,385.61850023400007,385.61850023400007,386.6866969370001,right,1.0649646560000292,None,,,,,,,,,,,,,,,,,,,,,,,,,,,,,,,,,,,,,,,,392221,001,2024-11-28_15h38.25.666,Test,2024.2.1,59.55546750873984,2024-11-28 15h38.36.151035 +0100,
9,150,30,63,None,64,64,0,False,left,0.9375556909999432,None,,,,,,,,0,64,64,64,,,,,,,,,386.70048179100013,,,,,,,,,,,,,,,,,,,,,,,,,,,,,,,,,,,,,,,386.6901179670001,386.70048179100013,387.70160909000015,388.68571473099996,388.68571473099996,388.68571473099996,389.6364433000001,left,0.9375556909999432,None,,,,,,,,,,,,,,,,,,,,,,,,,,,,,,,,,,,,,,,,392221,001,2024-11-28_15h38.25.666,Test,2024.2.1,59.55546750873984,2024-11-28 15h38.36.151035 +0100,
27,150,150,11,None,65,65,0,False,right,1.1348325290000503,None,,,,,,,,0,65,65,65,,,,,,,,,389.6505313140001,,,,,,,,,,,,,,,,,,,,,,,,,,,,,,,,,,,,,,,389.6399357350001,389.6505313140001,390.65205647900007,391.6507793640001,391.6507793640001,391.6507793640001,392.80249145200014,right,1.1348325290000503,None,,,,,,,,,,,,,,,,,,,,,,,,,,,,,,,,,,,,,,,,392221,001,2024-11-28_15h38.25.666,Test,2024.2.1,59.55546750873984,2024-11-28 15h38.36.151035 +0100,
48,150,60,60,None,66,66,0,True,left,0.9965709979999247,None,,,,,,,,0,66,66,66,,,,,,,,,392.81803652200006,,,,,,,,,,,,,,,,,,,,,,,,,,,,,,,,,,,,,,,392.80889684800013,392.81803652200006,393.818414374,394.802538702,394.802538702,394.802538702,395.803899537,left,0.9965709979999247,None,,,,,,,,,,,,,,,,,,,,,,,,,,,,,,,,,,,,,,,,392221,001,2024-11-28_15h38.25.666,Test,2024.2.1,59.55546750873984,2024-11-28 15h38.36.151035 +0100,
37,150,0,23,None,67,67,0,True,left,0.881814464999934,None,,,,,,,,0,67,67,67,,,,,,,,,395.82036780199996,,,,,,,,,,,,,,,,,,,,,,,,,,,,,,,,,,,,,,,395.8113786000001,395.82036780199996,396.83560227700013,397.81892820200005,397.81892820200005,397.81892820200005,398.7045458140001,left,0.881814464999934,None,,,,,,,,,,,,,,,,,,,,,,,,,,,,,,,,,,,,,,,,392221,001,2024-11-28_15h38.25.666,Test,2024.2.1,59.55546750873984,2024-11-28 15h38.36.151035 +0100,
31,150,180,10,None,68,68,0,False,left,0.8509547310000016,None,,,,,,,,0,68,68,68,,,,,,,,,398.7189078000001,,,,,,,,,,,,,,,,,,,,,,,,,,,,,,,,,,,,,,,398.7101723600001,398.7189078000001,399.71980693399996,400.719027437,400.719027437,400.719027437,401.58755982,left,0.8509547310000016,None,,,,,,,,,,,,,,,,,,,,,,,,,,,,,,,,,,,,,,,,392221,001,2024-11-28_15h38.25.666,Test,2024.2.1,59.55546750873984,2024-11-28 15h38.36.151035 +0100,
17,150,90,43,None,69,69,0,False,right,0.9908533469999838,None,,,,,,,,0,69,69,69,,,,,,,,,401.60302192300014,,,,,,,,,,,,,,,,,,,,,,,,,,,,,,,,,,,,,,,401.593568582,401.60302192300014,402.60284411299995,403.60194765899996,403.60194765899996,403.60194765899996,404.6036684600001,right,0.9908533469999838,None,,,,,,,,,,,,,,,,,,,,,,,,,,,,,,,,,,,,,,,,392221,001,2024-11-28_15h38.25.666,Test,2024.2.1,59.55546750873984,2024-11-28 15h38.36.151035 +0100,
,,,,,,,,,,,,,,,,,,,,,,,,,,,,,,,,,,,,,,,,,,,,,,,,,,,,,,,,,,,,,,,,,,,,,,,,,,,,,,,,404.603864619,404.61875424100003,404.61875424100003,409.3717548100001,space,4.748582865999879,None,,,,,,,,,,,,,,,,,,,,,,,,,,,,,,,,,392221,001,2024-11-28_15h38.25.666,Test,2024.2.1,59.55546750873984,2024-11-28 15h38.36.151035 +0100,
13,150,60,46,None,0,0,0,,,,,,,,,,,,,,,,0,0,0,12,,,,,409.394612153,,,,,,,,,,,,,,,,,,,,,,,,,,,,,,,,,,,,,,,,,,,,,,,,,,,,,,,,409.38549010299994,409.394612153,409.58598924800003,409.58598924800003,409.602988226,411.28606678100005,411.28606678100005,411.27007833900007,,,,,,,,,,,,,,,,,,,,,,,,,392221,001,2024-11-28_15h38.25.666,Test,2024.2.1,59.55546750873984,2024-11-28 15h38.36.151035 +0100,
18,150,90,41,None,1,1,0,,,,,,,,,,,,,,,,0,1,1,17,,,,,411.28606678100005,,,,,,,,,,,,,,,,,,,,,,,,,,,,,,,,,,,,,,,,,,,,,,,,,,,,,,,,411.2759557270001,411.28606678100005,411.48608613700003,411.48608613700003,411.48608613700003,413.18972258200006,413.18972258200006,413.17158320299995,,,,,,,,,,,,,,,,,,,,,,,,,392221,001,2024-11-28_15h38.25.666,Test,2024.2.1,59.55546750873984,2024-11-28 15h38.36.151035 +0100,
16,150,90,4,None,2,2,0,,,,,,,,,,,,,,,,0,2,2,15,,,,,413.18972258200006,,,,,,,,,,,,,,,,,,,,,,,,,,,,,,,,,,,,,,,,,,,,,,,,,,,,,,,,413.18172798499995,413.18972258200006,413.386919862,413.386919862,413.40373564000015,415.086511322,415.086511322,415.070792039,,,,,,,,,,,,,,,,,,,,,,,,,392221,001,2024-11-28_15h38.25.666,Test,2024.2.1,59.55546750873984,2024-11-28 15h38.36.151035 +0100,
23,150,120,54,None,3,3,0,,,,,,,,,,,,,,,,0,3,3,22,,,,,415.086511322,,,,,,,,,,,,,,,,,,,,,,,,,,,,,,,,,,,,,,,,,,,,,,,,,,,,,,,,415.0766460960001,415.086511322,415.2864144370001,415.2864144370001,415.2864144370001,416.99264537700014,416.99264537700014,416.9716734020001,,,,,,,,,,,,,,,,,,,,,,,,,392221,001,2024-11-28_15h38.25.666,Test,2024.2.1,59.55546750873984,2024-11-28 15h38.36.151035 +0100,
7,150,30,28,None,4,4,0,,,,,,,,,,,,,,,,0,4,4,6,,,,,416.99264537700014,,,,,,,,,,,,,,,,,,,,,,,,,,,,,,,,,,,,,,,,,,,,,,,,,,,,,,,,416.98258016,416.99264537700014,417.18638760199997,417.18638760199997,417.20308574,418.8900413220001,418.8900413220001,418.87176009200016,,,,,,,,,,,,,,,,,,,,,,,,,392221,001,2024-11-28_15h38.25.666,Test,2024.2.1,59.55546750873984,2024-11-28 15h38.36.151035 +0100,
6,150,30,1,None,5,5,0,,,,,,,,,,,,,,,,0,5,5,5,,,,,418.8900413220001,,,,,,,,,,,,,,,,,,,,,,,,,,,,,,,,,,,,,,,,,,,,,,,,,,,,,,,,418.881427779,418.8900413220001,419.0870620620001,419.0870620620001,419.10374641500016,420.78646154600006,420.78646154600006,420.7703315650001,,,,,,,,,,,,,,,,,,,,,,,,,392221,001,2024-11-28_15h38.25.666,Test,2024.2.1,59.55546750873984,2024-11-28 15h38.36.151035 +0100,
28,150,150,19,None,6,6,0,,,,,,,,,,,,,,,,0,6,6,27,,,,,420.78646154600006,,,,,,,,,,,,,,,,,,,,,,,,,,,,,,,,,,,,,,,,,,,,,,,,,,,,,,,,420.77643233699996,420.78646154600006,420.987343238,420.987343238,420.987343238,422.687247396,422.687247396,422.67163575099994,,,,,,,,,,,,,,,,,,,,,,,,,392221,001,2024-11-28_15h38.25.666,Test,2024.2.1,59.55546750873984,2024-11-28 15h38.36.151035 +0100,
24,150,120,53,None,7,7,0,,,,,,,,,,,,,,,,0,7,7,23,,,,,422.687247396,,,,,,,,,,,,,,,,,,,,,,,,,,,,,,,,,,,,,,,,,,,,,,,,,,,,,,,,422.6795217660001,422.687247396,422.86997733700014,422.86997733700014,422.88689557700013,424.57068106099996,424.57068106099996,424.55454743400014,,,,,,,,,,,,,,,,,,,,,,,,,392221,001,2024-11-28_15h38.25.666,Test,2024.2.1,59.55546750873984,2024-11-28 15h38.36.151035 +0100,
3,150,0,66,None,8,8,0,,,,,,,,,,,,,,,,0,8,8,2,,,,,424.57068106099996,,,,,,,,,,,,,,,,,,,,,,,,,,,,,,,,,,,,,,,,,,,,,,,,,,,,,,,,424.56025031600007,424.587226051,424.78727793100006,424.78727793100006,424.78727793100006,426.48868721400004,426.48868721400004,426.47178158299994,,,,,,,,,,,,,,,,,,,,,,,,,392221,001,2024-11-28_15h38.25.666,Test,2024.2.1,59.55546750873984,2024-11-28 15h38.36.151035 +0100,
27,150,150,11,None,9,9,0,,,,,,,,,,,,,,,,0,9,9,26,,,,,426.48868721400004,,,,,,,,,,,,,,,,,,,,,,,,,,,,,,,,,,,,,,,,,,,,,,,,,,,,,,,,426.479966526,426.48868721400004,426.67156613299994,426.67156613299994,426.688393979,428.3752382540001,428.3752382540001,428.35584215100016,,,,,,,,,,,,,,,,,,,,,,,,,392221,001,2024-11-28_15h38.25.666,Test,2024.2.1,59.55546750873984,2024-11-28 15h38.36.151035 +0100,
1,150,0,59,None,10,10,0,,,,,,,,,,,,,,,,0,10,10,0,,,,,428.3752382540001,,,,,,,,,,,,,,,,,,,,,,,,,,,,,,,,,,,,,,,,,,,,,,,,,,,,,,,,428.367907649,428.3752382540001,428.58765464700014,428.58765464700014,428.58765464700014,430.28741741399995,430.28741741399995,430.271566656,,,,,,,,,,,,,,,,,,,,,,,,,392221,001,2024-11-28_15h38.25.666,Test,2024.2.1,59.55546750873984,2024-11-28 15h38.36.151035 +0100,
10,150,30,17,None,11,11,0,,,,,,,,,,,,,,,,0,11,11,9,,,,,430.28741741399995,,,,,,,,,,,,,,,,,,,,,,,,,,,,,,,,,,,,,,,,,,,,,,,,,,,,,,,,430.27775410799995,430.28741741399995,430.47168546800003,430.47168546800003,430.48818120400006,432.1701057,432.1701057,432.15484453499994,,,,,,,,,,,,,,,,,,,,,,,,,392221,001,2024-11-28_15h38.25.666,Test,2024.2.1,59.55546750873984,2024-11-28 15h38.36.151035 +0100,
22,150,120,68,None,12,12,0,,,,,,,,,,,,,,,,0,12,12,21,,,,,432.1701057,,,,,,,,,,,,,,,,,,,,,,,,,,,,,,,,,,,,,,,,,,,,,,,,,,,,,,,,432.16177441600007,432.1701057,432.370853874,432.370853874,432.370853874,434.07462309900006,434.07462309900006,434.05609859000015,,,,,,,,,,,,,,,,,,,,,,,,,392221,001,2024-11-28_15h38.25.666,Test,2024.2.1,59.55546750873984,2024-11-28 15h38.36.151035 +0100,
14,150,60,36,None,13,13,0,,,,,,,,,,,,,,,,0,13,13,13,,,,,434.07462309900006,,,,,,,,,,,,,,,,,,,,,,,,,,,,,,,,,,,,,,,,,,,,,,,,,,,,,,,,434.0659375550001,434.07462309900006,434.27169525399995,434.27169525399995,434.28755611500014,435.9707100370001,435.9707100370001,435.95577123500016,,,,,,,,,,,,,,,,,,,,,,,,,392221,001,2024-11-28_15h38.25.666,Test,2024.2.1,59.55546750873984,2024-11-28 15h38.36.151035 +0100,
11,150,60,48,None,14,14,0,,,,,,,,,,,,,,,,0,14,14,10,,,,,435.9707100370001,,,,,,,,,,,,,,,,,,,,,,,,,,,,,,,,,,,,,,,,,,,,,,,,,,,,,,,,435.96186848799994,435.9707100370001,436.17236047200004,436.17236047200004,436.17236047200004,437.8706531,437.8706531,437.85576524199996,,,,,,,,,,,,,,,,,,,,,,,,,392221,001,2024-11-28_15h38.25.666,Test,2024.2.1,59.55546750873984,2024-11-28 15h38.36.151035 +0100,
33,150,180,21,None,15,15,0,,,,,,,,,,,,,,,,0,15,15,32,,,,,437.8706531,,,,,,,,,,,,,,,,,,,,,,,,,,,,,,,,,,,,,,,,,,,,,,,,,,,,,,,,437.86144593200015,437.8706531,438.0713869010001,438.0713869010001,438.0713869010001,439.77158094100014,439.77158094100014,439.7557879200001,,,,,,,,,,,,,,,,,,,,,,,,,392221,001,2024-11-28_15h38.25.666,Test,2024.2.1,59.55546750873984,2024-11-28 15h38.36.151035 +0100,
21,150,120,40,None,16,16,0,,,,,,,,,,,,,,,,0,16,16,20,,,,,439.77158094100014,,,,,,,,,,,,,,,,,,,,,,,,,,,,,,,,,,,,,,,,,,,,,,,,,,,,,,,,439.76169834000007,439.77158094100014,439.97241243100007,439.97241243100007,439.97241243100007,441.6747580230001,441.6747580230001,441.65655667500005,,,,,,,,,,,,,,,,,,,,,,,,,392221,001,2024-11-28_15h38.25.666,Test,2024.2.1,59.55546750873984,2024-11-28 15h38.36.151035 +0100,
34,150,180,7,None,17,17,0,,,,,,,,,,,,,,,,0,17,17,33,,,,,441.6747580230001,,,,,,,,,,,,,,,,,,,,,,,,,,,,,,,,,,,,,,,,,,,,,,,,,,,,,,,,441.6665836760001,441.6747580230001,441.8715022230001,441.8715022230001,441.888539671,443.575548433,443.575548433,443.5571678890001,,,,,,,,,,,,,,,,,,,,,,,,,392221,001,2024-11-28_15h38.25.666,Test,2024.2.1,59.55546750873984,2024-11-28 15h38.36.151035 +0100,
9,150,30,63,None,18,18,0,,,,,,,,,,,,,,,,0,18,18,8,,,,,443.575548433,,,,,,,,,,,,,,,,,,,,,,,,,,,,,,,,,,,,,,,,,,,,,,,,,,,,,,,,443.5669285440001,443.575548433,443.77188813600014,443.77188813600014,443.788852206,445.471500224,445.471500224,445.45556899200005,,,,,,,,,,,,,,,,,,,,,,,,,392221,001,2024-11-28_15h38.25.666,Test,2024.2.1,59.55546750873984,2024-11-28 15h38.36.151035 +0100,
19,150,90,31,None,19,19,0,,,,,,,,,,,,,,,,0,19,19,18,,,,,445.471500224,,,,,,,,,,,,,,,,,,,,,,,,,,,,,,,,,,,,,,,,,,,,,,,,,,,,,,,,445.46102445400015,445.471500224,445.671533359,445.671533359,445.671533359,447.3713267170001,447.3713267170001,447.3561113170001,,,,,,,,,,,,,,,,,,,,,,,,,392221,001,2024-11-28_15h38.25.666,Test,2024.2.1,59.55546750873984,2024-11-28 15h38.36.151035 +0100,
5,150,0,64,None,20,20,0,,,,,,,,,,,,,,,,0,20,20,4,,,,,447.3713267170001,,,,,,,,,,,,,,,,,,,,,,,,,,,,,,,,,,,,,,,,,,,,,,,,,,,,,,,,447.361855698,447.3713267170001,447.57283757100004,447.57283757100004,447.57283757100004,449.27189826200015,449.27189826200015,449.25589025499994,,,,,,,,,,,,,,,,,,,,,,,,,392221,001,2024-11-28_15h38.25.666,Test,2024.2.1,59.55546750873984,2024-11-28 15h38.36.151035 +0100,
4,150,0,69,None,21,21,0,,,,,,,,,,,,,,,,0,21,21,3,,,,,449.27189826200015,,,,,,,,,,,,,,,,,,,,,,,,,,,,,,,,,,,,,,,,,,,,,,,,,,,,,,,,449.261728574,449.27189826200015,449.47229351400006,449.47229351400006,449.47229351400006,451.17214298499994,451.17214298499994,451.15609638,,,,,,,,,,,,,,,,,,,,,,,,,392221,001,2024-11-28_15h38.25.666,Test,2024.2.1,59.55546750873984,2024-11-28 15h38.36.151035 +0100,
35,150,180,26,None,22,22,0,,,,,,,,,,,,,,,,0,22,22,34,,,,,451.17214298499994,,,,,,,,,,,,,,,,,,,,,,,,,,,,,,,,,,,,,,,,,,,,,,,,,,,,,,,,451.16180783799996,451.17214298499994,451.37313837600004,451.37313837600004,451.37313837600004,453.072481055,453.072481055,453.0563547050001,,,,,,,,,,,,,,,,,,,,,,,,,392221,001,2024-11-28_15h38.25.666,Test,2024.2.1,59.55546750873984,2024-11-28 15h38.36.151035 +0100,
29,150,150,27,None,23,23,0,,,,,,,,,,,,,,,,0,23,23,28,,,,,453.072481055,,,,,,,,,,,,,,,,,,,,,,,,,,,,,,,,,,,,,,,,,,,,,,,,,,,,,,,,453.062736568,453.072481055,453.27310964799995,453.27310964799995,453.27310964799995,454.971773989,454.971773989,454.95720213699997,,,,,,,,,,,,,,,,,,,,,,,,,392221,001,2024-11-28_15h38.25.666,Test,2024.2.1,59.55546750873984,2024-11-28 15h38.36.151035 +0100,
17,150,90,43,None,24,24,0,,,,,,,,,,,,,,,,0,24,24,16,,,,,454.971773989,,,,,,,,,,,,,,,,,,,,,,,,,,,,,,,,,,,,,,,,,,,,,,,,,,,,,,,,454.96335448000013,454.971773989,455.17351914799997,455.17351914799997,455.17351914799997,456.87315267500003,456.87315267500003,456.85700072300006,,,,,,,,,,,,,,,,,,,,,,,,,392221,001,2024-11-28_15h38.25.666,Test,2024.2.1,59.55546750873984,2024-11-28 15h38.36.151035 +0100,
20,150,90,20,None,25,25,0,,,,,,,,,,,,,,,,0,25,25,19,,,,,456.87315267500003,,,,,,,,,,,,,,,,,,,,,,,,,,,,,,,,,,,,,,,,,,,,,,,,,,,,,,,,456.8646955060001,456.87315267500003,457.07244996400004,457.07244996400004,457.07244996400004,458.7758610830001,458.7758610830001,458.75773686,,,,,,,,,,,,,,,,,,,,,,,,,392221,001,2024-11-28_15h38.25.666,Test,2024.2.1,59.55546750873984,2024-11-28 15h38.36.151035 +0100,
31,150,180,10,None,26,26,0,,,,,,,,,,,,,,,,0,26,26,30,,,,,458.7758610830001,,,,,,,,,,,,,,,,,,,,,,,,,,,,,,,,,,,,,,,,,,,,,,,,,,,,,,,,458.7677808830001,458.7758610830001,458.97274699800005,458.97274699800005,458.98941526500016,460.672747524,460.672747524,460.657231076,,,,,,,,,,,,,,,,,,,,,,,,,392221,001,2024-11-28_15h38.25.666,Test,2024.2.1,59.55546750873984,2024-11-28 15h38.36.151035 +0100,
8,150,30,29,None,27,27,0,,,,,,,,,,,,,,,,0,27,27,7,,,,,460.672747524,,,,,,,,,,,,,,,,,,,,,,,,,,,,,,,,,,,,,,,,,,,,,,,,,,,,,,,,460.6634477760001,460.672747524,460.8727029040001,460.8727029040001,460.8727029040001,462.57627204799996,462.57627204799996,462.55809832499995,,,,,,,,,,,,,,,,,,,,,,,,,392221,001,2024-11-28_15h38.25.666,Test,2024.2.1,59.55546750873984,2024-11-28 15h38.36.151035 +0100,
15,150,60,44,None,28,28,0,,,,,,,,,,,,,,,,0,28,28,14,,,,,462.57627204799996,,,,,,,,,,,,,,,,,,,,,,,,,,,,,,,,,,,,,,,,,,,,,,,,,,,,,,,,462.56802277299994,462.57627204799996,462.7735802750001,462.7735802750001,462.78979541800004,464.4724589320001,464.4724589320001,464.45691598200006,,,,,,,,,,,,,,,,,,,,,,,,,392221,001,2024-11-28_15h38.25.666,Test,2024.2.1,59.55546750873984,2024-11-28 15h38.36.151035 +0100,
32,150,180,13,None,29,29,0,,,,,,,,,,,,,,,,0,29,29,31,,,,,464.4724589320001,,,,,,,,,,,,,,,,,,,,,,,,,,,,,,,,,,,,,,,,,,,,,,,,,,,,,,,,464.46282188300006,464.4724589320001,464.67395272600015,464.67395272600015,464.67395272600015,466.373409671,466.373409671,466.357413232,,,,,,,,,,,,,,,,,,,,,,,,,392221,001,2024-11-28_15h38.25.666,Test,2024.2.1,59.55546750873984,2024-11-28 15h38.36.151035 +0100,
2,150,0,22,None,30,30,0,,,,,,,,,,,,,,,,0,30,30,1,,,,,466.373409671,,,,,,,,,,,,,,,,,,,,,,,,,,,,,,,,,,,,,,,,,,,,,,,,,,,,,,,,466.36331207600006,466.373409671,466.57328508599994,466.57328508599994,466.57328508599994,468.27701699,468.27701699,468.25850762999994,,,,,,,,,,,,,,,,,,,,,,,,,392221,001,2024-11-28_15h38.25.666,Test,2024.2.1,59.55546750873984,2024-11-28 15h38.36.151035 +0100,
30,150,150,14,None,31,31,0,,,,,,,,,,,,,,,,0,31,31,29,,,,,468.27701699,,,,,,,,,,,,,,,,,,,,,,,,,,,,,,,,,,,,,,,,,,,,,,,,,,,,,,,,468.26851904800014,468.27701699,468.4733893320001,468.4733893320001,468.4902378930001,470.1730778190001,470.1730778190001,470.15771266599995,,,,,,,,,,,,,,,,,,,,,,,,,392221,001,2024-11-28_15h38.25.666,Test,2024.2.1,59.55546750873984,2024-11-28 15h38.36.151035 +0100,
12,150,60,5,None,32,32,0,,,,,,,,,,,,,,,,0,32,32,11,,,,,470.1730778190001,,,,,,,,,,,,,,,,,,,,,,,,,,,,,,,,,,,,,,,,,,,,,,,,,,,,,,,,470.163387154,470.1730778190001,470.37394836299995,470.37394836299995,470.37394836299995,472.07361680300005,472.07361680300005,472.057524135,,,,,,,,,,,,,,,,,,,,,,,,,392221,001,2024-11-28_15h38.25.666,Test,2024.2.1,59.55546750873984,2024-11-28 15h38.36.151035 +0100,
25,150,120,38,None,33,33,0,,,,,,,,,,,,,,,,0,33,33,24,,,,,472.07361680300005,,,,,,,,,,,,,,,,,,,,,,,,,,,,,,,,,,,,,,,,,,,,,,,,,,,,,,,,472.0634553310001,472.07361680300005,472.2733909200001,472.2733909200001,472.2733909200001,473.9772294700001,473.9772294700001,473.959188607,,,,,,,,,,,,,,,,,,,,,,,,,392221,001,2024-11-28_15h38.25.666,Test,2024.2.1,59.55546750873984,2024-11-28 15h38.36.151035 +0100,
26,150,150,9,None,34,34,0,,,,,,,,,,,,,,,,0,34,34,25,,,,,473.9772294700001,,,,,,,,,,,,,,,,,,,,,,,,,,,,,,,,,,,,,,,,,,,,,,,,,,,,,,,,473.9688278640001,473.9772294700001,474.1736436200001,474.1736436200001,474.1902266710001,475.87404067500006,475.87404067500006,475.85783764100006,,,,,,,,,,,,,,,,,,,,,,,,,392221,001,2024-11-28_15h38.25.666,Test,2024.2.1,59.55546750873984,2024-11-28 15h38.36.151035 +0100,
,,,,,,,,,,,,,,,,,,,,,,,,,,,,,,,,,,,,,,,,,,,,,,,,,,,,,,,,,,,,,,,,,,,,,,,,,,,,,,,,,,,,,,,,,,,,,,,475.85798649599997,475.87404067500006,475.87404067500006,482.30888282599994,space,6.420747797000104,None,,,,,,,,,,,,,,,,,,392221,001,2024-11-28_15h38.25.666,Test,2024.2.1,59.55546750873984,2024-11-28 15h38.36.151035 +0100,
34,150,180,7,None,0,0,0,False,,,,left,0.9425753479999912,None,,,,,,,,,,,,,0,0,0,0,482.330942179,,,,,,,,,,,,,,,,,,,,,,,,,,,,,,,,,,,,,,,,,,,,,,,,,,,,,,,,,,,,,,,,,,,,,,,482.32170776700013,482.330942179,483.341052151,484.308715633,484.308715633,484.308715633,485.25891372900014,left,0.9425753479999912,None,,,,,,,,392221,001,2024-11-28_15h38.25.666,Test,2024.2.1,59.55546750873984,2024-11-28 15h38.36.151035 +0100,
11,150,60,48,None,1,1,0,False,,,,right,0.7738580069999443,None,,,,,,,,,,,,,0,1,1,1,485.27477954000005,,,,,,,,,,,,,,,,,,,,,,,,,,,,,,,,,,,,,,,,,,,,,,,,,,,,,,,,,,,,,,,,,,,,,,,485.26238671500005,485.27477954000005,486.275779696,487.2748326820001,487.2748326820001,487.2748326820001,488.061849102,right,0.7738580069999443,None,,,,,,,,392221,001,2024-11-28_15h38.25.666,Test,2024.2.1,59.55546750873984,2024-11-28 15h38.36.151035 +0100,
3,150,0,66,None,2,2,0,False,,,,right,0.6878373919998921,None,,,,,,,,,,,,,0,2,2,2,488.07804964499996,,,,,,,,,,,,,,,,,,,,,,,,,,,,,,,,,,,,,,,,,,,,,,,,,,,,,,,,,,,,,,,,,,,,,,,488.0682764610001,488.07804964499996,489.09224046400004,490.0760555690001,490.0760555690001,490.0760555690001,490.7766765250001,right,0.6878373919998921,None,,,,,,,,392221,001,2024-11-28_15h38.25.666,Test,2024.2.1,59.55546750873984,2024-11-28 15h38.36.151035 +0100,
46,150,60,25,None,3,3,0,True,,,,right,0.7627480969999851,None,,,,,,,,,,,,,0,3,3,3,490.79143888800013,,,,,,,,,,,,,,,,,,,,,,,,,,,,,,,,,,,,,,,,,,,,,,,,,,,,,,,,,,,,,,,,,,,,,,,490.7824696350001,490.79143888800013,491.7912479060001,492.77622759400015,492.77622759400015,492.77622759400015,493.54393867,right,0.7627480969999851,None,,,,,,,,392221,001,2024-11-28_15h38.25.666,Test,2024.2.1,59.55546750873984,2024-11-28 15h38.36.151035 +0100,
58,150,120,30,None,4,4,0,True,,,,left,1.0862363660000938,None,,,,,,,,,,,,,0,4,4,4,493.55892487000006,,,,,,,,,,,,,,,,,,,,,,,,,,,,,,,,,,,,,,,,,,,,,,,,,,,,,,,,,,,,,,,,,,,,,,,493.55012526099995,493.55892487000006,494.55904234000013,495.55880374799995,495.55880374799995,495.55880374799995,496.66064515100015,left,1.0862363660000938,None,,,,,,,,392221,001,2024-11-28_15h38.25.666,Test,2024.2.1,59.55546750873984,2024-11-28 15h38.36.151035 +0100,
67,150,180,3,None,5,5,0,True,,,,left,0.9835225540000465,None,,,,,,,,,,,,,0,5,5,5,496.67537347999996,,,,,,,,,,,,,,,,,,,,,,,,,,,,,,,,,,,,,,,,,,,,,,,,,,,,,,,,,,,,,,,,,,,,,,,496.66667712000003,496.67537347999996,497.6767169720001,498.67623603200013,498.67623603200013,498.67623603200013,499.66250891000004,left,0.9835225540000465,None,,,,,,,,392221,001,2024-11-28_15h38.25.666,Test,2024.2.1,59.55546750873984,2024-11-28 15h38.36.151035 +0100,
53,150,90,55,None,6,6,0,True,,,,left,0.7848212270000658,None,,,,,,,,,,,,,0,6,6,6,499.678460417,,,,,,,,,,,,,,,,,,,,,,,,,,,,,,,,,,,,,,,,,,,,,,,,,,,,,,,,,,,,,,,,,,,,,,,499.6690202970001,499.678460417,500.6922209040001,501.6766869610001,501.6766869610001,501.6766869610001,502.47680134100005,left,0.7848212270000658,None,,,,,,,,392221,001,2024-11-28_15h38.25.666,Test,2024.2.1,59.55546750873984,2024-11-28 15h38.36.151035 +0100,
35,150,180,26,None,7,7,0,False,,,,right,1.069212539999853,None,,,,,,,,,,,,,0,7,7,7,502.49200056200016,,,,,,,,,,,,,,,,,,,,,,,,,,,,,,,,,,,,,,,,,,,,,,,,,,,,,,,,,,,,,,,,,,,,,,,502.480522004,502.49200056200016,503.49350587799995,504.4759033370001,504.4759033370001,504.4759033370001,505.560710255,right,1.069212539999853,None,,,,,,,,392221,001,2024-11-28_15h38.25.666,Test,2024.2.1,59.55546750873984,2024-11-28 15h38.36.151035 +0100,
59,150,120,33,None,8,8,0,True,,,,right,0.7412881769998876,None,,,,,,,,,,,,,0,8,8,8,505.57562880499995,,,,,,,,,,,,,,,,,,,,,,,,,,,,,,,,,,,,,,,,,,,,,,,,,,,,,,,,,,,,,,,,,,,,,,,505.56610335100004,505.57562880499995,506.576702543,507.576050077,507.576050077,507.576050077,508.32755333800014,right,0.7412881769998876,None,,,,,,,,392221,001,2024-11-28_15h38.25.666,Test,2024.2.1,59.55546750873984,2024-11-28 15h38.36.151035 +0100,
41,150,30,39,None,9,9,0,True,,,,right,0.8209855410000273,None,,,,,,,,,,,,,0,9,9,9,508.3428763070001,,,,,,,,,,,,,,,,,,,,,,,,,,,,,,,,,,,,,,,,,,,,,,,,,,,,,,,,,,,,,,,,,,,,,,,508.333714248,508.3428763070001,509.34398201299996,510.3271930000001,510.3271930000001,510.3271930000001,511.1617466760001,right,0.8209855410000273,None,,,,,,,,392221,001,2024-11-28_15h38.25.666,Test,2024.2.1,59.55546750873984,2024-11-28 15h38.36.151035 +0100,
33,150,180,21,None,10,10,0,False,,,,left,0.8832516359998408,None,,,,,,,,,,,,,0,10,10,10,511.1758305380001,,,,,,,,,,,,,,,,,,,,,,,,,,,,,,,,,,,,,,,,,,,,,,,,,,,,,,,,,,,,,,,,,,,,,,,511.1653850370001,511.1758305380001,512.177016931,513.1775488650001,513.1775488650001,513.1775488650001,514.0773714110001,left,0.8832516359998408,None,,,,,,,,392221,001,2024-11-28_15h38.25.666,Test,2024.2.1,59.55546750873984,2024-11-28 15h38.36.151035 +0100,
20,150,90,20,None,11,11,0,False,,,,left,0.8218254429998524,None,,,,,,,,,,,,,0,11,11,11,514.093448698,,,,,,,,,,,,,,,,,,,,,,,,,,,,,,,,,,,,,,,,,,,,,,,,,,,,,,,,,,,,,,,,,,,,,,,514.0807446260001,514.093448698,515.0940719589998,516.0775819129999,516.0775819129999,516.0775819129999,516.9111941619999,left,0.8218254429998524,None,,,,,,,,392221,001,2024-11-28_15h38.25.666,Test,2024.2.1,59.55546750873984,2024-11-28 15h38.36.151035 +0100,
12,150,60,5,None,12,12,0,False,,,,right,0.8300971270000446,None,,,,,,,,,,,,,0,12,12,12,516.9269465000002,,,,,,,,,,,,,,,,,,,,,,,,,,,,,,,,,,,,,,,,,,,,,,,,,,,,,,,,,,,,,,,,,,,,,,,516.914697526,516.9269465000002,517.9267528720002,518.9111160269999,518.9111160269999,518.9111160269999,519.7453333910003,right,0.8300971270000446,None,,,,,,,,392221,001,2024-11-28_15h38.25.666,Test,2024.2.1,59.55546750873984,2024-11-28 15h38.36.151035 +0100,
2,150,0,22,None,13,13,0,False,,,,right,0.7217462210001031,None,,,,,,,,,,,,,0,13,13,13,519.7599773669999,,,,,,,,,,,,,,,,,,,,,,,,,,,,,,,,,,,,,,,,,,,,,,,,,,,,,,,,,,,,,,,,,,,,,,,519.749105593,519.7599773669999,520.7611194679998,521.744807989,521.744807989,521.744807989,522.4792179750002,right,0.7217462210001031,None,,,,,,,,392221,001,2024-11-28_15h38.25.666,Test,2024.2.1,59.55546750873984,2024-11-28 15h38.36.151035 +0100,
65,150,150,8,None,14,14,0,True,,,,right,0.8456134219995874,None,,,,,,,,,,,,,0,14,14,14,522.4958718550001,,,,,,,,,,,,,,,,,,,,,,,,,,,,,,,,,,,,,,,,,,,,,,,,,,,,,,,,,,,,,,,,,,,,,,,522.4868246800002,522.4958718550001,523.5103297589999,524.4935963100002,524.4935963100002,524.4935963100002,525.3455903630002,right,0.8456134219995874,None,,,,,,,,392221,001,2024-11-28_15h38.25.666,Test,2024.2.1,59.55546750873984,2024-11-28 15h38.36.151035 +0100,
64,150,150,34,None,15,15,0,True,,,,right,1.0527119889998175,None,,,,,,,,,,,,,0,15,15,15,525.361345199,,,,,,,,,,,,,,,,,,,,,,,,,,,,,,,,,,,,,,,,,,,,,,,,,,,,,,,,,,,,,,,,,,,,,,,525.3527216080001,525.361345199,526.360551149,527.3449427119999,527.3449427119999,527.3449427119999,528.4122222199999,right,1.0527119889998175,None,,,,,,,,392221,001,2024-11-28_15h38.25.666,Test,2024.2.1,59.55546750873984,2024-11-28 15h38.36.151035 +0100,
70,150,180,42,None,16,16,0,True,,,,left,0.7655238709999139,None,,,,,,,,,,,,,0,16,16,16,528.4280455060002,,,,,,,,,,,,,,,,,,,,,,,,,,,,,,,,,,,,,,,,,,,,,,,,,,,,,,,,,,,,,,,,,,,,,,,528.4182521150001,528.4280455060002,529.4284048630002,530.4117148360001,530.4117148360001,530.4117148360001,531.180364674,left,0.7655238709999139,None,,,,,,,,392221,001,2024-11-28_15h38.25.666,Test,2024.2.1,59.55546750873984,2024-11-28 15h38.36.151035 +0100,
57,150,120,32,None,17,17,0,True,,,,right,0.8062172880004255,None,,,,,,,,,,,,,0,17,17,17,531.1946272519999,,,,,,,,,,,,,,,,,,,,,,,,,,,,,,,,,,,,,,,,,,,,,,,,,,,,,,,,,,,,,,,,,,,,,,,531.1860086860002,531.1946272519999,532.1952494030002,533.195210937,533.195210937,533.195210937,534.012756696,right,0.8062172880004255,None,,,,,,,,392221,001,2024-11-28_15h38.25.666,Test,2024.2.1,59.55546750873984,2024-11-28 15h38.36.151035 +0100,
22,150,120,68,None,18,18,0,False,,,,right,1.1396557060002124,None,,,,,,,,,,,,,0,18,18,18,534.0273319110001,,,,,,,,,,,,,,,,,,,,,,,,,,,,,,,,,,,,,,,,,,,,,,,,,,,,,,,,,,,,,,,,,,,,,,,534.0162595940001,534.0273319110001,535.0289588240003,536.0279055599999,536.0279055599999,536.0279055599999,537.179499806,right,1.1396557060002124,None,,,,,,,,392221,001,2024-11-28_15h38.25.666,Test,2024.2.1,59.55546750873984,2024-11-28 15h38.36.151035 +0100,
7,150,30,28,None,19,19,0,False,,,,right,0.6354809579997891,None,,,,,,,,,,,,,0,19,19,19,537.1950253360001,,,,,,,,,,,,,,,,,,,,,,,,,,,,,,,,,,,,,,,,,,,,,,,,,,,,,,,,,,,,,,,,,,,,,,,537.1832138909999,537.1950253360001,538.1947648810001,539.1790604550001,539.1790604550001,539.1790604550001,539.8296647930001,right,0.6354809579997891,None,,,,,,,,392221,001,2024-11-28_15h38.25.666,Test,2024.2.1,59.55546750873984,2024-11-28 15h38.36.151035 +0100,
68,150,180,45,None,20,20,0,True,,,,left,1.011966861000019,None,,,,,,,,,,,,,0,20,20,20,539.84532249,,,,,,,,,,,,,,,,,,,,,,,,,,,,,,,,,,,,,,,,,,,,,,,,,,,,,,,,,,,,,,,,,,,,,,,539.8366712940001,539.84532249,540.8457916739999,541.8447497319999,541.8447497319999,541.8447497319999,542.863618118,left,1.011966861000019,None,,,,,,,,392221,001,2024-11-28_15h38.25.666,Test,2024.2.1,59.55546750873984,2024-11-28 15h38.36.151035 +0100,
19,150,90,31,None,21,21,0,False,,,,right,0.8064477249999982,None,,,,,,,,,,,,,0,21,21,21,542.8779441750003,,,,,,,,,,,,,,,,,,,,,,,,,,,,,,,,,,,,,,,,,,,,,,,,,,,,,,,,,,,,,,,,,,,,,,,542.8676527910002,542.8779441750003,543.8798378649999,544.8784674180001,544.8784674180001,544.8784674180001,545.6970874399999,right,0.8064477249999982,None,,,,,,,,392221,001,2024-11-28_15h38.25.666,Test,2024.2.1,59.55546750873984,2024-11-28 15h38.36.151035 +0100,
43,150,30,18,None,22,22,0,True,,,,left,0.9400310890000583,None,,,,,,,,,,,,,0,22,22,22,545.7125747280002,,,,,,,,,,,,,,,,,,,,,,,,,,,,,,,,,,,,,,,,,,,,,,,,,,,,,,,,,,,,,,,,,,,,,,,545.7039163600002,545.7125747280002,546.7133700059999,547.7122939730002,547.7122939730002,547.7122939730002,548.6643788259998,left,0.9400310890000583,None,,,,,,,,392221,001,2024-11-28_15h38.25.666,Test,2024.2.1,59.55546750873984,2024-11-28 15h38.36.151035 +0100,
60,150,120,2,None,23,23,0,True,,,,right,0.8007662789996175,None,,,,,,,,,,,,,0,23,23,23,548.680960483,,,,,,,,,,,,,,,,,,,,,,,,,,,,,,,,,,,,,,,,,,,,,,,,,,,,,,,,,,,,,,,,,,,,,,,548.67187113,548.680960483,549.6802690690001,550.679705557,550.679705557,550.679705557,551.4843740790002,right,0.8007662789996175,None,,,,,,,,392221,001,2024-11-28_15h38.25.666,Test,2024.2.1,59.55546750873984,2024-11-28 15h38.36.151035 +0100,
44,150,30,70,None,24,24,0,True,,,,right,1.2112060099998416,None,,,,,,,,,,,,,0,24,24,24,551.501526819,,,,,,,,,,,,,,,,,,,,,,,,,,,,,,,,,,,,,,,,,,,,,,,,,,,,,,,,,,,,,,,,,,,,,,,551.493447324,551.501526819,552.5130238490001,553.4960513360002,553.4960513360002,553.4960513360002,554.71416051,right,1.2112060099998416,None,,,,,,,,392221,001,2024-11-28_15h38.25.666,Test,2024.2.1,59.55546750873984,2024-11-28 15h38.36.151035 +0100,
4,150,0,69,None,25,25,0,False,,,,right,0.806182015000104,None,,,,,,,,,,,,,0,25,25,25,554.7290193510003,,,,,,,,,,,,,,,,,,,,,,,,,,,,,,,,,,,,,,,,,,,,,,,,,,,,,,,,,,,,,,,,,,,,,,,554.717795093,554.7290193510003,555.7293226719999,556.7303500560001,556.7303500560001,556.7303500560001,557.5474585219999,right,0.806182015000104,None,,,,,,,,392221,001,2024-11-28_15h38.25.666,Test,2024.2.1,59.55546750873984,2024-11-28 15h38.36.151035 +0100,
1,150,0,59,None,26,26,0,False,,,,right,0.7527560199996515,None,,,,,,,,,,,,,0,26,26,26,557.562844002,,,,,,,,,,,,,,,,,,,,,,,,,,,,,,,,,,,,,,,,,,,,,,,,,,,,,,,,,,,,,,,,,,,,,,,557.5511947979999,557.562844002,558.5630579039998,559.5471884060003,559.5471884060003,559.5471884060003,560.3147597329998,right,0.7527560199996515,None,,,,,,,,392221,001,2024-11-28_15h38.25.666,Test,2024.2.1,59.55546750873984,2024-11-28 15h38.36.151035 +0100,
29,150,150,27,None,27,27,0,False,,,,right,1.1228044709996539,None,,,,,,,,,,,,,0,27,27,27,560.329951578,,,,,,,,,,,,,,,,,,,,,,,,,,,,,,,,,,,,,,,,,,,,,,,,,,,,,,,,,,,,,,,,,,,,,,,560.3185301520002,560.329951578,561.3306920610003,562.3302854050003,562.3302854050003,562.3302854050003,563.4649655030003,right,1.1228044709996539,None,,,,,,,,392221,001,2024-11-28_15h38.25.666,Test,2024.2.1,59.55546750873984,2024-11-28 15h38.36.151035 +0100,
16,150,90,4,None,28,28,0,False,,,,right,0.9695048469998255,None,,,,,,,,,,,,,0,28,28,28,563.4800965560003,,,,,,,,,,,,,,,,,,,,,,,,,,,,,,,,,,,,,,,,,,,,,,,,,,,,,,,,,,,,,,,,,,,,,,,563.4688781250002,563.4800965560003,564.4807319669999,565.4795453450001,565.4795453450001,565.4795453450001,566.4642908360001,right,0.9695048469998255,None,,,,,,,,392221,001,2024-11-28_15h38.25.666,Test,2024.2.1,59.55546750873984,2024-11-28 15h38.36.151035 +0100,
69,150,180,58,None,29,29,0,True,,,,left,0.8531140299996878,None,,,,,,,,,,,,,0,29,29,29,566.4795540370001,,,,,,,,,,,,,,,,,,,,,,,,,,,,,,,,,,,,,,,,,,,,,,,,,,,,,,,,,,,,,,,,,,,,,,,566.4701516760001,566.4795540370001,567.480028038,568.4634081630002,568.4634081630002,568.4634081630002,569.3320828350002,left,0.8531140299996878,None,,,,,,,,392221,001,2024-11-28_15h38.25.666,Test,2024.2.1,59.55546750873984,2024-11-28 15h38.36.151035 +0100,
30,150,150,14,None,30,30,0,False,,,,right,1.0726039279998076,None,,,,,,,,,,,,,0,30,30,30,569.3466719040002,,,,,,,,,,,,,,,,,,,,,,,,,,,,,,,,,,,,,,,,,,,,,,,,,,,,,,,,,,,,,,,,,,,,,,,569.3355891000001,569.3466719040002,570.3468572000002,571.3470783739999,571.3470783739999,571.3470783739999,572.4319603919998,right,1.0726039279998076,None,,,,,,,,392221,001,2024-11-28_15h38.25.666,Test,2024.2.1,59.55546750873984,2024-11-28 15h38.36.151035 +0100,
24,150,120,53,None,31,31,0,False,,,,left,0.9358514079999622,None,,,,,,,,,,,,,0,31,31,31,572.4465343709999,,,,,,,,,,,,,,,,,,,,,,,,,,,,,,,,,,,,,,,,,,,,,,,,,,,,,,,,,,,,,,,,,,,,,,,572.436278353,572.4465343709999,573.4471057189999,574.44695568,574.44695568,574.44695568,575.4001181170001,left,0.9358514079999622,None,,,,,,,,392221,001,2024-11-28_15h38.25.666,Test,2024.2.1,59.55546750873984,2024-11-28 15h38.36.151035 +0100,
15,150,60,44,None,32,32,0,False,,,,right,1.8986715500000173,None,,,,,,,,,,,,,0,32,32,32,575.415728896,,,,,,,,,,,,,,,,,,,,,,,,,,,,,,,,,,,,,,,,,,,,,,,,,,,,,,,,,,,,,,,,,,,,,,,575.405126607,575.415728896,576.4148807330002,577.4140765800003,577.4140765800003,577.4140765800003,579.3165880310003,right,1.8986715500000173,None,,,,,,,,392221,001,2024-11-28_15h38.25.666,Test,2024.2.1,59.55546750873984,2024-11-28 15h38.36.151035 +0100,
38,150,0,62,None,33,33,0,True,,,,right,1.1809267909998198,None,,,,,,,,,,,,,0,33,33,33,579.3352011400002,,,,,,,,,,,,,,,,,,,,,,,,,,,,,,,,,,,,,,,,,,,,,,,,,,,,,,,,,,,,,,,,,,,,,,,579.325068182,579.3352011400002,580.347652853,581.331053416,581.331053416,581.331053416,582.5180920110001,right,1.1809267909998198,None,,,,,,,,392221,001,2024-11-28_15h38.25.666,Test,2024.2.1,59.55546750873984,2024-11-28 15h38.36.151035 +0100,
39,150,0,37,None,34,34,0,True,,,,left,1.0518068989999847,None,,,,,,,,,,,,,0,34,34,34,582.5339751820002,,,,,,,,,,,,,,,,,,,,,,,,,,,,,,,,,,,,,,,,,,,,,,,,,,,,,,,,,,,,,,,,,,,,,,,582.5251236660001,582.5339751820002,583.549133854,584.532048691,584.532048691,584.532048691,585.6003985530001,left,1.0518068989999847,None,,,,,,,,392221,001,2024-11-28_15h38.25.666,Test,2024.2.1,59.55546750873984,2024-11-28 15h38.36.151035 +0100,
52,150,90,6,None,35,35,0,True,,,,right,0.8539408780002304,None,,,,,,,,,,,,,0,35,35,35,585.6151713180002,,,,,,,,,,,,,,,,,,,,,,,,,,,,,,,,,,,,,,,,,,,,,,,,,,,,,,,,,,,,,,,,,,,,,,,585.6051906819998,585.6151713180002,586.6150675889999,587.6150234390002,587.6150234390002,587.6150234390002,588.4836720100002,right,0.8539408780002304,None,,,,,,,,392221,001,2024-11-28_15h38.25.666,Test,2024.2.1,59.55546750873984,2024-11-28 15h38.36.151035 +0100,
25,150,120,38,None,36,36,0,False,,,,right,1.311426606999703,None,,,,,,,,,,,,,0,36,36,36,588.4988906869999,,,,,,,,,,,,,,,,,,,,,,,,,,,,,,,,,,,,,,,,,,,,,,,,,,,,,,,,,,,,,,,,,,,,,,,588.4903502319999,588.4988906869999,589.4989361759999,590.4991563570002,590.4991563570002,590.4991563570002,591.819207174,right,1.311426606999703,None,,,,,,,,392221,001,2024-11-28_15h38.25.666,Test,2024.2.1,59.55546750873984,2024-11-28 15h38.36.151035 +0100,
61,150,150,52,None,37,37,0,True,,,,right,1.289109536000069,None,,,,,,,,,,,,,0,37,37,37,591.8363263290003,,,,,,,,,,,,,,,,,,,,,,,,,,,,,,,,,,,,,,,,,,,,,,,,,,,,,,,,,,,,,,,,,,,,,,,591.827288251,591.8363263290003,592.8495666140002,593.8319359749999,593.8319359749999,593.8319359749999,595.134239769,right,1.289109536000069,None,,,,,,,,392221,001,2024-11-28_15h38.25.666,Test,2024.2.1,59.55546750873984,2024-11-28 15h38.36.151035 +0100,
18,150,90,41,None,38,38,0,False,,,,right,0.9183021469998494,None,,,,,,,,,,,,,0,38,38,38,595.1498971199999,,,,,,,,,,,,,,,,,,,,,,,,,,,,,,,,,,,,,,,,,,,,,,,,,,,,,,,,,,,,,,,,,,,,,,,595.1405292150002,595.1498971199999,596.148781635,597.1494185010001,597.1494185010001,597.1494185010001,598.0710739280003,right,0.9183021469998494,None,,,,,,,,392221,001,2024-11-28_15h38.25.666,Test,2024.2.1,59.55546750873984,2024-11-28 15h38.36.151035 +0100,
54,150,90,12,None,39,39,0,True,,,,left,1.1954919200002223,None,,,,,,,,,,,,,0,39,39,39,598.0866005930002,,,,,,,,,,,,,,,,,,,,,,,,,,,,,,,,,,,,,,,,,,,,,,,,,,,,,,,,,,,,,,,,,,,,,,,598.078215603,598.0866005930002,599.100061227,600.0824577580001,600.0824577580001,600.0824577580001,601.284349435,left,1.1954919200002223,None,,,,,,,,392221,001,2024-11-28_15h38.25.666,Test,2024.2.1,59.55546750873984,2024-11-28 15h38.36.151035 +0100,
23,150,120,54,None,40,40,0,False,,,,right,1.033695971999805,None,,,,,,,,,,,,,0,40,40,40,601.299766051,,,,,,,,,,,,,,,,,,,,,,,,,,,,,,,,,,,,,,,,,,,,,,,,,,,,,,,,,,,,,,,,,,,,,,,601.2899827780002,601.299766051,602.2988141690003,603.299924334,603.299924334,603.299924334,604.3514167980002,right,1.033695971999805,None,,,,,,,,392221,001,2024-11-28_15h38.25.666,Test,2024.2.1,59.55546750873984,2024-11-28 15h38.36.151035 +0100,
6,150,30,1,None,41,41,0,False,,,,left,1.3543002050000723,None,,,,,,,,,,,,,0,41,41,41,604.3655919389998,,,,,,,,,,,,,,,,,,,,,,,,,,,,,,,,,,,,,,,,,,,,,,,,,,,,,,,,,,,,,,,,,,,,,,,604.3573229550002,604.3655919389998,605.3669364749999,606.350497459,606.350497459,606.350497459,607.7183257770002,left,1.3543002050000723,None,,,,,,,,392221,001,2024-11-28_15h38.25.666,Test,2024.2.1,59.55546750873984,2024-11-28 15h38.36.151035 +0100,
66,150,180,51,None,42,42,0,True,,,,right,1.1215564109998013,None,,,,,,,,,,,,,0,42,42,42,607.733996292,,,,,,,,,,,,,,,,,,,,,,,,,,,,,,,,,,,,,,,,,,,,,,,,,,,,,,,,,,,,,,,,,,,,,,,607.7247948270001,607.733996292,608.7336307290002,609.7335669909999,609.7335669909999,609.7335669909999,610.868693339,right,1.1215564109998013,None,,,,,,,,392221,001,2024-11-28_15h38.25.666,Test,2024.2.1,59.55546750873984,2024-11-28 15h38.36.151035 +0100,
40,150,0,24,None,43,43,0,True,,,,right,0.8224581170002239,None,,,,,,,,,,,,,0,43,43,43,610.884328227,,,,,,,,,,,,,,,,,,,,,,,,,,,,,,,,,,,,,,,,,,,,,,,,,,,,,,,,,,,,,,,,,,,,,,,610.8749944599999,610.884328227,611.8832930140002,612.883911247,612.883911247,612.883911247,613.718247061,right,0.8224581170002239,None,,,,,,,,392221,001,2024-11-28_15h38.25.666,Test,2024.2.1,59.55546750873984,2024-11-28 15h38.36.151035 +0100,
21,150,120,40,None,44,44,0,False,,,,right,0.8001134650003223,None,,,,,,,,,,,,,0,44,44,44,613.7332158130002,,,,,,,,,,,,,,,,,,,,,,,,,,,,,,,,,,,,,,,,,,,,,,,,,,,,,,,,,,,,,,,,,,,,,,,613.7241743969998,613.7332158130002,614.7342243070002,615.7338190320002,615.7338190320002,615.7338190320002,616.5362131790002,right,0.8001134650003223,None,,,,,,,,392221,001,2024-11-28_15h38.25.666,Test,2024.2.1,59.55546750873984,2024-11-28 15h38.36.151035 +0100,
5,150,0,64,None,45,45,0,False,,,,right,0.8467396180003561,None,,,,,,,,,,,,,0,45,45,45,616.5522537380002,,,,,,,,,,,,,,,,,,,,,,,,,,,,,,,,,,,,,,,,,,,,,,,,,,,,,,,,,,,,,,,,,,,,,,,616.542887785,616.5522537380002,617.5677249609998,618.5507820150001,618.5507820150001,618.5507820150001,619.4025117649999,right,0.8467396180003561,None,,,,,,,,392221,001,2024-11-28_15h38.25.666,Test,2024.2.1,59.55546750873984,2024-11-28 15h38.36.151035 +0100,
51,150,90,65,None,46,46,0,True,,,,right,0.8238329089999752,None,,,,,,,,,,,,,0,46,46,46,619.4176789630001,,,,,,,,,,,,,,,,,,,,,,,,,,,,,,,,,,,,,,,,,,,,,,,,,,,,,,,,,,,,,,,,,,,,,,,619.408665939,619.4176789630001,620.4184084399999,621.4173289830001,621.4173289830001,621.4173289830001,622.252299536,right,0.8238329089999752,None,,,,,,,,392221,001,2024-11-28_15h38.25.666,Test,2024.2.1,59.55546750873984,2024-11-28 15h38.36.151035 +0100,
62,150,150,15,None,47,47,0,True,,,,right,1.222913626999798,None,,,,,,,,,,,,,0,47,47,47,622.2688971590001,,,,,,,,,,,,,,,,,,,,,,,,,,,,,,,,,,,,,,,,,,,,,,,,,,,,,,,,,,,,,,,,,,,,,,,622.2598124430001,622.2688971590001,623.2674177029999,624.25200378,624.25200378,624.25200378,625.4861283820001,right,1.222913626999798,None,,,,,,,,392221,001,2024-11-28_15h38.25.666,Test,2024.2.1,59.55546750873984,2024-11-28 15h38.36.151035 +0100,
32,150,180,13,None,48,48,0,False,,,,right,0.9204565529998945,None,,,,,,,,,,,,,0,48,48,48,625.5008648510002,,,,,,,,,,,,,,,,,,,,,,,,,,,,,,,,,,,,,,,,,,,,,,,,,,,,,,,,,,,,,,,,,,,,,,,625.4920903709999,625.5008648510002,626.5013934970002,627.5014990660002,627.5014990660002,627.5014990660002,628.4364611149999,right,0.9204565529998945,None,,,,,,,,392221,001,2024-11-28_15h38.25.666,Test,2024.2.1,59.55546750873984,2024-11-28 15h38.36.151035 +0100,
10,150,30,17,None,49,49,0,False,,,,right,0.9537474490002751,None,,,,,,,,,,,,,0,49,49,49,628.4509873420002,,,,,,,,,,,,,,,,,,,,,,,,,,,,,,,,,,,,,,,,,,,,,,,,,,,,,,,,,,,,,,,,,,,,,,,628.4415594400002,628.4509873420002,629.4510947399999,630.4354682389999,630.4354682389999,630.4354682389999,631.4030070379999,right,0.9537474490002751,None,,,,,,,,392221,001,2024-11-28_15h38.25.666,Test,2024.2.1,59.55546750873984,2024-11-28 15h38.36.151035 +0100,
42,150,30,57,None,50,50,0,True,,,,left,1.1021308730000783,None,,,,,,,,,,,,,0,50,50,50,631.4185438079999,,,,,,,,,,,,,,,,,,,,,,,,,,,,,,,,,,,,,,,,,,,,,,,,,,,,,,,,,,,,,,,,,,,,,,,631.409095775,631.4185438079999,632.418690387,633.4021984589999,633.4021984589999,633.4021984589999,634.52056296,left,1.1021308730000783,None,,,,,,,,392221,001,2024-11-28_15h38.25.666,Test,2024.2.1,59.55546750873984,2024-11-28 15h38.36.151035 +0100,
45,150,30,61,None,51,51,0,True,,,,left,0.9803687670000727,None,,,,,,,,,,,,,0,51,51,51,634.5360089280002,,,,,,,,,,,,,,,,,,,,,,,,,,,,,,,,,,,,,,,,,,,,,,,,,,,,,,,,,,,,,,,,,,,,,,,634.5267548780002,634.5360089280002,635.5347254170001,636.5356526350001,636.5356526350001,636.5356526350001,637.5227657810001,left,0.9803687670000727,None,,,,,,,,392221,001,2024-11-28_15h38.25.666,Test,2024.2.1,59.55546750873984,2024-11-28 15h38.36.151035 +0100,
56,150,120,47,None,52,52,0,True,,,,left,1.460891508000259,None,,,,,,,,,,,,,0,52,52,52,637.5398557399999,,,,,,,,,,,,,,,,,,,,,,,,,,,,,,,,,,,,,,,,,,,,,,,,,,,,,,,,,,,,,,,,,,,,,,,637.5321858030002,637.5398557399999,638.552664924,639.535222466,639.535222466,639.535222466,641.0031669330001,left,1.460891508000259,None,,,,,,,,392221,001,2024-11-28_15h38.25.666,Test,2024.2.1,59.55546750873984,2024-11-28 15h38.36.151035 +0100,
28,150,150,19,None,53,53,0,False,,,,left,0.966997296000045,None,,,,,,,,,,,,,0,53,53,53,641.018317949,,,,,,,,,,,,,,,,,,,,,,,,,,,,,,,,,,,,,,,,,,,,,,,,,,,,,,,,,,,,,,,,,,,,,,,641.0085628719999,641.018317949,642.0190665529999,643.0027596919999,643.0027596919999,643.0027596919999,643.9875411110002,left,0.966997296000045,None,,,,,,,,392221,001,2024-11-28_15h38.25.666,Test,2024.2.1,59.55546750873984,2024-11-28 15h38.36.151035 +0100,
14,150,60,36,None,54,54,0,False,,,,left,0.877504929999759,None,,,,,,,,,,,,,0,54,54,54,644.0031939640003,,,,,,,,,,,,,,,,,,,,,,,,,,,,,,,,,,,,,,,,,,,,,,,,,,,,,,,,,,,,,,,,,,,,,,,643.993613866,644.0031939640003,645.020042655,646.0023143890003,646.0023143890003,646.0023143890003,646.8867915139999,left,0.877504929999759,None,,,,,,,,392221,001,2024-11-28_15h38.25.666,Test,2024.2.1,59.55546750873984,2024-11-28 15h38.36.151035 +0100,
47,150,60,50,None,55,55,0,True,,,,left,0.9346376029998282,None,,,,,,,,,,,,,0,55,55,55,646.9020325770002,,,,,,,,,,,,,,,,,,,,,,,,,,,,,,,,,,,,,,,,,,,,,,,,,,,,,,,,,,,,,,,,,,,,,,,646.8927948220003,646.9020325770002,647.901974337,648.9025738189998,648.9025738189998,648.9025738189998,649.8543355689999,left,0.9346376029998282,None,,,,,,,,392221,001,2024-11-28_15h38.25.666,Test,2024.2.1,59.55546750873984,2024-11-28 15h38.36.151035 +0100,
13,150,60,46,None,56,56,0,False,,,,left,1.2088137750001806,None,,,,,,,,,,,,,0,56,56,56,649.86943221,,,,,,,,,,,,,,,,,,,,,,,,,,,,,,,,,,,,,,,,,,,,,,,,,,,,,,,,,,,,,,,,,,,,,,,649.8603288570002,649.86943221,650.8703314150002,651.8695933069998,651.8695933069998,651.8695933069998,653.0877703390001,left,1.2088137750001806,None,,,,,,,,392221,001,2024-11-28_15h38.25.666,Test,2024.2.1,59.55546750873984,2024-11-28 15h38.36.151035 +0100,
50,150,60,49,None,57,57,0,True,,,,left,0.9255093249998936,None,,,,,,,,,,,,,0,57,57,57,653.1030945379998,,,,,,,,,,,,,,,,,,,,,,,,,,,,,,,,,,,,,,,,,,,,,,,,,,,,,,,,,,,,,,,,,,,,,,,653.0938697780002,653.1030945379998,654.1029411979998,655.1034569500002,655.1034569500002,655.1034569500002,656.0381388599999,left,0.9255093249998936,None,,,,,,,,392221,001,2024-11-28_15h38.25.666,Test,2024.2.1,59.55546750873984,2024-11-28 15h38.36.151035 +0100,
63,150,150,67,None,58,58,0,True,,,,left,0.9263548869998885,None,,,,,,,,,,,,,0,58,58,58,656.0529158980003,,,,,,,,,,,,,,,,,,,,,,,,,,,,,,,,,,,,,,,,,,,,,,,,,,,,,,,,,,,,,,,,,,,,,,,656.0440001460001,656.0529158980003,657.0528618540002,658.0533047280001,658.0533047280001,658.0533047280001,658.9897401490002,left,0.9263548869998885,None,,,,,,,,392221,001,2024-11-28_15h38.25.666,Test,2024.2.1,59.55546750873984,2024-11-28 15h38.36.151035 +0100,
8,150,30,29,None,59,59,0,False,,,,left,1.0075433019997035,None,,,,,,,,,,,,,0,59,59,59,659.004750651,,,,,,,,,,,,,,,,,,,,,,,,,,,,,,,,,,,,,,,,,,,,,,,,,,,,,,,,,,,,,,,,,,,,,,,658.9960948540001,659.004750651,660.0043848360001,661.0044150490003,661.0044150490003,661.0044150490003,662.021678779,left,1.0075433019997035,None,,,,,,,,392221,001,2024-11-28_15h38.25.666,Test,2024.2.1,59.55546750873984,2024-11-28 15h38.36.151035 +0100,
36,150,0,35,None,60,60,0,True,,,,left,0.6664441679999982,None,,,,,,,,,,,,,0,60,60,60,662.0368102460002,,,,,,,,,,,,,,,,,,,,,,,,,,,,,,,,,,,,,,,,,,,,,,,,,,,,,,,,,,,,,,,,,,,,,,,662.0273688329999,662.0368102460002,663.0362783619998,664.0210530859999,664.0210530859999,664.0210530859999,664.6898748409999,left,0.6664441679999982,None,,,,,,,,392221,001,2024-11-28_15h38.25.666,Test,2024.2.1,59.55546750873984,2024-11-28 15h38.36.151035 +0100,
26,150,150,9,None,61,61,0,False,,,,left,0.9588292660000661,None,,,,,,,,,,,,,0,61,61,61,664.7055501039999,,,,,,,,,,,,,,,,,,,,,,,,,,,,,,,,,,,,,,,,,,,,,,,,,,,,,,,,,,,,,,,,,,,,,,,664.6965855530002,664.7055501039999,665.7048350760001,666.704537522,666.704537522,666.704537522,667.6724094380002,left,0.9588292660000661,None,,,,,,,,392221,001,2024-11-28_15h38.25.666,Test,2024.2.1,59.55546750873984,2024-11-28 15h38.36.151035 +0100,
49,150,60,56,None,62,62,0,True,,,,right,0.8993363589997898,None,,,,,,,,,,,,,0,62,62,62,667.688074052,,,,,,,,,,,,,,,,,,,,,,,,,,,,,,,,,,,,,,,,,,,,,,,,,,,,,,,,,,,,,,,,,,,,,,,667.6783492449999,667.688074052,668.688320841,669.6883932780001,669.6883932780001,669.6883932780001,670.6045828400001,right,0.8993363589997898,None,,,,,,,,392221,001,2024-11-28_15h38.25.666,Test,2024.2.1,59.55546750873984,2024-11-28 15h38.36.151035 +0100,
55,150,90,16,None,63,63,0,True,,,,right,1.0044021869998687,None,,,,,,,,,,,,,0,63,63,63,670.6201547230003,,,,,,,,,,,,,,,,,,,,,,,,,,,,,,,,,,,,,,,,,,,,,,,,,,,,,,,,,,,,,,,,,,,,,,,670.6100080740002,670.6201547230003,671.6208399679999,672.6040590329999,672.6040590329999,672.6040590329999,673.6231745129999,right,1.0044021869998687,None,,,,,,,,392221,001,2024-11-28_15h38.25.666,Test,2024.2.1,59.55546750873984,2024-11-28 15h38.36.151035 +0100,
9,150,30,63,None,64,64,0,False,,,,left,0.9282709350000005,None,,,,,,,,,,,,,0,64,64,64,673.6378126210002,,,,,,,,,,,,,,,,,,,,,,,,,,,,,,,,,,,,,,,,,,,,,,,,,,,,,,,,,,,,,,,,,,,,,,,673.6290265110001,673.6378126210002,674.6382491610002,675.637549348,675.637549348,675.637549348,676.5727946739999,left,0.9282709350000005,None,,,,,,,,392221,001,2024-11-28_15h38.25.666,Test,2024.2.1,59.55546750873984,2024-11-28 15h38.36.151035 +0100,
27,150,150,11,None,65,65,0,False,,,,right,1.2112401250001312,None,,,,,,,,,,,,,0,65,65,65,676.5897509259999,,,,,,,,,,,,,,,,,,,,,,,,,,,,,,,,,,,,,,,,,,,,,,,,,,,,,,,,,,,,,,,,,,,,,,,676.5797271030001,676.5897509259999,677.6050856239999,678.5880940239999,678.5880940239999,678.5880940239999,679.8060425909998,right,1.2112401250001312,None,,,,,,,,392221,001,2024-11-28_15h38.25.666,Test,2024.2.1,59.55546750873984,2024-11-28 15h38.36.151035 +0100,
48,150,60,60,None,66,66,0,True,,,,left,0.8534557650000352,None,,,,,,,,,,,,,0,66,66,66,679.8221425719998,,,,,,,,,,,,,,,,,,,,,,,,,,,,,,,,,,,,,,,,,,,,,,,,,,,,,,,,,,,,,,,,,,,,,,,679.8131023340002,679.8221425719998,680.821362012,681.8055240419999,681.8055240419999,681.8055240419999,682.6732487849999,left,0.8534557650000352,None,,,,,,,,392221,001,2024-11-28_15h38.25.666,Test,2024.2.1,59.55546750873984,2024-11-28 15h38.36.151035 +0100,
37,150,0,23,None,67,67,0,True,,,,left,1.217382214999816,None,,,,,,,,,,,,,0,67,67,67,682.6884155540001,,,,,,,,,,,,,,,,,,,,,,,,,,,,,,,,,,,,,,,,,,,,,,,,,,,,,,,,,,,,,,,,,,,,,,,682.679120195,682.6884155540001,683.6884827489998,684.6724332839999,684.6724332839999,684.6724332839999,685.8937826050001,left,1.217382214999816,None,,,,,,,,392221,001,2024-11-28_15h38.25.666,Test,2024.2.1,59.55546750873984,2024-11-28 15h38.36.151035 +0100,
31,150,180,10,None,68,68,0,False,,,,right,1.0627776279998216,None,,,,,,,,,,,,,0,68,68,68,685.9105277899998,,,,,,,,,,,,,,,,,,,,,,,,,,,,,,,,,,,,,,,,,,,,,,,,,,,,,,,,,,,,,,,,,,,,,,,685.9026757070001,685.9105277899998,686.92212561,687.9059924349999,687.9059924349999,687.9059924349999,688.973888255,right,1.0627776279998216,None,,,,,,,,392221,001,2024-11-28_15h38.25.666,Test,2024.2.1,59.55546750873984,2024-11-28 15h38.36.151035 +0100,
17,150,90,43,None,69,69,0,False,,,,right,0.7274585949999164,None,,,,,,,,,,,,,0,69,69,69,688.98828822,,,,,,,,,,,,,,,,,,,,,,,,,,,,,,,,,,,,,,,,,,,,,,,,,,,,,,,,,,,,,,,,,,,,,,,688.9788715330001,688.98828822,689.98853366,690.989402956,690.989402956,690.989402956,691.721675671,right,0.7274585949999164,None,,,,,,,,392221,001,2024-11-28_15h38.25.666,Test,2024.2.1,59.55546750873984,2024-11-28 15h38.36.151035 +0100,
,,,,,,,,,,,,,,,,,,,,,,,,,,,,,,,,,,,,,,,,,,,,,,,,,,,,,,,,,,,,,,,,,,,,,,,,,,,,,,,,,,,,,,,,,,,,,,,,,,,,,,,,,,,,,,,,691.7219112369999,691.7442853530001,691.7442853530001,694.1083817140002,space,2.353406329000336,None,392221,001,2024-11-28_15h38.25.666,Test,2024.2.1,59.55546750873984,2024-11-28 15h38.36.151035 +0100,
