Trial_Number,Exposure_Duration,Displacement_Angle,Stimulus,Response,thisN,thisTrialN,thisRepN,Is_Distractor,key_resp_3.keys,key_resp_3.rt,key_resp_3.duration,key_resp_7.keys,key_resp_7.rt,key_resp_7.duration,trials.thisRepN,trials.thisTrialN,trials.thisN,trials.thisIndex,trials_2.thisRepN,trials_2.thisTrialN,trials_2.thisN,trials_2.thisIndex,trials_3.thisRepN,trials_3.thisTrialN,trials_3.thisN,trials_3.thisIndex,trials_4.thisRepN,trials_4.thisTrialN,trials_4.thisN,trials_4.thisIndex,thisRow.t,notes,Intro_to_experiment.started,important1_2.started,key_resp_8.started,Intro_to_experiment.stopped,key_resp_8.keys,key_resp_8.rt,key_resp_8.duration,important.started,important1.started,key_resp_4.started,important.stopped,key_resp_4.keys,key_resp_4.rt,key_resp_4.duration,training_instruction.started,key_resp_9.started,important1_3.started,training_instruction.stopped,key_resp_9.keys,key_resp_9.rt,key_resp_9.duration,training_trial.started,cross.started,image.started,aperture.started,cross.stopped,image.stopped,aperture.stopped,training_trial.stopped,New_instruction.started,text.started,key_resp_2.started,New_instruction.stopped,key_resp_2.keys,key_resp_2.rt,key_resp_2.duration,test_trial.started,cross2.started,cross2.stopped,image_2.started,key_resp_3.started,aperture_2.started,test_trial.stopped,trials_2.key_resp_3.keys,trials_2.key_resp_3.rt,trials_2.key_resp_3.duration,start_blok_2.started,key_resp_5.started,text_4.started,start_blok_2.stopped,key_resp_5.keys,key_resp_5.rt,key_resp_5.duration,training_2.started,cross_2.started,image_3.started,aperture_3.started,cross_2.stopped,image_3.stopped,aperture_3.stopped,training_2.stopped,nyeste_instruks.started,text_5.started,key_resp_6.started,nyeste_instruks.stopped,key_resp_6.keys,key_resp_6.rt,key_resp_6.duration,test_2.started,cross2_2.started,cross2_2.stopped,image_4.started,key_resp_7.started,aperture_4.started,test_2.stopped,trials_4.key_resp_7.keys,trials_4.key_resp_7.rt,trials_4.key_resp_7.duration,Instruction.started,Instruktion.started,key_resp.started,Instruction.stopped,key_resp.keys,key_resp.rt,key_resp.duration,participant,session,date,expName,psychopyVersion,frameRate,expStart,
,,,,,,,,,,,,,,,,,,,,,,,,,,,,,,,,,0.007185791007941589,0.013604458014015108,0.013604458014015108,24.044543791009346,space,24.001604499993846,None,,,,,,,,,,,,,,,,,,,,,,,,,,,,,,,,,,,,,,,,,,,,,,,,,,,,,,,,,,,,,,,,,,,,,,,,,,,,,,,403745,001,2024-11-28_11h03.29.561,Test,2024.2.4,None,2024-11-28 11h03.35.563137 +0100,
,,,,,,,,,,,,,,,,,,,,,,,,,,,,,,,,,,,,,,,,24.044620166008826,24.071255708026,24.071255708026,43.43794541602256,space,19.36445191700477,None,,,,,,,,,,,,,,,,,,,,,,,,,,,,,,,,,,,,,,,,,,,,,,,,,,,,,,,,,,,,,,,,,,,,,,,,403745,001,2024-11-28_11h03.29.561,Test,2024.2.4,None,2024-11-28 11h03.35.563137 +0100,
,,,,,,,,,,,,,,,,,,,,,,,,,,,,,,,,,,,,,,,,,,,,,,,43.43805979102035,43.45865658301045,43.45865658301045,54.910357375018066,space,11.448855958005879,None,,,,,,,,,,,,,,,,,,,,,,,,,,,,,,,,,,,,,,,,,,,,,,,,,,,,,,,,,,,,,,,,,403745,001,2024-11-28_11h03.29.561,Test,2024.2.4,None,2024-11-28 11h03.35.563137 +0100,
10,150,30,59,None,0,0,0,,,,,,,,0,0,0,9,,,,,,,,,,,,,54.943260041007306,,,,,,,,,,,,,,,,,,,,,,,54.93436791602289,54.943260041007306,55.11001483301516,55.11001483301516,55.14101904100971,56.81904691600357,56.81904691600357,56.80353883301723,,,,,,,,,,,,,,,,,,,,,,,,,,,,,,,,,,,,,,,,,,,,,,,,,,,,,,,,,403745,001,2024-11-28_11h03.29.561,Test,2024.2.4,None,2024-11-28 11h03.35.563137 +0100,
15,150,60,33,None,1,1,0,,,,,,,,0,1,1,14,,,,,,,,,,,,,56.81904691600357,,,,,,,,,,,,,,,,,,,,,,,56.81379933300195,56.81904691600357,57.00942891600425,57.00942891600425,57.00942891600425,58.70725829101866,58.70725829101866,58.692879833019106,,,,,,,,,,,,,,,,,,,,,,,,,,,,,,,,,,,,,,,,,,,,,,,,,,,,,,,,,403745,001,2024-11-28_11h03.29.561,Test,2024.2.4,None,2024-11-28 11h03.35.563137 +0100,
30,150,150,8,None,2,2,0,,,,,,,,0,2,2,29,,,,,,,,,,,,,58.70725829101866,,,,,,,,,,,,,,,,,,,,,,,58.702433458005544,58.71909550001146,58.911769500002265,58.911769500002265,58.911769500002265,60.61776037502568,60.61776037502568,60.603497833013535,,,,,,,,,,,,,,,,,,,,,,,,,,,,,,,,,,,,,,,,,,,,,,,,,,,,,,,,,403745,001,2024-11-28_11h03.29.561,Test,2024.2.4,None,2024-11-28 11h03.35.563137 +0100,
6,150,30,60,None,3,3,0,,,,,,,,0,3,3,5,,,,,,,,,,,,,60.61776037502568,,,,,,,,,,,,,,,,,,,,,,,60.61239916601335,60.61776037502568,60.809744041005615,60.809744041005615,60.809744041005615,62.51862016602536,62.51862016602536,62.50361479099956,,,,,,,,,,,,,,,,,,,,,,,,,,,,,,,,,,,,,,,,,,,,,,,,,,,,,,,,,403745,001,2024-11-28_11h03.29.561,Test,2024.2.4,None,2024-11-28 11h03.35.563137 +0100,
26,150,150,40,None,4,4,0,,,,,,,,0,4,4,25,,,,,,,,,,,,,62.51862016602536,,,,,,,,,,,,,,,,,,,,,,,62.513423583004624,62.51862016602536,62.709702833002666,62.709702833002666,62.709702833002666,64.4246252500161,64.4246252500161,64.40346045800834,,,,,,,,,,,,,,,,,,,,,,,,,,,,,,,,,,,,,,,,,,,,,,,,,,,,,,,,,403745,001,2024-11-28_11h03.29.561,Test,2024.2.4,None,2024-11-28 11h03.35.563137 +0100,
31,150,180,34,None,5,5,0,,,,,,,,0,5,5,30,,,,,,,,,,,,,64.4246252500161,,,,,,,,,,,,,,,,,,,,,,,64.41987808301928,64.4246252500161,64.6141306660138,64.6141306660138,64.63579737499822,66.32024537501275,66.32024537501275,66.30373783301911,,,,,,,,,,,,,,,,,,,,,,,,,,,,,,,,,,,,,,,,,,,,,,,,,,,,,,,,,403745,001,2024-11-28_11h03.29.561,Test,2024.2.4,None,2024-11-28 11h03.35.563137 +0100,
2,150,0,55,None,6,6,0,,,,,,,,0,6,6,1,,,,,,,,,,,,,66.32024537501275,,,,,,,,,,,,,,,,,,,,,,,66.31503558301483,66.32024537501275,66.50955004102434,66.50955004102434,66.50955004102434,68.21785924999858,68.21785924999858,68.2035472910211,,,,,,,,,,,,,,,,,,,,,,,,,,,,,,,,,,,,,,,,,,,,,,,,,,,,,,,,,403745,001,2024-11-28_11h03.29.561,Test,2024.2.4,None,2024-11-28 11h03.35.563137 +0100,
22,150,120,48,None,7,7,0,,,,,,,,0,7,7,21,,,,,,,,,,,,,68.21785924999858,,,,,,,,,,,,,,,,,,,,,,,68.21241866602213,68.21785924999858,68.40891200001352,68.40891200001352,68.40891200001352,70.10573462501634,70.10573462501634,70.09303508300218,,,,,,,,,,,,,,,,,,,,,,,,,,,,,,,,,,,,,,,,,,,,,,,,,,,,,,,,,403745,001,2024-11-28_11h03.29.561,Test,2024.2.4,None,2024-11-28 11h03.35.563137 +0100,
13,150,60,63,None,8,8,0,,,,,,,,0,8,8,12,,,,,,,,,,,,,70.10573462501634,,,,,,,,,,,,,,,,,,,,,,,70.10143337500631,70.11912308301544,70.30968920802115,70.30968920802115,70.30968920802115,72.01707229102612,72.01707229102612,72.00337154100998,,,,,,,,,,,,,,,,,,,,,,,,,,,,,,,,,,,,,,,,,,,,,,,,,,,,,,,,,403745,001,2024-11-28_11h03.29.561,Test,2024.2.4,None,2024-11-28 11h03.35.563137 +0100,
21,150,120,25,None,9,9,0,,,,,,,,0,9,9,20,,,,,,,,,,,,,72.01707229102612,,,,,,,,,,,,,,,,,,,,,,,72.01194958301494,72.01707229102612,72.2092289160064,72.2092289160064,72.2092289160064,73.91786441599834,73.91786441599834,73.90330020801048,,,,,,,,,,,,,,,,,,,,,,,,,,,,,,,,,,,,,,,,,,,,,,,,,,,,,,,,,403745,001,2024-11-28_11h03.29.561,Test,2024.2.4,None,2024-11-28 11h03.35.563137 +0100,
8,150,30,20,None,10,10,0,,,,,,,,0,10,10,7,,,,,,,,,,,,,73.91786441599834,,,,,,,,,,,,,,,,,,,,,,,73.91253016600967,73.91786441599834,74.10955041600391,74.10955041600391,74.10955041600391,75.80546620802488,75.80546620802488,75.79312570800539,,,,,,,,,,,,,,,,,,,,,,,,,,,,,,,,,,,,,,,,,,,,,,,,,,,,,,,,,403745,001,2024-11-28_11h03.29.561,Test,2024.2.4,None,2024-11-28 11h03.35.563137 +0100,
24,150,120,4,None,11,11,0,,,,,,,,0,11,11,23,,,,,,,,,,,,,75.80546620802488,,,,,,,,,,,,,,,,,,,,,,,75.80098583301879,75.81944025002304,76.00685350000276,76.00685350000276,76.01785162501619,77.70517612501862,77.70517612501862,77.69282233301783,,,,,,,,,,,,,,,,,,,,,,,,,,,,,,,,,,,,,,,,,,,,,,,,,,,,,,,,,403745,001,2024-11-28_11h03.29.561,Test,2024.2.4,None,2024-11-28 11h03.35.563137 +0100,
4,150,0,31,None,12,12,0,,,,,,,,0,12,12,3,,,,,,,,,,,,,77.70517612501862,,,,,,,,,,,,,,,,,,,,,,,77.70078712500981,77.71906300002593,77.90944083299837,77.90944083299837,77.90944083299837,79.60659645800479,79.60659645800479,79.5927217080025,,,,,,,,,,,,,,,,,,,,,,,,,,,,,,,,,,,,,,,,,,,,,,,,,,,,,,,,,403745,001,2024-11-28_11h03.29.561,Test,2024.2.4,None,2024-11-28 11h03.35.563137 +0100,
11,150,60,70,None,13,13,0,,,,,,,,0,13,13,10,,,,,,,,,,,,,79.60659645800479,,,,,,,,,,,,,,,,,,,,,,,79.6020300410164,79.61913245799951,79.80887312500272,79.80887312500272,79.80887312500272,81.50964625002234,81.50964625002234,81.4925930830068,,,,,,,,,,,,,,,,,,,,,,,,,,,,,,,,,,,,,,,,,,,,,,,,,,,,,,,,,403745,001,2024-11-28_11h03.29.561,Test,2024.2.4,None,2024-11-28 11h03.35.563137 +0100,
7,150,30,51,None,14,14,0,,,,,,,,0,14,14,6,,,,,,,,,,,,,81.50964625002234,,,,,,,,,,,,,,,,,,,,,,,81.50568858301267,81.51916395800072,81.70974975000718,81.70974975000718,81.70974975000718,83.40515925001819,83.40515925001819,83.39288091601338,,,,,,,,,,,,,,,,,,,,,,,,,,,,,,,,,,,,,,,,,,,,,,,,,,,,,,,,,403745,001,2024-11-28_11h03.29.561,Test,2024.2.4,None,2024-11-28 11h03.35.563137 +0100,
29,150,150,53,None,15,15,0,,,,,,,,0,15,15,28,,,,,,,,,,,,,83.40515925001819,,,,,,,,,,,,,,,,,,,,,,,83.4011316250253,83.41915154102026,83.60931670802529,83.60931670802529,83.60931670802529,85.30563520800206,85.30563520800206,85.29287262502476,,,,,,,,,,,,,,,,,,,,,,,,,,,,,,,,,,,,,,,,,,,,,,,,,,,,,,,,,403745,001,2024-11-28_11h03.29.561,Test,2024.2.4,None,2024-11-28 11h03.35.563137 +0100,
23,150,120,52,None,16,16,0,,,,,,,,0,16,16,22,,,,,,,,,,,,,85.30563520800206,,,,,,,,,,,,,,,,,,,,,,,85.30133325001225,85.31909525001538,85.5095847909979,85.5095847909979,85.5095847909979,87.20461650000652,87.20461650000652,87.19300504101557,,,,,,,,,,,,,,,,,,,,,,,,,,,,,,,,,,,,,,,,,,,,,,,,,,,,,,,,,403745,001,2024-11-28_11h03.29.561,Test,2024.2.4,None,2024-11-28 11h03.35.563137 +0100,
16,150,90,22,None,17,17,0,,,,,,,,0,17,17,15,,,,,,,,,,,,,87.20461650000652,,,,,,,,,,,,,,,,,,,,,,,87.20002175000263,87.2192133750068,87.40946150000673,87.40946150000673,87.40946150000673,89.11656312501873,89.11656312501873,89.10302137502003,,,,,,,,,,,,,,,,,,,,,,,,,,,,,,,,,,,,,,,,,,,,,,,,,,,,,,,,,403745,001,2024-11-28_11h03.29.561,Test,2024.2.4,None,2024-11-28 11h03.35.563137 +0100,
34,150,180,23,None,18,18,0,,,,,,,,0,18,18,33,,,,,,,,,,,,,89.11656312501873,,,,,,,,,,,,,,,,,,,,,,,89.11203350001597,89.11656312501873,89.30829375001485,89.30829375001485,89.30829375001485,91.00704237501486,91.00704237501486,90.99296766601037,,,,,,,,,,,,,,,,,,,,,,,,,,,,,,,,,,,,,,,,,,,,,,,,,,,,,,,,,403745,001,2024-11-28_11h03.29.561,Test,2024.2.4,None,2024-11-28 11h03.35.563137 +0100,
33,150,180,38,None,19,19,0,,,,,,,,0,19,19,32,,,,,,,,,,,,,91.00704237501486,,,,,,,,,,,,,,,,,,,,,,,91.00192866602447,91.0191994580091,91.20964845802519,91.20964845802519,91.20964845802519,92.91764958301792,92.91764958301792,92.9036504579999,,,,,,,,,,,,,,,,,,,,,,,,,,,,,,,,,,,,,,,,,,,,,,,,,,,,,,,,,403745,001,2024-11-28_11h03.29.561,Test,2024.2.4,None,2024-11-28 11h03.35.563137 +0100,
9,150,30,29,None,20,20,0,,,,,,,,0,20,20,8,,,,,,,,,,,,,92.91764958301792,,,,,,,,,,,,,,,,,,,,,,,92.9122726250207,92.91764958301792,93.10902033300954,93.10902033300954,93.10902033300954,94.80486691600527,94.80486691600527,94.79267691602581,,,,,,,,,,,,,,,,,,,,,,,,,,,,,,,,,,,,,,,,,,,,,,,,,,,,,,,,,403745,001,2024-11-28_11h03.29.561,Test,2024.2.4,None,2024-11-28 11h03.35.563137 +0100,
5,150,0,13,None,21,21,0,,,,,,,,0,21,21,4,,,,,,,,,,,,,94.80486691600527,,,,,,,,,,,,,,,,,,,,,,,94.80075837500044,94.81911599999876,95.00998433300992,95.00998433300992,95.00998433300992,96.71760300002643,96.71760300002643,96.70368400000734,,,,,,,,,,,,,,,,,,,,,,,,,,,,,,,,,,,,,,,,,,,,,,,,,,,,,,,,,403745,001,2024-11-28_11h03.29.561,Test,2024.2.4,None,2024-11-28 11h03.35.563137 +0100,
32,150,180,24,None,22,22,0,,,,,,,,0,22,22,31,,,,,,,,,,,,,96.71760300002643,,,,,,,,,,,,,,,,,,,,,,,96.71229391600355,96.71760300002643,96.90943325002445,96.90943325002445,96.90943325002445,98.61536241602153,98.61536241602153,98.60339954102528,,,,,,,,,,,,,,,,,,,,,,,,,,,,,,,,,,,,,,,,,,,,,,,,,,,,,,,,,403745,001,2024-11-28_11h03.29.561,Test,2024.2.4,None,2024-11-28 11h03.35.563137 +0100,
28,150,150,15,None,23,23,0,,,,,,,,0,23,23,27,,,,,,,,,,,,,98.61536241602153,,,,,,,,,,,,,,,,,,,,,,,98.60992925000028,98.61536241602153,98.80931579100434,98.80931579100434,98.80931579100434,100.5187416250119,100.5187416250119,100.50359495801968,,,,,,,,,,,,,,,,,,,,,,,,,,,,,,,,,,,,,,,,,,,,,,,,,,,,,,,,,403745,001,2024-11-28_11h03.29.561,Test,2024.2.4,None,2024-11-28 11h03.35.563137 +0100,
17,150,90,5,None,24,24,0,,,,,,,,0,24,24,16,,,,,,,,,,,,,100.5187416250119,,,,,,,,,,,,,,,,,,,,,,,100.51313612502418,100.5187416250119,100.70986683299998,100.70986683299998,100.70986683299998,102.41885095799807,102.41885095799807,102.40393545801635,,,,,,,,,,,,,,,,,,,,,,,,,,,,,,,,,,,,,,,,,,,,,,,,,,,,,,,,,403745,001,2024-11-28_11h03.29.561,Test,2024.2.4,None,2024-11-28 11h03.35.563137 +0100,
19,150,90,46,None,25,25,0,,,,,,,,0,25,25,18,,,,,,,,,,,,,102.41885095799807,,,,,,,,,,,,,,,,,,,,,,,102.4133106660156,102.41885095799807,102.60947895800928,102.60947895800928,102.60947895800928,104.3181187500013,104.3181187500013,104.3037893330038,,,,,,,,,,,,,,,,,,,,,,,,,,,,,,,,,,,,,,,,,,,,,,,,,,,,,,,,,403745,001,2024-11-28_11h03.29.561,Test,2024.2.4,None,2024-11-28 11h03.35.563137 +0100,
14,150,60,12,None,26,26,0,,,,,,,,0,26,26,13,,,,,,,,,,,,,104.3181187500013,,,,,,,,,,,,,,,,,,,,,,,104.31270595800015,104.3181187500013,104.50924391602166,104.50924391602166,104.50924391602166,106.20466850002413,106.20466850002413,106.19257237500278,,,,,,,,,,,,,,,,,,,,,,,,,,,,,,,,,,,,,,,,,,,,,,,,,,,,,,,,,403745,001,2024-11-28_11h03.29.561,Test,2024.2.4,None,2024-11-28 11h03.35.563137 +0100,
25,150,120,42,None,27,27,0,,,,,,,,0,27,27,24,,,,,,,,,,,,,106.20466850002413,,,,,,,,,,,,,,,,,,,,,,,106.19980345800286,106.21917212501285,106.40943245802191,106.40943245802191,106.40943245802191,108.11704054102302,108.11704054102302,108.10335591601324,,,,,,,,,,,,,,,,,,,,,,,,,,,,,,,,,,,,,,,,,,,,,,,,,,,,,,,,,403745,001,2024-11-28_11h03.29.561,Test,2024.2.4,None,2024-11-28 11h03.35.563137 +0100,
27,150,150,69,None,28,28,0,,,,,,,,0,28,28,26,,,,,,,,,,,,,108.11704054102302,,,,,,,,,,,,,,,,,,,,,,,108.11175995800295,108.11704054102302,108.30952350000734,108.30952350000734,108.30952350000734,110.00923491601134,110.00923491601134,109.99328608301585,,,,,,,,,,,,,,,,,,,,,,,,,,,,,,,,,,,,,,,,,,,,,,,,,,,,,,,,,403745,001,2024-11-28_11h03.29.561,Test,2024.2.4,None,2024-11-28 11h03.35.563137 +0100,
1,150,0,26,None,29,29,0,,,,,,,,0,29,29,0,,,,,,,,,,,,,110.00923491601134,,,,,,,,,,,,,,,,,,,,,,,110.0012474580144,110.01853345800191,110.20703595801024,110.20703595801024,110.20703595801024,111.90724370800308,111.90724370800308,111.89304162500775,,,,,,,,,,,,,,,,,,,,,,,,,,,,,,,,,,,,,,,,,,,,,,,,,,,,,,,,,403745,001,2024-11-28_11h03.29.561,Test,2024.2.4,None,2024-11-28 11h03.35.563137 +0100,
35,150,180,18,None,30,30,0,,,,,,,,0,30,30,34,,,,,,,,,,,,,111.90724370800308,,,,,,,,,,,,,,,,,,,,,,,111.90221825000481,111.91922612499911,112.1088879580202,112.1088879580202,112.1088879580202,113.80521000002045,113.80521000002045,113.79269537501386,,,,,,,,,,,,,,,,,,,,,,,,,,,,,,,,,,,,,,,,,,,,,,,,,,,,,,,,,403745,001,2024-11-28_11h03.29.561,Test,2024.2.4,None,2024-11-28 11h03.35.563137 +0100,
12,150,60,9,None,31,31,0,,,,,,,,0,31,31,11,,,,,,,,,,,,,113.80521000002045,,,,,,,,,,,,,,,,,,,,,,,113.80083112500142,113.81912087500677,114.00948850001441,114.00948850001441,114.00948850001441,115.7163277080108,115.7163277080108,115.70334300000104,,,,,,,,,,,,,,,,,,,,,,,,,,,,,,,,,,,,,,,,,,,,,,,,,,,,,,,,,403745,001,2024-11-28_11h03.29.561,Test,2024.2.4,None,2024-11-28 11h03.35.563137 +0100,
20,150,90,11,None,32,32,0,,,,,,,,0,32,32,19,,,,,,,,,,,,,115.7163277080108,,,,,,,,,,,,,,,,,,,,,,,115.71101800000179,115.7163277080108,115.90962070800015,115.90962070800015,115.90962070800015,117.60647216602229,117.60647216602229,117.59325979099958,,,,,,,,,,,,,,,,,,,,,,,,,,,,,,,,,,,,,,,,,,,,,,,,,,,,,,,,,403745,001,2024-11-28_11h03.29.561,Test,2024.2.4,None,2024-11-28 11h03.35.563137 +0100,
18,150,90,66,None,33,33,0,,,,,,,,0,33,33,17,,,,,,,,,,,,,117.60647216602229,,,,,,,,,,,,,,,,,,,,,,,117.60184512499836,117.61911033300566,117.80946508300258,117.80946508300258,117.80946508300258,119.50723304101848,119.50723304101848,119.49362545800977,,,,,,,,,,,,,,,,,,,,,,,,,,,,,,,,,,,,,,,,,,,,,,,,,,,,,,,,,403745,001,2024-11-28_11h03.29.561,Test,2024.2.4,None,2024-11-28 11h03.35.563137 +0100,
3,150,0,36,None,34,34,0,,,,,,,,0,34,34,2,,,,,,,,,,,,,119.50723304101848,,,,,,,,,,,,,,,,,,,,,,,119.50183833300252,119.50723304101848,119.70959875002154,119.70959875002154,119.70257008299814,121.40124391601421,121.40124391601421,121.39370287500788,,,,,,,,,,,,,,,,,,,,,,,,,,,,,,,,,,,,,,,,,,,,,,,,,,,,,,,,,403745,001,2024-11-28_11h03.29.561,Test,2024.2.4,None,2024-11-28 11h03.35.563137 +0100,
,,,,,,,,,,,,,,,,,,,,,,,,,,,,,,,,,,,,,,,,,,,,,,,,,,,,,,,,,,,,,,121.39387070800876,121.40124391601421,121.40124391601421,133.74468195802183,space,12.340988209005445,None,,,,,,,,,,,,,,,,,,,,,,,,,,,,,,,,,,,,,,,,,,,,,,,,,,403745,001,2024-11-28_11h03.29.561,Test,2024.2.4,None,2024-11-28 11h03.35.563137 +0100,
12,150,60,9,None,0,0,0,False,right,0.6101482920057606,None,,,,,,,,0,0,0,0,,,,,,,,,133.77164541601087,,,,,,,,,,,,,,,,,,,,,,,,,,,,,,,,,,,,,,133.76453750001383,133.77164541601087,134.76932533300715,135.74343941602274,135.74343941602274,135.74343941602274,136.39849687501555,right,0.6101482920057606,None,,,,,,,,,,,,,,,,,,,,,,,,,,,,,,,,,,,,,,,,403745,001,2024-11-28_11h03.29.561,Test,2024.2.4,None,2024-11-28 11h03.35.563137 +0100,
64,150,150,67,None,1,1,0,True,right,0.7949019169900566,None,,,,,,,,0,1,1,1,,,,,,,,,136.4067122080014,,,,,,,,,,,,,,,,,,,,,,,,,,,,,,,,,,,,,,136.4027542080148,136.4067122080014,137.4025597910222,138.39305804102332,138.39305804102332,138.39305804102332,139.19456320800236,right,0.7949019169900566,None,,,,,,,,,,,,,,,,,,,,,,,,,,,,,,,,,,,,,,,,403745,001,2024-11-28_11h03.29.561,Test,2024.2.4,None,2024-11-28 11h03.35.563137 +0100,
32,150,180,24,None,2,2,0,False,right,0.7833697079913691,None,,,,,,,,0,2,2,2,,,,,,,,,139.21006929100258,,,,,,,,,,,,,,,,,,,,,,,,,,,,,,,,,,,,,,139.2032683750149,139.21006929100258,140.207571750012,141.19373058300698,141.19373058300698,141.19373058300698,141.98822779100738,right,0.7833697079913691,None,,,,,,,,,,,,,,,,,,,,,,,,,,,,,,,,,,,,,,,,403745,001,2024-11-28_11h03.29.561,Test,2024.2.4,None,2024-11-28 11h03.35.563137 +0100,
65,150,150,1,None,3,3,0,True,left,0.8009347500046715,None,,,,,,,,0,3,3,3,,,,,,,,,142.00404954102123,,,,,,,,,,,,,,,,,,,,,,,,,,,,,,,,,,,,,,141.99719445800292,142.00404954102123,143.00273175002076,143.9861030000029,143.9861030000029,143.9861030000029,144.7944510410016,left,0.8009347500046715,None,,,,,,,,,,,,,,,,,,,,,,,,,,,,,,,,,,,,,,,,403745,001,2024-11-28_11h03.29.561,Test,2024.2.4,None,2024-11-28 11h03.35.563137 +0100,
42,150,30,3,None,4,4,0,True,left,0.9595820840040687,None,,,,,,,,0,4,4,4,,,,,,,,,144.80939708300866,,,,,,,,,,,,,,,,,,,,,,,,,,,,,,,,,,,,,,144.80291345799924,144.80939708300866,145.80745762502193,146.79419833302381,146.79419833302381,146.79419833302381,147.76117150002392,left,0.9595820840040687,None,,,,,,,,,,,,,,,,,,,,,,,,,,,,,,,,,,,,,,,,403745,001,2024-11-28_11h03.29.561,Test,2024.2.4,None,2024-11-28 11h03.35.563137 +0100,
41,150,30,61,None,5,5,0,True,right,1.1936644170200452,None,,,,,,,,0,5,5,5,,,,,,,,,147.77776545801316,,,,,,,,,,,,,,,,,,,,,,,,,,,,,,,,,,,,,,147.7705153330171,147.77776545801316,148.77368570800172,149.76032987501821,149.76032987501821,149.76032987501821,150.96141991601326,right,1.1936644170200452,None,,,,,,,,,,,,,,,,,,,,,,,,,,,,,,,,,,,,,,,,403745,001,2024-11-28_11h03.29.561,Test,2024.2.4,None,2024-11-28 11h03.35.563137 +0100,
52,150,90,21,None,6,6,0,True,left,1.0014160409918986,None,,,,,,,,0,6,6,6,,,,,,,,,150.97629200000665,,,,,,,,,,,,,,,,,,,,,,,,,,,,,,,,,,,,,,150.97012045801966,150.97629200000665,151.9741965830035,152.95978637502412,152.95978637502412,152.95978637502412,153.97133929101983,left,1.0014160409918986,None,,,,,,,,,,,,,,,,,,,,,,,,,,,,,,,,,,,,,,,,403745,001,2024-11-28_11h03.29.561,Test,2024.2.4,None,2024-11-28 11h03.35.563137 +0100,
60,150,120,19,None,7,7,0,True,right,0.950243708997732,None,,,,,,,,0,7,7,7,,,,,,,,,153.9866541660158,,,,,,,,,,,,,,,,,,,,,,,,,,,,,,,,,,,,,,153.98004883300746,153.9866541660158,154.97449004100054,155.96931500002393,155.96931500002393,155.96931500002393,156.92246933301794,right,0.950243708997732,None,,,,,,,,,,,,,,,,,,,,,,,,,,,,,,,,,,,,,,,,403745,001,2024-11-28_11h03.29.561,Test,2024.2.4,None,2024-11-28 11h03.35.563137 +0100,
46,150,60,27,None,8,8,0,True,left,1.1027938749757595,None,,,,,,,,0,8,8,8,,,,,,,,,156.93784704100108,,,,,,,,,,,,,,,,,,,,,,,,,,,,,,,,,,,,,,156.93129850001424,156.93784704100108,157.93581070800428,158.91939316602657,158.91939316602657,158.91939316602657,160.02780516599887,left,1.1027938749757595,None,,,,,,,,,,,,,,,,,,,,,,,,,,,,,,,,,,,,,,,,403745,001,2024-11-28_11h03.29.561,Test,2024.2.4,None,2024-11-28 11h03.35.563137 +0100,
37,150,0,68,None,9,9,0,True,right,1.4848701669834554,None,,,,,,,,0,9,9,9,,,,,,,,,160.04212979102158,,,,,,,,,,,,,,,,,,,,,,,,,,,,,,,,,,,,,,160.03623845800757,160.04212979102158,161.03599541602307,162.02606941602426,162.02606941602426,162.02606941602426,163.52146116600488,right,1.4848701669834554,None,,,,,,,,,,,,,,,,,,,,,,,,,,,,,,,,,,,,,,,,403745,001,2024-11-28_11h03.29.561,Test,2024.2.4,None,2024-11-28 11h03.35.563137 +0100,
50,150,60,7,None,10,10,0,True,left,0.9678140420001,None,,,,,,,,0,10,10,10,,,,,,,,,163.536716875009,,,,,,,,,,,,,,,,,,,,,,,,,,,,,,,,,,,,,,163.53026708299876,163.536716875009,164.52444341601222,165.51891837501898,165.51891837501898,165.51891837501898,166.4976432910189,left,0.9678140420001,None,,,,,,,,,,,,,,,,,,,,,,,,,,,,,,,,,,,,,,,,403745,001,2024-11-28_11h03.29.561,Test,2024.2.4,None,2024-11-28 11h03.35.563137 +0100,
22,150,120,48,None,11,11,0,False,right,1.1052149579918478,None,,,,,,,,0,11,11,11,,,,,,,,,166.50993800000288,,,,,,,,,,,,,,,,,,,,,,,,,,,,,,,,,,,,,,166.5050990410091,166.50993800000288,167.50733720802236,168.49290054102312,168.49290054102312,168.49290054102312,169.60479029102135,right,1.1052149579918478,None,,,,,,,,,,,,,,,,,,,,,,,,,,,,,,,,,,,,,,,,403745,001,2024-11-28_11h03.29.561,Test,2024.2.4,None,2024-11-28 11h03.35.563137 +0100,
68,150,180,41,None,12,12,0,True,right,1.0334621669899207,None,,,,,,,,0,12,12,12,,,,,,,,,169.62030212502577,,,,,,,,,,,,,,,,,,,,,,,,,,,,,,,,,,,,,,169.613632624998,169.62030212502577,170.6192325830052,171.60268558299867,171.60268558299867,171.60268558299867,172.6383280410082,right,1.0334621669899207,None,,,,,,,,,,,,,,,,,,,,,,,,,,,,,,,,,,,,,,,,403745,001,2024-11-28_11h03.29.561,Test,2024.2.4,None,2024-11-28 11h03.35.563137 +0100,
3,150,0,36,None,13,13,0,False,right,0.800077166990377,None,,,,,,,,0,13,13,13,,,,,,,,,172.65302487500594,,,,,,,,,,,,,,,,,,,,,,,,,,,,,,,,,,,,,,172.64612558300723,172.65302487500594,173.64128650000202,174.63617574999807,174.63617574999807,174.63617574999807,175.4387757910008,right,0.800077166990377,None,,,,,,,,,,,,,,,,,,,,,,,,,,,,,,,,,,,,,,,,403745,001,2024-11-28_11h03.29.561,Test,2024.2.4,None,2024-11-28 11h03.35.563137 +0100,
13,150,60,63,None,14,14,0,False,right,0.9713598329981323,None,,,,,,,,0,14,14,14,,,,,,,,,175.4540111660026,,,,,,,,,,,,,,,,,,,,,,,,,,,,,,,,,,,,,,175.44769116601674,175.4540111660026,176.4524599580036,177.43602195801213,177.43602195801213,177.43602195801213,178.4103342910239,right,0.9713598329981323,None,,,,,,,,,,,,,,,,,,,,,,,,,,,,,,,,,,,,,,,,403745,001,2024-11-28_11h03.29.561,Test,2024.2.4,None,2024-11-28 11h03.35.563137 +0100,
8,150,30,20,None,15,15,0,False,left,0.7602759159926791,None,,,,,,,,0,15,15,15,,,,,,,,,178.42511900002137,,,,,,,,,,,,,,,,,,,,,,,,,,,,,,,,,,,,,,178.4190309580008,178.42511900002137,179.41936141601764,180.40983037502156,180.40983037502156,180.40983037502156,181.18088383300346,left,0.7602759159926791,None,,,,,,,,,,,,,,,,,,,,,,,,,,,,,,,,,,,,,,,,403745,001,2024-11-28_11h03.29.561,Test,2024.2.4,None,2024-11-28 11h03.35.563137 +0100,
4,150,0,31,None,16,16,0,False,right,0.7997777499840595,None,,,,,,,,0,16,16,16,,,,,,,,,181.1929562500154,,,,,,,,,,,,,,,,,,,,,,,,,,,,,,,,,,,,,,181.18818520801142,181.1929562500154,182.19080350000877,183.17643029100145,183.17643029100145,183.17643029100145,183.9866065000242,right,0.7997777499840595,None,,,,,,,,,,,,,,,,,,,,,,,,,,,,,,,,,,,,,,,,403745,001,2024-11-28_11h03.29.561,Test,2024.2.4,None,2024-11-28 11h03.35.563137 +0100,
34,150,180,23,None,17,17,0,False,left,0.713835290982388,None,,,,,,,,0,17,17,17,,,,,,,,,183.99829341602162,,,,,,,,,,,,,,,,,,,,,,,,,,,,,,,,,,,,,,183.99368079099804,183.99829341602162,184.99129400000675,185.97695520802517,185.97695520802517,185.97695520802517,186.69445358301164,left,0.713835290982388,None,,,,,,,,,,,,,,,,,,,,,,,,,,,,,,,,,,,,,,,,403745,001,2024-11-28_11h03.29.561,Test,2024.2.4,None,2024-11-28 11h03.35.563137 +0100,
27,150,150,69,None,18,18,0,False,right,1.137191834015539,None,,,,,,,,0,18,18,18,,,,,,,,,186.70916829101043,,,,,,,,,,,,,,,,,,,,,,,,,,,,,,,,,,,,,,186.70235083301668,186.70916829101043,187.70710104101454,188.69277529101237,188.69277529101237,188.69277529101237,189.8380311660003,right,1.137191834015539,None,,,,,,,,,,,,,,,,,,,,,,,,,,,,,,,,,,,,,,,,403745,001,2024-11-28_11h03.29.561,Test,2024.2.4,None,2024-11-28 11h03.35.563137 +0100,
69,150,180,57,None,19,19,0,True,left,0.938496832997771,None,,,,,,,,0,19,19,19,,,,,,,,,189.85305741601042,,,,,,,,,,,,,,,,,,,,,,,,,,,,,,,,,,,,,,189.8463488749985,189.85305741601042,190.84067808301188,191.83620366602554,191.83620366602554,191.83620366602554,192.778354375012,left,0.938496832997771,None,,,,,,,,,,,,,,,,,,,,,,,,,,,,,,,,,,,,,,,,403745,001,2024-11-28_11h03.29.561,Test,2024.2.4,None,2024-11-28 11h03.35.563137 +0100,
26,150,150,40,None,20,20,0,False,right,1.464923457999248,None,,,,,,,,0,20,20,20,,,,,,,,,192.79343154100934,,,,,,,,,,,,,,,,,,,,,,,,,,,,,,,,,,,,,,192.7870861250267,192.79343154100934,193.7911537910113,194.77701083300053,194.77701083300053,194.77701083300053,196.24412216601195,right,1.464923457999248,None,,,,,,,,,,,,,,,,,,,,,,,,,,,,,,,,,,,,,,,,403745,001,2024-11-28_11h03.29.561,Test,2024.2.4,None,2024-11-28 11h03.35.563137 +0100,
43,150,30,2,None,21,21,0,True,left,0.726566625002306,None,,,,,,,,0,21,21,21,,,,,,,,,196.25983220801572,,,,,,,,,,,,,,,,,,,,,,,,,,,,,,,,,,,,,,196.25325845801854,196.25983220801572,197.2575687500066,198.24295266601257,198.24295266601257,198.24295266601257,198.97263804101385,left,0.726566625002306,None,,,,,,,,,,,,,,,,,,,,,,,,,,,,,,,,,,,,,,,,403745,001,2024-11-28_11h03.29.561,Test,2024.2.4,None,2024-11-28 11h03.35.563137 +0100,
54,150,90,16,None,22,22,0,True,left,1.1580328750133049,None,,,,,,,,0,22,22,22,,,,,,,,,198.98777208302636,,,,,,,,,,,,,,,,,,,,,,,,,,,,,,,,,,,,,,198.98125133302528,198.98777208302636,199.9858009580057,200.9693843749992,200.9693843749992,200.9693843749992,202.13788987501175,left,1.1580328750133049,None,,,,,,,,,,,,,,,,,,,,,,,,,,,,,,,,,,,,,,,,403745,001,2024-11-28_11h03.29.561,Test,2024.2.4,None,2024-11-28 11h03.35.563137 +0100,
5,150,0,13,None,23,23,0,False,left,1.0079701249778736,None,,,,,,,,0,23,23,23,,,,,,,,,202.15263433300424,,,,,,,,,,,,,,,,,,,,,,,,,,,,,,,,,,,,,,202.1464650830021,202.15263433300424,203.1411880000087,204.1360718330252,204.1360718330252,204.1360718330252,205.1546814580215,left,1.0079701249778736,None,,,,,,,,,,,,,,,,,,,,,,,,,,,,,,,,,,,,,,,,403745,001,2024-11-28_11h03.29.561,Test,2024.2.4,None,2024-11-28 11h03.35.563137 +0100,
35,150,180,18,None,24,24,0,False,right,0.8629672920214944,None,,,,,,,,0,24,24,24,,,,,,,,,205.16892850000295,,,,,,,,,,,,,,,,,,,,,,,,,,,,,,,,,,,,,,205.1623023750144,205.16892850000295,206.15808529101196,207.15270991600119,207.15270991600119,207.15270991600119,208.0216384580126,right,0.8629672920214944,None,,,,,,,,,,,,,,,,,,,,,,,,,,,,,,,,,,,,,,,,403745,001,2024-11-28_11h03.29.561,Test,2024.2.4,None,2024-11-28 11h03.35.563137 +0100,
20,150,90,11,None,25,25,0,False,left,0.9003294170252047,None,,,,,,,,0,25,25,25,,,,,,,,,208.0362960830098,,,,,,,,,,,,,,,,,,,,,,,,,,,,,,,,,,,,,,208.02929708300508,208.0362960830098,209.02465258300072,210.01927937500295,210.01927937500295,210.01927937500295,210.92204933302128,left,0.9003294170252047,None,,,,,,,,,,,,,,,,,,,,,,,,,,,,,,,,,,,,,,,,403745,001,2024-11-28_11h03.29.561,Test,2024.2.4,None,2024-11-28 11h03.35.563137 +0100,
14,150,60,12,None,26,26,0,False,left,1.117216999991797,None,,,,,,,,0,26,26,26,,,,,,,,,210.93606800000998,,,,,,,,,,,,,,,,,,,,,,,,,,,,,,,,,,,,,,210.93016270801309,210.93606800000998,211.92448362501455,212.919534708024,212.919534708024,212.919534708024,214.0474605000054,left,1.117216999991797,None,,,,,,,,,,,,,,,,,,,,,,,,,,,,,,,,,,,,,,,,403745,001,2024-11-28_11h03.29.561,Test,2024.2.4,None,2024-11-28 11h03.35.563137 +0100,
40,150,0,65,None,27,27,0,True,left,1.273293249978451,None,,,,,,,,0,27,27,27,,,,,,,,,214.05926233300124,,,,,,,,,,,,,,,,,,,,,,,,,,,,,,,,,,,,,,214.05462429102045,214.05926233300124,215.05725025001448,216.04274083301425,216.04274083301425,216.04274083301425,217.32189091600594,left,1.273293249978451,None,,,,,,,,,,,,,,,,,,,,,,,,,,,,,,,,,,,,,,,,403745,001,2024-11-28_11h03.29.561,Test,2024.2.4,None,2024-11-28 11h03.35.563137 +0100,
53,150,90,64,None,28,28,0,True,left,1.5045377500064205,None,,,,,,,,0,28,28,28,,,,,,,,,217.33735708301538,,,,,,,,,,,,,,,,,,,,,,,,,,,,,,,,,,,,,,217.3306837080163,217.33735708301538,218.33585829101503,219.31920650001848,219.31920650001848,219.31920650001848,220.82780445800745,left,1.5045377500064205,None,,,,,,,,,,,,,,,,,,,,,,,,,,,,,,,,,,,,,,,,403745,001,2024-11-28_11h03.29.561,Test,2024.2.4,None,2024-11-28 11h03.35.563137 +0100,
17,150,90,5,None,29,29,0,False,left,1.130533249990549,None,,,,,,,,0,29,29,29,,,,,,,,,220.8422327080043,,,,,,,,,,,,,,,,,,,,,,,,,,,,,,,,,,,,,,220.83617970801424,220.8422327080043,221.83610020802007,222.82623170802253,222.82623170802253,222.82623170802253,223.9612221250136,left,1.130533249990549,None,,,,,,,,,,,,,,,,,,,,,,,,,,,,,,,,,,,,,,,,403745,001,2024-11-28_11h03.29.561,Test,2024.2.4,None,2024-11-28 11h03.35.563137 +0100,
47,150,60,35,None,30,30,0,True,left,1.6313397079939023,None,,,,,,,,0,30,30,30,,,,,,,,,223.97515925002517,,,,,,,,,,,,,,,,,,,,,,,,,,,,,,,,,,,,,,223.96932375000324,223.97515925002517,224.96912866600906,225.95983162501943,225.95983162501943,225.95983162501943,227.59426500002155,left,1.6313397079939023,None,,,,,,,,,,,,,,,,,,,,,,,,,,,,,,,,,,,,,,,,403745,001,2024-11-28_11h03.29.561,Test,2024.2.4,None,2024-11-28 11h03.35.563137 +0100,
49,150,60,32,None,31,31,0,True,left,1.1825377499917522,None,,,,,,,,0,31,31,31,,,,,,,,,227.60837045800872,,,,,,,,,,,,,,,,,,,,,,,,,,,,,,,,,,,,,,227.60241512500215,227.60837045800872,228.60249683301663,229.59414887501043,229.59414887501043,229.59414887501043,230.78794308300712,left,1.1825377499917522,None,,,,,,,,,,,,,,,,,,,,,,,,,,,,,,,,,,,,,,,,403745,001,2024-11-28_11h03.29.561,Test,2024.2.4,None,2024-11-28 11h03.35.563137 +0100,
31,150,180,34,None,32,32,0,False,right,0.6958916250150651,None,,,,,,,,0,32,32,32,,,,,,,,,230.80552279102267,,,,,,,,,,,,,,,,,,,,,,,,,,,,,,,,,,,,,,230.79979491600534,230.80552279102267,231.80260049999924,232.78556200000457,232.78556200000457,232.78556200000457,233.4882684580225,right,0.6958916250150651,None,,,,,,,,,,,,,,,,,,,,,,,,,,,,,,,,,,,,,,,,403745,001,2024-11-28_11h03.29.561,Test,2024.2.4,None,2024-11-28 11h03.35.563137 +0100,
16,150,90,22,None,33,33,0,False,right,1.3025575409992598,None,,,,,,,,0,33,33,33,,,,,,,,,233.5036787080171,,,,,,,,,,,,,,,,,,,,,,,,,,,,,,,,,,,,,,233.49769587500487,233.5036787080171,234.50252604100388,235.48591412501992,235.48591412501992,235.48591412501992,236.79443687500316,right,1.3025575409992598,None,,,,,,,,,,,,,,,,,,,,,,,,,,,,,,,,,,,,,,,,403745,001,2024-11-28_11h03.29.561,Test,2024.2.4,None,2024-11-28 11h03.35.563137 +0100,
59,150,120,37,None,34,34,0,True,left,1.0888360410172027,None,,,,,,,,0,34,34,34,,,,,,,,,236.8091405830055,,,,,,,,,,,,,,,,,,,,,,,,,,,,,,,,,,,,,,236.8025972910109,236.8091405830055,237.80781150000985,238.79399425000884,238.79399425000884,238.79399425000884,239.8887603750045,left,1.0888360410172027,None,,,,,,,,,,,,,,,,,,,,,,,,,,,,,,,,,,,,,,,,403745,001,2024-11-28_11h03.29.561,Test,2024.2.4,None,2024-11-28 11h03.35.563137 +0100,
51,150,90,45,None,35,35,0,True,left,1.0104154580039904,None,,,,,,,,0,35,35,35,,,,,,,,,239.9046129580238,,,,,,,,,,,,,,,,,,,,,,,,,,,,,,,,,,,,,,239.89818195800763,239.9046129580238,240.90255704100127,241.88593266601674,241.88593266601674,241.88593266601674,242.9046509580221,left,1.0104154580039904,None,,,,,,,,,,,,,,,,,,,,,,,,,,,,,,,,,,,,,,,,403745,001,2024-11-28_11h03.29.561,Test,2024.2.4,None,2024-11-28 11h03.35.563137 +0100,
15,150,60,33,None,36,36,0,False,left,1.5564750419871416,None,,,,,,,,0,36,36,36,,,,,,,,,242.91967650002334,,,,,,,,,,,,,,,,,,,,,,,,,,,,,,,,,,,,,,242.91330141600338,242.91967650002334,243.90745300002163,244.90257475001272,244.90257475001272,244.90257475001272,246.4619484160212,left,1.5564750419871416,None,,,,,,,,,,,,,,,,,,,,,,,,,,,,,,,,,,,,,,,,403745,001,2024-11-28_11h03.29.561,Test,2024.2.4,None,2024-11-28 11h03.35.563137 +0100,
19,150,90,46,None,37,37,0,False,left,1.7370916249928996,None,,,,,,,,0,37,37,37,,,,,,,,,246.47682475001784,,,,,,,,,,,,,,,,,,,,,,,,,,,,,,,,,,,,,,246.470461333025,246.47682475001784,247.47479070801637,248.46013633301482,248.46013633301482,248.46013633301482,250.2048152500065,left,1.7370916249928996,None,,,,,,,,,,,,,,,,,,,,,,,,,,,,,,,,,,,,,,,,403745,001,2024-11-28_11h03.29.561,Test,2024.2.4,None,2024-11-28 11h03.35.563137 +0100,
44,150,30,10,None,38,38,0,True,left,1.069632124999771,None,,,,,,,,0,38,38,38,,,,,,,,,250.219436666026,,,,,,,,,,,,,,,,,,,,,,,,,,,,,,,,,,,,,,250.21307520801201,250.219436666026,251.2078813330154,252.2026425000222,252.2026425000222,252.2026425000222,253.27718616600032,left,1.069632124999771,None,,,,,,,,,,,,,,,,,,,,,,,,,,,,,,,,,,,,,,,,403745,001,2024-11-28_11h03.29.561,Test,2024.2.4,None,2024-11-28 11h03.35.563137 +0100,
67,150,180,14,None,39,39,0,True,left,1.3843660420097876,None,,,,,,,,0,39,39,39,,,,,,,,,253.2923017910216,,,,,,,,,,,,,,,,,,,,,,,,,,,,,,,,,,,,,,253.2861705830146,253.2923017910216,254.28594795800745,255.27653295799973,255.27653295799973,255.27653295799973,256.67133104099776,left,1.3843660420097876,None,,,,,,,,,,,,,,,,,,,,,,,,,,,,,,,,,,,,,,,,403745,001,2024-11-28_11h03.29.561,Test,2024.2.4,None,2024-11-28 11h03.35.563137 +0100,
7,150,30,51,None,40,40,0,False,right,1.5559957080113236,None,,,,,,,,0,40,40,40,,,,,,,,,256.6863318750111,,,,,,,,,,,,,,,,,,,,,,,,,,,,,,,,,,,,,,256.67952895801864,256.6863318750111,257.6742361250217,258.66947533300845,258.66947533300845,258.66947533300845,260.22779291600455,right,1.5559957080113236,None,,,,,,,,,,,,,,,,,,,,,,,,,,,,,,,,,,,,,,,,403745,001,2024-11-28_11h03.29.561,Test,2024.2.4,None,2024-11-28 11h03.35.563137 +0100,
21,150,120,25,None,41,41,0,False,right,1.7702311249740887,None,,,,,,,,0,41,41,41,,,,,,,,,260.2425681660243,,,,,,,,,,,,,,,,,,,,,,,,,,,,,,,,,,,,,,260.23614683302003,260.2425681660243,261.2359763330023,262.22673362502246,262.22673362502246,262.22673362502246,264.00472266602446,right,1.7702311249740887,None,,,,,,,,,,,,,,,,,,,,,,,,,,,,,,,,,,,,,,,,403745,001,2024-11-28_11h03.29.561,Test,2024.2.4,None,2024-11-28 11h03.35.563137 +0100,
63,150,150,39,None,42,42,0,True,right,2.085673833003966,None,,,,,,,,0,42,42,42,,,,,,,,,264.0197550000157,,,,,,,,,,,,,,,,,,,,,,,,,,,,,,,,,,,,,,264.0135016660206,264.0197550000157,265.00785687501775,266.00277191601344,266.00277191601344,266.00277191601344,268.09476945802453,right,2.085673833003966,None,,,,,,,,,,,,,,,,,,,,,,,,,,,,,,,,,,,,,,,,403745,001,2024-11-28_11h03.29.561,Test,2024.2.4,None,2024-11-28 11h03.35.563137 +0100,
6,150,30,60,None,43,43,0,False,left,2.2348223329754546,None,,,,,,,,0,43,43,43,,,,,,,,,268.10917970800074,,,,,,,,,,,,,,,,,,,,,,,,,,,,,,,,,,,,,,268.1029647910036,268.10917970800074,269.1025703330233,270.0927154160163,270.0927154160163,270.0927154160163,272.33808975000284,left,2.2348223329754546,None,,,,,,,,,,,,,,,,,,,,,,,,,,,,,,,,,,,,,,,,403745,001,2024-11-28_11h03.29.561,Test,2024.2.4,None,2024-11-28 11h03.35.563137 +0100,
25,150,120,42,None,44,44,0,False,right,1.6459364159964025,None,,,,,,,,0,44,44,44,,,,,,,,,272.35218175000045,,,,,,,,,,,,,,,,,,,,,,,,,,,,,,,,,,,,,,272.3461747910187,272.35218175000045,273.34127658299985,274.336194833013,274.336194833013,274.336194833013,275.9885927910218,right,1.6459364159964025,None,,,,,,,,,,,,,,,,,,,,,,,,,,,,,,,,,,,,,,,,403745,001,2024-11-28_11h03.29.561,Test,2024.2.4,None,2024-11-28 11h03.35.563137 +0100,
10,150,30,59,None,45,45,0,False,right,1.4568752499762923,None,,,,,,,,0,45,45,45,,,,,,,,,276.00331387500046,,,,,,,,,,,,,,,,,,,,,,,,,,,,,,,,,,,,,,275.9968352080032,276.00331387500046,276.9910365830001,277.98622208301094,277.98622208301094,277.98622208301094,279.45523304102244,right,1.4568752499762923,None,,,,,,,,,,,,,,,,,,,,,,,,,,,,,,,,,,,,,,,,403745,001,2024-11-28_11h03.29.561,Test,2024.2.4,None,2024-11-28 11h03.35.563137 +0100,
29,150,150,53,None,46,46,0,False,right,1.5420920409960672,None,,,,,,,,0,46,46,46,,,,,,,,,279.47037129101227,,,,,,,,,,,,,,,,,,,,,,,,,,,,,,,,,,,,,,279.4640050000162,279.47037129101227,280.46921741601545,281.4525893329992,281.4525893329992,281.4525893329992,283.00525779102463,right,1.5420920409960672,None,,,,,,,,,,,,,,,,,,,,,,,,,,,,,,,,,,,,,,,,403745,001,2024-11-28_11h03.29.561,Test,2024.2.4,None,2024-11-28 11h03.35.563137 +0100,
57,150,120,62,None,47,47,0,True,right,2.5170175840030424,None,,,,,,,,0,47,47,47,,,,,,,,,283.0211245000246,,,,,,,,,,,,,,,,,,,,,,,,,,,,,,,,,,,,,,283.0141611660074,283.0211245000246,284.0191070830042,285.0026994580112,285.0026994580112,285.0026994580112,287.5226640830224,right,2.5170175840030424,None,,,,,,,,,,,,,,,,,,,,,,,,,,,,,,,,,,,,,,,,403745,001,2024-11-28_11h03.29.561,Test,2024.2.4,None,2024-11-28 11h03.35.563137 +0100,
28,150,150,15,None,48,48,0,False,right,1.0880268329929095,None,,,,,,,,0,48,48,48,,,,,,,,,287.53784662502585,,,,,,,,,,,,,,,,,,,,,,,,,,,,,,,,,,,,,,287.5315332910104,287.53784662502585,288.5358504160249,289.51943387501524,289.51943387501524,289.51943387501524,290.6110021250206,right,1.0880268329929095,None,,,,,,,,,,,,,,,,,,,,,,,,,,,,,,,,,,,,,,,,403745,001,2024-11-28_11h03.29.561,Test,2024.2.4,None,2024-11-28 11h03.35.563137 +0100,
39,150,0,6,None,49,49,0,True,right,1.4462659169803374,None,,,,,,,,0,49,49,49,,,,,,,,,290.62577108302503,,,,,,,,,,,,,,,,,,,,,,,,,,,,,,,,,,,,,,290.6196020000207,290.62577108302503,291.61920129100326,292.6105819160002,292.6105819160002,292.6105819160002,294.0607855830167,right,1.4462659169803374,None,,,,,,,,,,,,,,,,,,,,,,,,,,,,,,,,,,,,,,,,403745,001,2024-11-28_11h03.29.561,Test,2024.2.4,None,2024-11-28 11h03.35.563137 +0100,
18,150,90,66,None,50,50,0,False,right,1.0301265830057673,None,,,,,,,,0,50,50,50,,,,,,,,,294.0750357500219,,,,,,,,,,,,,,,,,,,,,,,,,,,,,,,,,,,,,,294.06824395799777,294.0750357500219,295.06940379101434,296.0596772080171,296.0596772080171,296.0596772080171,297.09377212502295,right,1.0301265830057673,None,,,,,,,,,,,,,,,,,,,,,,,,,,,,,,,,,,,,,,,,403745,001,2024-11-28_11h03.29.561,Test,2024.2.4,None,2024-11-28 11h03.35.563137 +0100,
62,150,150,44,None,51,51,0,True,right,0.9954778749961406,None,,,,,,,,0,51,51,51,,,,,,,,,297.1083494160266,,,,,,,,,,,,,,,,,,,,,,,,,,,,,,,,,,,,,,297.10192154100514,297.1083494160266,298.10250337500474,299.0929947080149,299.0929947080149,299.0929947080149,300.09484200002044,right,0.9954778749961406,None,,,,,,,,,,,,,,,,,,,,,,,,,,,,,,,,,,,,,,,,403745,001,2024-11-28_11h03.29.561,Test,2024.2.4,None,2024-11-28 11h03.35.563137 +0100,
30,150,150,8,None,52,52,0,False,right,1.18836495798314,None,,,,,,,,0,52,52,52,,,,,,,,,300.10982812501607,,,,,,,,,,,,,,,,,,,,,,,,,,,,,,,,,,,,,,300.10378641600255,300.10982812501607,301.107034790999,302.0928382910206,302.0928382910206,302.0928382910206,303.28795208301744,right,1.18836495798314,None,,,,,,,,,,,,,,,,,,,,,,,,,,,,,,,,,,,,,,,,403745,001,2024-11-28_11h03.29.561,Test,2024.2.4,None,2024-11-28 11h03.35.563137 +0100,
66,150,180,43,None,53,53,0,True,right,1.5678369580127764,None,,,,,,,,0,53,53,53,,,,,,,,,303.30310325001483,,,,,,,,,,,,,,,,,,,,,,,,,,,,,,,,,,,,,,303.2967702500173,303.30310325001483,304.29028708301485,305.28633437500685,305.28633437500685,305.28633437500685,306.8609366250166,right,1.5678369580127764,None,,,,,,,,,,,,,,,,,,,,,,,,,,,,,,,,,,,,,,,,403745,001,2024-11-28_11h03.29.561,Test,2024.2.4,None,2024-11-28 11h03.35.563137 +0100,
70,150,180,58,None,54,54,0,True,left,1.6159125000122003,None,,,,,,,,0,54,54,54,,,,,,,,,306.87625533301616,,,,,,,,,,,,,,,,,,,,,,,,,,,,,,,,,,,,,,306.8698672080063,306.87625533301616,307.86934537501656,308.8594750830089,308.8594750830089,308.8594750830089,310.47764120801,left,1.6159125000122003,None,,,,,,,,,,,,,,,,,,,,,,,,,,,,,,,,,,,,,,,,403745,001,2024-11-28_11h03.29.561,Test,2024.2.4,None,2024-11-28 11h03.35.563137 +0100,
38,150,0,50,None,55,55,0,True,left,2.2940268749953248,None,,,,,,,,0,55,55,55,,,,,,,,,310.4929089159996,,,,,,,,,,,,,,,,,,,,,,,,,,,,,,,,,,,,,,310.48698583300575,310.4929089159996,311.49090129102115,312.4761820830172,312.4761820830172,312.4761820830172,314.78122158301994,left,2.2940268749953248,None,,,,,,,,,,,,,,,,,,,,,,,,,,,,,,,,,,,,,,,,403745,001,2024-11-28_11h03.29.561,Test,2024.2.4,None,2024-11-28 11h03.35.563137 +0100,
58,150,120,54,None,56,56,0,True,left,1.5969328329956625,None,,,,,,,,0,56,56,56,,,,,,,,,314.7927022080112,,,,,,,,,,,,,,,,,,,,,,,,,,,,,,,,,,,,,,314.7878740830056,314.7927022080112,315.79111154100974,316.77698837500066,316.77698837500066,316.77698837500066,318.3776049580192,left,1.5969328329956625,None,,,,,,,,,,,,,,,,,,,,,,,,,,,,,,,,,,,,,,,,403745,001,2024-11-28_11h03.29.561,Test,2024.2.4,None,2024-11-28 11h03.35.563137 +0100,
24,150,120,4,None,57,57,0,False,right,1.2864272089791484,None,,,,,,,,0,57,57,57,,,,,,,,,318.3932208750048,,,,,,,,,,,,,,,,,,,,,,,,,,,,,,,,,,,,,,318.386355583003,318.3932208750048,319.39072645801934,320.3763809160155,320.3763809160155,320.3763809160155,321.6713622910029,right,1.2864272089791484,None,,,,,,,,,,,,,,,,,,,,,,,,,,,,,,,,,,,,,,,,403745,001,2024-11-28_11h03.29.561,Test,2024.2.4,None,2024-11-28 11h03.35.563137 +0100,
2,150,0,55,None,58,58,0,False,left,1.5999898329901043,None,,,,,,,,0,58,58,58,,,,,,,,,321.6864424160158,,,,,,,,,,,,,,,,,,,,,,,,,,,,,,,,,,,,,,321.6799509580014,321.6864424160158,322.67480745801004,323.6694411250064,323.6694411250064,323.6694411250064,325.2721156250045,left,1.5999898329901043,None,,,,,,,,,,,,,,,,,,,,,,,,,,,,,,,,,,,,,,,,403745,001,2024-11-28_11h03.29.561,Test,2024.2.4,None,2024-11-28 11h03.35.563137 +0100,
48,150,60,47,None,59,59,0,True,left,1.5224407500063535,None,,,,,,,,0,59,59,59,,,,,,,,,325.2866097080114,,,,,,,,,,,,,,,,,,,,,,,,,,,,,,,,,,,,,,325.28062933302135,325.2866097080114,326.2746465000091,327.2693692500179,327.2693692500179,327.2693692500179,328.79439745802665,left,1.5224407500063535,None,,,,,,,,,,,,,,,,,,,,,,,,,,,,,,,,,,,,,,,,403745,001,2024-11-28_11h03.29.561,Test,2024.2.4,None,2024-11-28 11h03.35.563137 +0100,
56,150,120,17,None,60,60,0,True,left,1.5103334579907823,None,,,,,,,,0,60,60,60,,,,,,,,,328.80888579101884,,,,,,,,,,,,,,,,,,,,,,,,,,,,,,,,,,,,,,328.80304525000975,328.80888579101884,329.80255291602225,330.79287504102103,330.79287504102103,330.79287504102103,332.313716500008,left,1.5103334579907823,None,,,,,,,,,,,,,,,,,,,,,,,,,,,,,,,,,,,,,,,,403745,001,2024-11-28_11h03.29.561,Test,2024.2.4,None,2024-11-28 11h03.35.563137 +0100,
55,150,90,30,None,61,61,0,True,left,1.8982336249900982,None,,,,,,,,0,61,61,61,,,,,,,,,332.3257939580071,,,,,,,,,,,,,,,,,,,,,,,,,,,,,,,,,,,,,,332.3210279580089,332.3257939580071,333.31922441601637,334.310619958007,334.310619958007,334.310619958007,336.21123458302463,left,1.8982336249900982,None,,,,,,,,,,,,,,,,,,,,,,,,,,,,,,,,,,,,,,,,403745,001,2024-11-28_11h03.29.561,Test,2024.2.4,None,2024-11-28 11h03.35.563137 +0100,
45,150,30,56,None,62,62,0,True,left,1.16349991702009,None,,,,,,,,0,62,62,62,,,,,,,,,336.2269499160175,,,,,,,,,,,,,,,,,,,,,,,,,,,,,,,,,,,,,,336.22001262501,336.2269499160175,337.22461362500326,338.20984016600414,338.20984016600414,338.20984016600414,339.3775685830042,left,1.16349991702009,None,,,,,,,,,,,,,,,,,,,,,,,,,,,,,,,,,,,,,,,,403745,001,2024-11-28_11h03.29.561,Test,2024.2.4,None,2024-11-28 11h03.35.563137 +0100,
9,150,30,29,None,63,63,0,False,left,1.1765986250247806,None,,,,,,,,0,63,63,63,,,,,,,,,339.39203679101774,,,,,,,,,,,,,,,,,,,,,,,,,,,,,,,,,,,,,,339.3860561660258,339.39203679101774,340.38598516600905,341.3767147080216,341.3767147080216,341.3767147080216,342.56386437499896,left,1.1765986250247806,None,,,,,,,,,,,,,,,,,,,,,,,,,,,,,,,,,,,,,,,,403745,001,2024-11-28_11h03.29.561,Test,2024.2.4,None,2024-11-28 11h03.35.563137 +0100,
33,150,180,38,None,64,64,0,False,right,0.9830012079910375,None,,,,,,,,0,64,64,64,,,,,,,,,342.57541366602527,,,,,,,,,,,,,,,,,,,,,,,,,,,,,,,,,,,,,,342.5707465830201,342.57541366602527,343.56928450000123,344.5595621250104,344.5595621250104,344.5595621250104,345.5448055410234,right,0.9830012079910375,None,,,,,,,,,,,,,,,,,,,,,,,,,,,,,,,,,,,,,,,,403745,001,2024-11-28_11h03.29.561,Test,2024.2.4,None,2024-11-28 11h03.35.563137 +0100,
11,150,60,70,None,65,65,0,False,right,1.7602679579867981,None,,,,,,,,0,65,65,65,,,,,,,,,345.56017004101886,,,,,,,,,,,,,,,,,,,,,,,,,,,,,,,,,,,,,,345.5533394580125,345.56017004101886,346.55742475000443,347.54279283300275,347.54279283300275,347.54279283300275,349.30604150000727,right,1.7602679579867981,None,,,,,,,,,,,,,,,,,,,,,,,,,,,,,,,,,,,,,,,,403745,001,2024-11-28_11h03.29.561,Test,2024.2.4,None,2024-11-28 11h03.35.563137 +0100,
36,150,0,49,None,66,66,0,True,left,1.510466167004779,None,,,,,,,,0,66,66,66,,,,,,,,,349.32076337499893,,,,,,,,,,,,,,,,,,,,,,,,,,,,,,,,,,,,,,349.3141363750037,349.32076337499893,350.3192482080194,351.3028021250211,351.3028021250211,351.3028021250211,352.8212808750104,left,1.510466167004779,None,,,,,,,,,,,,,,,,,,,,,,,,,,,,,,,,,,,,,,,,403745,001,2024-11-28_11h03.29.561,Test,2024.2.4,None,2024-11-28 11h03.35.563137 +0100,
61,150,150,28,None,67,67,0,True,left,1.1414782909851056,None,,,,,,,,0,67,67,67,,,,,,,,,352.83673550002277,,,,,,,,,,,,,,,,,,,,,,,,,,,,,,,,,,,,,,352.82944487500936,352.83673550002277,353.82424716601963,354.81946225001593,354.81946225001593,354.81946225001593,355.9713380410103,left,1.1414782909851056,None,,,,,,,,,,,,,,,,,,,,,,,,,,,,,,,,,,,,,,,,403745,001,2024-11-28_11h03.29.561,Test,2024.2.4,None,2024-11-28 11h03.35.563137 +0100,
23,150,120,52,None,68,68,0,False,right,1.1507885839964729,None,,,,,,,,0,68,68,68,,,,,,,,,355.9865582080092,,,,,,,,,,,,,,,,,,,,,,,,,,,,,,,,,,,,,,355.9799444579985,355.9865582080092,356.97424920802587,357.96931970800506,357.96931970800506,357.96931970800506,359.13073445801274,right,1.1507885839964729,None,,,,,,,,,,,,,,,,,,,,,,,,,,,,,,,,,,,,,,,,403745,001,2024-11-28_11h03.29.561,Test,2024.2.4,None,2024-11-28 11h03.35.563137 +0100,
1,150,0,26,None,69,69,0,False,right,1.2541447499825153,None,,,,,,,,0,69,69,69,,,,,,,,,359.14210258302046,,,,,,,,,,,,,,,,,,,,,,,,,,,,,,,,,,,,,,359.1371879580256,359.14210258302046,360.136001625011,361.12691216601525,361.12691216601525,361.12691216601525,362.3886216250248,right,1.2541447499825153,None,,,,,,,,,,,,,,,,,,,,,,,,,,,,,,,,,,,,,,,,403745,001,2024-11-28_11h03.29.561,Test,2024.2.4,None,2024-11-28 11h03.35.563137 +0100,
,,,,,,,,,,,,,,,,,,,,,,,,,,,,,,,,,,,,,,,,,,,,,,,,,,,,,,,,,,,,,,,,,,,,,,,,,,,,,,,362.38904545802507,362.3991783329984,362.3991783329984,365.3044393330056,space,2.894145957980072,None,,,,,,,,,,,,,,,,,,,,,,,,,,,,,,,,,403745,001,2024-11-28_11h03.29.561,Test,2024.2.4,None,2024-11-28 11h03.35.563137 +0100,
35,150,180,18,None,0,0,0,,,,,,,,,,,,,,,,0,0,0,34,,,,,365.33113129102276,,,,,,,,,,,,,,,,,,,,,,,,,,,,,,,,,,,,,,,,,,,,,,,,,,,,,,,365.32227425000747,365.33113129102276,365.50225383302313,365.50225383302313,365.52504466602113,367.19986679102294,367.19986679102294,367.18683966601384,,,,,,,,,,,,,,,,,,,,,,,,,403745,001,2024-11-28_11h03.29.561,Test,2024.2.4,None,2024-11-28 11h03.35.563137 +0100,
17,150,90,5,None,1,1,0,,,,,,,,,,,,,,,,0,1,1,16,,,,,367.19986679102294,,,,,,,,,,,,,,,,,,,,,,,,,,,,,,,,,,,,,,,,,,,,,,,,,,,,,,,367.19497045801836,367.20428475001245,367.40262387500843,367.40262387500843,367.40262387500843,369.09996308301925,369.09996308301925,369.0867980000039,,,,,,,,,,,,,,,,,,,,,,,,,403745,001,2024-11-28_11h03.29.561,Test,2024.2.4,None,2024-11-28 11h03.35.563137 +0100,
26,150,150,40,None,2,2,0,,,,,,,,,,,,,,,,0,2,2,25,,,,,369.09996308301925,,,,,,,,,,,,,,,,,,,,,,,,,,,,,,,,,,,,,,,,,,,,,,,,,,,,,,,369.09511679102434,369.10458133299835,369.30265762502677,369.30265762502677,369.30265762502677,371.00028941599885,371.00028941599885,370.9869192910264,,,,,,,,,,,,,,,,,,,,,,,,,403745,001,2024-11-28_11h03.29.561,Test,2024.2.4,None,2024-11-28 11h03.35.563137 +0100,
18,150,90,66,None,3,3,0,,,,,,,,,,,,,,,,0,3,3,17,,,,,371.00028941599885,,,,,,,,,,,,,,,,,,,,,,,,,,,,,,,,,,,,,,,,,,,,,,,,,,,,,,,370.9954293750052,371.0053016660095,371.20272537501296,371.20272537501296,371.20272537501296,372.90506291601923,372.90506291601923,372.88697241601767,,,,,,,,,,,,,,,,,,,,,,,,,403745,001,2024-11-28_11h03.29.561,Test,2024.2.4,None,2024-11-28 11h03.35.563137 +0100,
20,150,90,11,None,4,4,0,,,,,,,,,,,,,,,,0,4,4,19,,,,,372.90506291601923,,,,,,,,,,,,,,,,,,,,,,,,,,,,,,,,,,,,,,,,,,,,,,,,,,,,,,,372.90037283301353,372.919030375022,373.1017017500126,373.1017017500126,373.10738766600844,374.801543041016,374.801543041016,374.7871137080074,,,,,,,,,,,,,,,,,,,,,,,,,403745,001,2024-11-28_11h03.29.561,Test,2024.2.4,None,2024-11-28 11h03.35.563137 +0100,
19,150,90,46,None,5,5,0,,,,,,,,,,,,,,,,0,5,5,18,,,,,374.801543041016,,,,,,,,,,,,,,,,,,,,,,,,,,,,,,,,,,,,,,,,,,,,,,,,,,,,,,,374.796509916021,374.80630804100656,375.0026581660204,375.0026581660204,375.0026581660204,376.7005702080205,376.7005702080205,376.68704687501304,,,,,,,,,,,,,,,,,,,,,,,,,403745,001,2024-11-28_11h03.29.561,Test,2024.2.4,None,2024-11-28 11h03.35.563137 +0100,
12,150,60,9,None,6,6,0,,,,,,,,,,,,,,,,0,6,6,11,,,,,376.7005702080205,,,,,,,,,,,,,,,,,,,,,,,,,,,,,,,,,,,,,,,,,,,,,,,,,,,,,,,376.69580891600344,376.70509562501684,376.9025988750218,376.9025988750218,376.9025988750218,378.6006865829986,378.6006865829986,378.58699354101554,,,,,,,,,,,,,,,,,,,,,,,,,403745,001,2024-11-28_11h03.29.561,Test,2024.2.4,None,2024-11-28 11h03.35.563137 +0100,
10,150,30,59,None,7,7,0,,,,,,,,,,,,,,,,0,7,7,9,,,,,378.6006865829986,,,,,,,,,,,,,,,,,,,,,,,,,,,,,,,,,,,,,,,,,,,,,,,,,,,,,,,378.59566670801723,378.6054997910105,378.8026713330182,378.8026713330182,378.8026713330182,380.4993165000051,380.4993165000051,380.4868230410211,,,,,,,,,,,,,,,,,,,,,,,,,403745,001,2024-11-28_11h03.29.561,Test,2024.2.4,None,2024-11-28 11h03.35.563137 +0100,
11,150,60,70,None,8,8,0,,,,,,,,,,,,,,,,0,8,8,10,,,,,380.4993165000051,,,,,,,,,,,,,,,,,,,,,,,,,,,,,,,,,,,,,,,,,,,,,,,,,,,,,,,380.4945058330195,380.50395020801807,380.7027636660205,380.7027636660205,380.7027636660205,382.3994489580218,382.3994489580218,382.3868360000197,,,,,,,,,,,,,,,,,,,,,,,,,403745,001,2024-11-28_11h03.29.561,Test,2024.2.4,None,2024-11-28 11h03.35.563137 +0100,
14,150,60,12,None,9,9,0,,,,,,,,,,,,,,,,0,9,9,13,,,,,382.3994489580218,,,,,,,,,,,,,,,,,,,,,,,,,,,,,,,,,,,,,,,,,,,,,,,,,,,,,,,382.3945390410081,382.4042451660207,382.60257162500056,382.60257162500056,382.60257162500056,384.3004555000225,384.3004555000225,384.28697837502114,,,,,,,,,,,,,,,,,,,,,,,,,403745,001,2024-11-28_11h03.29.561,Test,2024.2.4,None,2024-11-28 11h03.35.563137 +0100,
28,150,150,15,None,10,10,0,,,,,,,,,,,,,,,,0,10,10,27,,,,,384.3004555000225,,,,,,,,,,,,,,,,,,,,,,,,,,,,,,,,,,,,,,,,,,,,,,,,,,,,,,,384.29569595801877,384.30439816601574,384.5017430000007,384.5017430000007,384.5017430000007,386.2003437500098,386.2003437500098,386.1869527500239,,,,,,,,,,,,,,,,,,,,,,,,,403745,001,2024-11-28_11h03.29.561,Test,2024.2.4,None,2024-11-28 11h03.35.563137 +0100,
2,150,0,55,None,11,11,0,,,,,,,,,,,,,,,,0,11,11,1,,,,,386.2003437500098,,,,,,,,,,,,,,,,,,,,,,,,,,,,,,,,,,,,,,,,,,,,,,,,,,,,,,,386.19530487500015,386.2049146250065,386.40260316600325,386.40260316600325,386.40260316600325,388.10042687502573,388.10042687502573,388.08701550000114,,,,,,,,,,,,,,,,,,,,,,,,,403745,001,2024-11-28_11h03.29.561,Test,2024.2.4,None,2024-11-28 11h03.35.563137 +0100,
6,150,30,60,None,12,12,0,,,,,,,,,,,,,,,,0,12,12,5,,,,,388.10042687502573,,,,,,,,,,,,,,,,,,,,,,,,,,,,,,,,,,,,,,,,,,,,,,,,,,,,,,,388.09571704102564,388.10452379100025,388.30289237500983,388.30289237500983,388.30289237500983,390.00049379101256,390.00049379101256,389.9869927500258,,,,,,,,,,,,,,,,,,,,,,,,,403745,001,2024-11-28_11h03.29.561,Test,2024.2.4,None,2024-11-28 11h03.35.563137 +0100,
8,150,30,20,None,13,13,0,,,,,,,,,,,,,,,,0,13,13,7,,,,,390.00049379101256,,,,,,,,,,,,,,,,,,,,,,,,,,,,,,,,,,,,,,,,,,,,,,,,,,,,,,,389.9954414580134,390.00505537501886,390.20272491601645,390.20272491601645,390.20272491601645,391.9003665409982,391.9003665409982,391.88709033300984,,,,,,,,,,,,,,,,,,,,,,,,,403745,001,2024-11-28_11h03.29.561,Test,2024.2.4,None,2024-11-28 11h03.35.563137 +0100,
27,150,150,69,None,14,14,0,,,,,,,,,,,,,,,,0,14,14,26,,,,,391.9003665409982,,,,,,,,,,,,,,,,,,,,,,,,,,,,,,,,,,,,,,,,,,,,,,,,,,,,,,,391.8953575830092,391.9048321250011,392.1026600000041,392.1026600000041,392.1026600000041,393.8002545000054,393.8002545000054,393.78696125000715,,,,,,,,,,,,,,,,,,,,,,,,,403745,001,2024-11-28_11h03.29.561,Test,2024.2.4,None,2024-11-28 11h03.35.563137 +0100,
5,150,0,13,None,15,15,0,,,,,,,,,,,,,,,,0,15,15,4,,,,,393.8002545000054,,,,,,,,,,,,,,,,,,,,,,,,,,,,,,,,,,,,,,,,,,,,,,,,,,,,,,,393.7952839159989,393.8050427910057,394.0027349580196,394.0027349580196,394.0027349580196,395.7005162080168,395.7005162080168,395.6869087080122,,,,,,,,,,,,,,,,,,,,,,,,,403745,001,2024-11-28_11h03.29.561,Test,2024.2.4,None,2024-11-28 11h03.35.563137 +0100,
29,150,150,53,None,16,16,0,,,,,,,,,,,,,,,,0,16,16,28,,,,,395.7005162080168,,,,,,,,,,,,,,,,,,,,,,,,,,,,,,,,,,,,,,,,,,,,,,,,,,,,,,,395.6956061250239,395.7054165000154,395.902581708011,395.902581708011,395.902581708011,397.6001397500222,397.6001397500222,397.5869322500075,,,,,,,,,,,,,,,,,,,,,,,,,403745,001,2024-11-28_11h03.29.561,Test,2024.2.4,None,2024-11-28 11h03.35.563137 +0100,
9,150,30,29,None,17,17,0,,,,,,,,,,,,,,,,0,17,17,8,,,,,397.6001397500222,,,,,,,,,,,,,,,,,,,,,,,,,,,,,,,,,,,,,,,,,,,,,,,,,,,,,,,397.59500912501244,397.6040612080251,397.80272458301624,397.80272458301624,397.80272458301624,399.49976754101226,399.49976754101226,399.4867143750016,,,,,,,,,,,,,,,,,,,,,,,,,403745,001,2024-11-28_11h03.29.561,Test,2024.2.4,None,2024-11-28 11h03.35.563137 +0100,
30,150,150,8,None,18,18,0,,,,,,,,,,,,,,,,0,18,18,29,,,,,399.49976754101226,,,,,,,,,,,,,,,,,,,,,,,,,,,,,,,,,,,,,,,,,,,,,,,,,,,,,,,399.4950533330266,399.5044840000046,399.7026336660201,399.7026336660201,399.7026336660201,401.40032620800775,401.40032620800775,401.3868623750168,,,,,,,,,,,,,,,,,,,,,,,,,403745,001,2024-11-28_11h03.29.561,Test,2024.2.4,None,2024-11-28 11h03.35.563137 +0100,
33,150,180,38,None,19,19,0,,,,,,,,,,,,,,,,0,19,19,32,,,,,401.40032620800775,,,,,,,,,,,,,,,,,,,,,,,,,,,,,,,,,,,,,,,,,,,,,,,,,,,,,,,401.3955557080044,401.4044995410077,401.6025790410058,401.6025790410058,401.6025790410058,403.3002165830112,403.3002165830112,403.28690833301516,,,,,,,,,,,,,,,,,,,,,,,,,403745,001,2024-11-28_11h03.29.561,Test,2024.2.4,None,2024-11-28 11h03.35.563137 +0100,
3,150,0,36,None,20,20,0,,,,,,,,,,,,,,,,0,20,20,2,,,,,403.3002165830112,,,,,,,,,,,,,,,,,,,,,,,,,,,,,,,,,,,,,,,,,,,,,,,,,,,,,,,403.2954092080181,403.30437379100476,403.50263045800966,403.50263045800966,403.50263045800966,405.2006204580248,405.2006204580248,405.1867897080083,,,,,,,,,,,,,,,,,,,,,,,,,403745,001,2024-11-28_11h03.29.561,Test,2024.2.4,None,2024-11-28 11h03.35.563137 +0100,
34,150,180,23,None,21,21,0,,,,,,,,,,,,,,,,0,21,21,33,,,,,405.2006204580248,,,,,,,,,,,,,,,,,,,,,,,,,,,,,,,,,,,,,,,,,,,,,,,,,,,,,,,405.19564712501597,405.2053545830131,405.40272679101327,405.40272679101327,405.40272679101327,407.09990670802654,407.09990670802654,407.0867328750028,,,,,,,,,,,,,,,,,,,,,,,,,403745,001,2024-11-28_11h03.29.561,Test,2024.2.4,None,2024-11-28 11h03.35.563137 +0100,
23,150,120,52,None,22,22,0,,,,,,,,,,,,,,,,0,22,22,22,,,,,407.09990670802654,,,,,,,,,,,,,,,,,,,,,,,,,,,,,,,,,,,,,,,,,,,,,,,,,,,,,,,407.0950862910249,407.10495691600954,407.3026125000033,407.3026125000033,407.3026125000033,409.0002429160231,409.0002429160231,408.9869412080152,,,,,,,,,,,,,,,,,,,,,,,,,403745,001,2024-11-28_11h03.29.561,Test,2024.2.4,None,2024-11-28 11h03.35.563137 +0100,
1,150,0,26,None,23,23,0,,,,,,,,,,,,,,,,0,23,23,0,,,,,409.0002429160231,,,,,,,,,,,,,,,,,,,,,,,,,,,,,,,,,,,,,,,,,,,,,,,,,,,,,,,408.99525879102293,409.00516325002536,409.20271158299875,409.20271158299875,409.20271158299875,410.89958304099855,410.89958304099855,410.8868377500039,,,,,,,,,,,,,,,,,,,,,,,,,403745,001,2024-11-28_11h03.29.561,Test,2024.2.4,None,2024-11-28 11h03.35.563137 +0100,
4,150,0,31,None,24,24,0,,,,,,,,,,,,,,,,0,24,24,3,,,,,410.89958304099855,,,,,,,,,,,,,,,,,,,,,,,,,,,,,,,,,,,,,,,,,,,,,,,,,,,,,,,410.89466754102614,410.90422424999997,411.10259629102075,411.10259629102075,411.10259629102075,412.80042079099803,412.80042079099803,412.7869891250157,,,,,,,,,,,,,,,,,,,,,,,,,403745,001,2024-11-28_11h03.29.561,Test,2024.2.4,None,2024-11-28 11h03.35.563137 +0100,
21,150,120,25,None,25,25,0,,,,,,,,,,,,,,,,0,25,25,20,,,,,412.80042079099803,,,,,,,,,,,,,,,,,,,,,,,,,,,,,,,,,,,,,,,,,,,,,,,,,,,,,,,412.79564829100855,412.8046239580144,413.00261012502597,413.00261012502597,413.00261012502597,414.7002630830102,414.7002630830102,414.6870956250059,,,,,,,,,,,,,,,,,,,,,,,,,403745,001,2024-11-28_11h03.29.561,Test,2024.2.4,None,2024-11-28 11h03.35.563137 +0100,
25,150,120,42,None,26,26,0,,,,,,,,,,,,,,,,0,26,26,24,,,,,414.7002630830102,,,,,,,,,,,,,,,,,,,,,,,,,,,,,,,,,,,,,,,,,,,,,,,,,,,,,,,414.6953529160237,414.70491720800055,414.9026809160132,414.9026809160132,414.9026809160132,416.6008819999988,416.6008819999988,416.58698966601514,,,,,,,,,,,,,,,,,,,,,,,,,403745,001,2024-11-28_11h03.29.561,Test,2024.2.4,None,2024-11-28 11h03.35.563137 +0100,
31,150,180,34,None,27,27,0,,,,,,,,,,,,,,,,0,27,27,30,,,,,416.6008819999988,,,,,,,,,,,,,,,,,,,,,,,,,,,,,,,,,,,,,,,,,,,,,,,,,,,,,,,416.59573445800925,416.6058040409989,416.80279862502357,416.80279862502357,416.80279862502357,418.49974183301674,418.49974183301674,418.48704070801614,,,,,,,,,,,,,,,,,,,,,,,,,403745,001,2024-11-28_11h03.29.561,Test,2024.2.4,None,2024-11-28 11h03.35.563137 +0100,
15,150,60,33,None,28,28,0,,,,,,,,,,,,,,,,0,28,28,14,,,,,418.49974183301674,,,,,,,,,,,,,,,,,,,,,,,,,,,,,,,,,,,,,,,,,,,,,,,,,,,,,,,418.49498604101245,418.5044368329982,418.70267337502446,418.70267337502446,418.70267337502446,420.39973808301147,420.39973808301147,420.3869216660096,,,,,,,,,,,,,,,,,,,,,,,,,403745,001,2024-11-28_11h03.29.561,Test,2024.2.4,None,2024-11-28 11h03.35.563137 +0100,
13,150,60,63,None,29,29,0,,,,,,,,,,,,,,,,0,29,29,12,,,,,420.39973808301147,,,,,,,,,,,,,,,,,,,,,,,,,,,,,,,,,,,,,,,,,,,,,,,,,,,,,,,420.3947274580132,420.4044855410175,420.6027241660049,420.6027241660049,420.6027241660049,422.300670541008,422.300670541008,422.2869885410182,,,,,,,,,,,,,,,,,,,,,,,,,403745,001,2024-11-28_11h03.29.561,Test,2024.2.4,None,2024-11-28 11h03.35.563137 +0100,
16,150,90,22,None,30,30,0,,,,,,,,,,,,,,,,0,30,30,15,,,,,422.300670541008,,,,,,,,,,,,,,,,,,,,,,,,,,,,,,,,,,,,,,,,,,,,,,,,,,,,,,,422.2957185830164,422.30478170802235,422.5025994160096,422.5025994160096,422.5025994160096,424.2000349580194,424.2000349580194,424.18706991602085,,,,,,,,,,,,,,,,,,,,,,,,,403745,001,2024-11-28_11h03.29.561,Test,2024.2.4,None,2024-11-28 11h03.35.563137 +0100,
22,150,120,48,None,31,31,0,,,,,,,,,,,,,,,,0,31,31,21,,,,,424.2000349580194,,,,,,,,,,,,,,,,,,,,,,,,,,,,,,,,,,,,,,,,,,,,,,,,,,,,,,,424.1951384160202,424.2050131249998,424.40270208302536,424.40270208302536,424.40270208302536,426.1016163750028,426.1016163750028,426.0874758330174,,,,,,,,,,,,,,,,,,,,,,,,,403745,001,2024-11-28_11h03.29.561,Test,2024.2.4,None,2024-11-28 11h03.35.563137 +0100,
24,150,120,4,None,32,32,0,,,,,,,,,,,,,,,,0,32,32,23,,,,,426.1016163750028,,,,,,,,,,,,,,,,,,,,,,,,,,,,,,,,,,,,,,,,,,,,,,,,,,,,,,,426.09674491602345,426.1063144580112,426.3025655829988,426.3025655829988,426.3025655829988,428.0004075000179,428.0004075000179,427.98698462502216,,,,,,,,,,,,,,,,,,,,,,,,,403745,001,2024-11-28_11h03.29.561,Test,2024.2.4,None,2024-11-28 11h03.35.563137 +0100,
7,150,30,51,None,33,33,0,,,,,,,,,,,,,,,,0,33,33,6,,,,,428.0004075000179,,,,,,,,,,,,,,,,,,,,,,,,,,,,,,,,,,,,,,,,,,,,,,,,,,,,,,,427.99543341601384,428.00434104099986,428.2026226660237,428.2026226660237,428.2026226660237,429.8998200830247,429.8998200830247,429.8868515409995,,,,,,,,,,,,,,,,,,,,,,,,,403745,001,2024-11-28_11h03.29.561,Test,2024.2.4,None,2024-11-28 11h03.35.563137 +0100,
32,150,180,24,None,34,34,0,,,,,,,,,,,,,,,,0,34,34,31,,,,,429.8998200830247,,,,,,,,,,,,,,,,,,,,,,,,,,,,,,,,,,,,,,,,,,,,,,,,,,,,,,,429.89487754102447,429.9781165830209,430.10150341602275,430.10150341602275,430.1718474160007,431.79242087501916,431.79242087501916,431.78695354101365,,,,,,,,,,,,,,,,,,,,,,,,,403745,001,2024-11-28_11h03.29.561,Test,2024.2.4,None,2024-11-28 11h03.35.563137 +0100,
,,,,,,,,,,,,,,,,,,,,,,,,,,,,,,,,,,,,,,,,,,,,,,,,,,,,,,,,,,,,,,,,,,,,,,,,,,,,,,,,,,,,,,,,,,,,,,431.78718066602596,431.80102225000155,431.80102225000155,442.58780512501835,space,10.78110937497695,None,,,,,,,,,,,,,,,,,,403745,001,2024-11-28_11h03.29.561,Test,2024.2.4,None,2024-11-28 11h03.35.563137 +0100,
12,150,60,9,None,0,0,0,False,,,,right,1.162116874998901,None,,,,,,,,,,,,,0,0,0,0,442.61480216600467,,,,,,,,,,,,,,,,,,,,,,,,,,,,,,,,,,,,,,,,,,,,,,,,,,,,,,,,,,,,,,,,,,,,,,442.6074497500085,442.61480216600467,443.6074379160127,444.58624237502227,444.58624237502227,444.58624237502227,445.7546454160183,right,1.162116874998901,None,,,,,,,,403745,001,2024-11-28_11h03.29.561,Test,2024.2.4,None,2024-11-28 11h03.35.563137 +0100,
64,150,150,67,None,1,1,0,True,,,,left,1.3705151249887422,None,,,,,,,,,,,,,0,1,1,1,445.76996266600327,,,,,,,,,,,,,,,,,,,,,,,,,,,,,,,,,,,,,,,,,,,,,,,,,,,,,,,,,,,,,,,,,,,,,,445.7631309580174,445.76996266600327,446.75773333301186,447.7529005410033,447.7529005410033,447.7529005410033,449.1274820000108,left,1.3705151249887422,None,,,,,,,,403745,001,2024-11-28_11h03.29.561,Test,2024.2.4,None,2024-11-28 11h03.35.563137 +0100,
32,150,180,24,None,2,2,0,False,,,,right,0.6768192079907749,None,,,,,,,,,,,,,0,2,2,2,449.1416117500048,,,,,,,,,,,,,,,,,,,,,,,,,,,,,,,,,,,,,,,,,,,,,,,,,,,,,,,,,,,,,,,,,,,,,,449.1349975830235,449.1416117500048,450.1359862080135,451.1262323750125,451.1262323750125,451.1262323750125,451.805935958022,right,0.6768192079907749,None,,,,,,,,403745,001,2024-11-28_11h03.29.561,Test,2024.2.4,None,2024-11-28 11h03.35.563137 +0100,
65,150,150,1,None,3,3,0,True,,,,right,0.7631519580027089,None,,,,,,,,,,,,,0,3,3,3,451.821139333013,,,,,,,,,,,,,,,,,,,,,,,,,,,,,,,,,,,,,,,,,,,,,,,,,,,,,,,,,,,,,,,,,,,,,,451.81476579100126,451.821139333013,452.81911991600646,453.802710375021,453.802710375021,453.802710375021,454.57165512500796,right,0.7631519580027089,None,,,,,,,,403745,001,2024-11-28_11h03.29.561,Test,2024.2.4,None,2024-11-28 11h03.35.563137 +0100,
42,150,30,3,None,4,4,0,True,,,,left,0.8896836249914486,None,,,,,,,,,,,,,0,4,4,4,454.5870838749979,,,,,,,,,,,,,,,,,,,,,,,,,,,,,,,,,,,,,,,,,,,,,,,,,,,,,,,,,,,,,,,,,,,,,,454.58065112502663,454.5870838749979,455.58604604101856,456.56928170801257,456.56928170801257,456.56928170801257,457.461294208013,left,0.8896836249914486,None,,,,,,,,403745,001,2024-11-28_11h03.29.561,Test,2024.2.4,None,2024-11-28 11h03.35.563137 +0100,
41,150,30,61,None,5,5,0,True,,,,left,1.0778824579901993,None,,,,,,,,,,,,,0,5,5,5,457.4765448330145,,,,,,,,,,,,,,,,,,,,,,,,,,,,,,,,,,,,,,,,,,,,,,,,,,,,,,,,,,,,,,,,,,,,,,457.469831000024,457.4765448330145,458.47456575001706,459.460078041011,459.460078041011,459.460078041011,460.5445194580243,left,1.0778824579901993,None,,,,,,,,403745,001,2024-11-28_11h03.29.561,Test,2024.2.4,None,2024-11-28 11h03.35.563137 +0100,
52,150,90,21,None,6,6,0,True,,,,left,1.060312415997032,None,,,,,,,,,,,,,0,6,6,6,460.5596850000147,,,,,,,,,,,,,,,,,,,,,,,,,,,,,,,,,,,,,,,,,,,,,,,,,,,,,,,,,,,,,,,,,,,,,,460.5529341660149,460.5596850000147,461.5577302080055,462.54291716602165,462.54291716602165,462.54291716602165,463.6136832910124,left,1.060312415997032,None,,,,,,,,403745,001,2024-11-28_11h03.29.561,Test,2024.2.4,None,2024-11-28 11h03.35.563137 +0100,
60,150,120,19,None,7,7,0,True,,,,right,0.8201997920114081,None,,,,,,,,,,,,,0,7,7,7,463.62557383300737,,,,,,,,,,,,,,,,,,,,,,,,,,,,,,,,,,,,,,,,,,,,,,,,,,,,,,,,,,,,,,,,,,,,,,463.6207695000048,463.62557383300737,464.61924383300357,465.6097998750047,465.6097998750047,465.6097998750047,466.43801308301045,right,0.8201997920114081,None,,,,,,,,403745,001,2024-11-28_11h03.29.561,Test,2024.2.4,None,2024-11-28 11h03.35.563137 +0100,
46,150,60,27,None,8,8,0,True,,,,right,1.0336090839991812,None,,,,,,,,,,,,,0,8,8,8,466.45321970802615,,,,,,,,,,,,,,,,,,,,,,,,,,,,,,,,,,,,,,,,,,,,,,,,,,,,,,,,,,,,,,,,,,,,,,466.44691462500487,466.45321970802615,467.440721083025,468.4361033750174,468.4361033750174,468.4361033750174,469.4727763750125,right,1.0336090839991812,None,,,,,,,,403745,001,2024-11-28_11h03.29.561,Test,2024.2.4,None,2024-11-28 11h03.35.563137 +0100,
37,150,0,68,None,9,9,0,True,,,,left,1.250673792004818,None,,,,,,,,,,,,,0,9,9,9,469.48784079100005,,,,,,,,,,,,,,,,,,,,,,,,,,,,,,,,,,,,,,,,,,,,,,,,,,,,,,,,,,,,,,,,,,,,,,469.4807952910196,469.48784079100005,470.48585112500587,471.4694525000232,471.4694525000232,471.4694525000232,472.7306733750156,left,1.250673792004818,None,,,,,,,,403745,001,2024-11-28_11h03.29.561,Test,2024.2.4,None,2024-11-28 11h03.35.563137 +0100,
50,150,60,7,None,10,10,0,True,,,,left,1.2108916660072282,None,,,,,,,,,,,,,0,10,10,10,472.7416669160011,,,,,,,,,,,,,,,,,,,,,,,,,,,,,,,,,,,,,,,,,,,,,,,,,,,,,,,,,,,,,,,,,,,,,,472.73719091599924,472.7416669160011,473.7359706660209,474.7265225830197,474.7265225830197,474.7265225830197,475.9446805410262,left,1.2108916660072282,None,,,,,,,,403745,001,2024-11-28_11h03.29.561,Test,2024.2.4,None,2024-11-28 11h03.35.563137 +0100,
22,150,120,48,None,11,11,0,False,,,,right,0.7031239999923855,None,,,,,,,,,,,,,0,11,11,11,475.9574709160079,,,,,,,,,,,,,,,,,,,,,,,,,,,,,,,,,,,,,,,,,,,,,,,,,,,,,,,,,,,,,,,,,,,,,,475.95127695801784,475.9574709160079,476.9525318329979,477.9430055830162,477.9430055830162,477.9430055830162,478.65464120800607,right,0.7031239999923855,None,,,,,,,,403745,001,2024-11-28_11h03.29.561,Test,2024.2.4,None,2024-11-28 11h03.35.563137 +0100,
68,150,180,41,None,12,12,0,True,,,,right,0.9107118750107475,None,,,,,,,,,,,,,0,12,12,12,478.66993987502065,,,,,,,,,,,,,,,,,,,,,,,,,,,,,,,,,,,,,,,,,,,,,,,,,,,,,,,,,,,,,,,,,,,,,,478.662965000025,478.66993987502065,479.65780766602256,480.6526752500213,480.6526752500213,480.6526752500213,481.5713175830024,right,0.9107118750107475,None,,,,,,,,403745,001,2024-11-28_11h03.29.561,Test,2024.2.4,None,2024-11-28 11h03.35.563137 +0100,
3,150,0,36,None,13,13,0,False,,,,left,1.0554009579936974,None,,,,,,,,,,,,,0,13,13,13,481.58609341600095,,,,,,,,,,,,,,,,,,,,,,,,,,,,,,,,,,,,,,,,,,,,,,,,,,,,,,,,,,,,,,,,,,,,,,481.57873533302336,481.58609341600095,482.57450712501304,483.5695297080092,483.5695297080092,483.5695297080092,484.6276406660036,left,1.0554009579936974,None,,,,,,,,403745,001,2024-11-28_11h03.29.561,Test,2024.2.4,None,2024-11-28 11h03.35.563137 +0100,
13,150,60,63,None,14,14,0,False,,,,right,0.9282337499898858,None,,,,,,,,,,,,,0,14,14,14,484.6412591250264,,,,,,,,,,,,,,,,,,,,,,,,,,,,,,,,,,,,,,,,,,,,,,,,,,,,,,,,,,,,,,,,,,,,,,484.63462620801874,484.6412591250264,485.6358365410124,486.62702770801843,486.62702770801843,486.62702770801843,487.5610457910225,right,0.9282337499898858,None,,,,,,,,403745,001,2024-11-28_11h03.29.561,Test,2024.2.4,None,2024-11-28 11h03.35.563137 +0100,
8,150,30,20,None,15,15,0,False,,,,right,0.9205249999940861,None,,,,,,,,,,,,,0,15,15,15,487.57559354099794,,,,,,,,,,,,,,,,,,,,,,,,,,,,,,,,,,,,,,,,,,,,,,,,,,,,,,,,,,,,,,,,,,,,,,487.56837479100795,487.57559354099794,488.56922633299837,489.55952308300766,489.55952308300766,489.55952308300766,490.48805287500727,right,0.9205249999940861,None,,,,,,,,403745,001,2024-11-28_11h03.29.561,Test,2024.2.4,None,2024-11-28 11h03.35.563137 +0100,
4,150,0,31,None,16,16,0,False,,,,right,1.3092608329898212,None,,,,,,,,,,,,,0,16,16,16,490.5024002910068,,,,,,,,,,,,,,,,,,,,,,,,,,,,,,,,,,,,,,,,,,,,,,,,,,,,,,,,,,,,,,,,,,,,,,490.49541308300104,490.5024002910068,491.4910450830066,492.486057083006,492.486057083006,492.486057083006,493.8046659580141,right,1.3092608329898212,None,,,,,,,,403745,001,2024-11-28_11h03.29.561,Test,2024.2.4,None,2024-11-28 11h03.35.563137 +0100,
34,150,180,23,None,17,17,0,False,,,,left,1.175145417015301,None,,,,,,,,,,,,,0,17,17,17,493.81972950001364,,,,,,,,,,,,,,,,,,,,,,,,,,,,,,,,,,,,,,,,,,,,,,,,,,,,,,,,,,,,,,,,,,,,,,493.8124620830058,493.81972950001364,494.80795762501657,495.8028584160202,495.8028584160202,495.8028584160202,496.98802479100414,left,1.175145417015301,None,,,,,,,,403745,001,2024-11-28_11h03.29.561,Test,2024.2.4,None,2024-11-28 11h03.35.563137 +0100,
27,150,150,69,None,18,18,0,False,,,,right,0.9027063340181485,None,,,,,,,,,,,,,0,18,18,18,497.00273170802393,,,,,,,,,,,,,,,,,,,,,,,,,,,,,,,,,,,,,,,,,,,,,,,,,,,,,,,,,,,,,,,,,,,,,,496.9953817909991,497.00273170802393,497.99121487501543,498.98589412501315,498.98589412501315,498.98589412501315,499.8938637910178,right,0.9027063340181485,None,,,,,,,,403745,001,2024-11-28_11h03.29.561,Test,2024.2.4,None,2024-11-28 11h03.35.563137 +0100,
69,150,180,57,None,19,19,0,True,,,,left,1.0960335420095362,None,,,,,,,,,,,,,0,19,19,19,499.90862087500864,,,,,,,,,,,,,,,,,,,,,,,,,,,,,,,,,,,,,,,,,,,,,,,,,,,,,,,,,,,,,,,,,,,,,,499.90231800000765,499.90862087500864,500.9025305410032,501.8928069579997,501.8928069579997,501.8928069579997,502.99458737502573,left,1.0960335420095362,None,,,,,,,,403745,001,2024-11-28_11h03.29.561,Test,2024.2.4,None,2024-11-28 11h03.35.563137 +0100,
26,150,150,40,None,20,20,0,False,,,,right,1.1315095410100184,None,,,,,,,,,,,,,0,20,20,20,503.00863320802455,,,,,,,,,,,,,,,,,,,,,,,,,,,,,,,,,,,,,,,,,,,,,,,,,,,,,,,,,,,,,,,,,,,,,,503.00189833302284,503.00863320802455,504.002721249999,504.993544958008,504.993544958008,504.993544958008,506.12773104102234,right,1.1315095410100184,None,,,,,,,,403745,001,2024-11-28_11h03.29.561,Test,2024.2.4,None,2024-11-28 11h03.35.563137 +0100,
43,150,30,2,None,21,21,0,True,,,,left,1.0221342080039904,None,,,,,,,,,,,,,0,21,21,21,506.1425609580183,,,,,,,,,,,,,,,,,,,,,,,,,,,,,,,,,,,,,,,,,,,,,,,,,,,,,,,,,,,,,,,,,,,,,,506.1362312910205,506.1425609580183,507.1359682910261,508.1264406250266,508.1264406250266,508.1264406250266,509.155070791021,left,1.0221342080039904,None,,,,,,,,403745,001,2024-11-28_11h03.29.561,Test,2024.2.4,None,2024-11-28 11h03.35.563137 +0100,
54,150,90,16,None,22,22,0,True,,,,left,0.7408832910005003,None,,,,,,,,,,,,,0,22,22,22,509.17021487501916,,,,,,,,,,,,,,,,,,,,,,,,,,,,,,,,,,,,,,,,,,,,,,,,,,,,,,,,,,,,,,,,,,,,,,509.1642424580059,509.17021487501916,510.1571610410174,511.1526599159988,511.1526599159988,511.1526599159988,511.9046357500192,left,0.7408832910005003,None,,,,,,,,403745,001,2024-11-28_11h03.29.561,Test,2024.2.4,None,2024-11-28 11h03.35.563137 +0100,
5,150,0,13,None,23,23,0,False,,,,right,0.7265276670223102,None,,,,,,,,,,,,,0,23,23,23,511.9188350830227,,,,,,,,,,,,,,,,,,,,,,,,,,,,,,,,,,,,,,,,,,,,,,,,,,,,,,,,,,,,,,,,,,,,,,511.91204350002226,511.9188350830227,512.9076023329981,513.9028545830224,513.9028545830224,513.9028545830224,514.6380953330081,right,0.7265276670223102,None,,,,,,,,403745,001,2024-11-28_11h03.29.561,Test,2024.2.4,None,2024-11-28 11h03.35.563137 +0100,
35,150,180,18,None,24,24,0,False,,,,left,0.7563201669836417,None,,,,,,,,,,,,,0,24,24,24,514.6522095410037,,,,,,,,,,,,,,,,,,,,,,,,,,,,,,,,,,,,,,,,,,,,,,,,,,,,,,,,,,,,,,,,,,,,,,514.6455615000159,514.6522095410037,515.6413925829984,516.6360596660234,516.6360596660234,516.6360596660234,517.3946752909978,left,0.7563201669836417,None,,,,,,,,403745,001,2024-11-28_11h03.29.561,Test,2024.2.4,None,2024-11-28 11h03.35.563137 +0100,
20,150,90,11,None,25,25,0,False,,,,left,1.053830291988561,None,,,,,,,,,,,,,0,25,25,25,517.4112529999984,,,,,,,,,,,,,,,,,,,,,,,,,,,,,,,,,,,,,,,,,,,,,,,,,,,,,,,,,,,,,,,,,,,,,,517.405276000005,517.4112529999984,518.4078517080052,519.3950525830151,519.3950525830151,519.3950525830151,520.455475499999,left,1.053830291988561,None,,,,,,,,403745,001,2024-11-28_11h03.29.561,Test,2024.2.4,None,2024-11-28 11h03.35.563137 +0100,
14,150,60,12,None,26,26,0,False,,,,left,1.1464320420054719,None,,,,,,,,,,,,,0,26,26,26,520.4702709160047,,,,,,,,,,,,,,,,,,,,,,,,,,,,,,,,,,,,,,,,,,,,,,,,,,,,,,,,,,,,,,,,,,,,,,520.4644302079978,520.4702709160047,521.4692372080171,522.4527654999983,522.4527654999983,522.4527654999983,523.6045787910116,left,1.1464320420054719,None,,,,,,,,403745,001,2024-11-28_11h03.29.561,Test,2024.2.4,None,2024-11-28 11h03.35.563137 +0100,
40,150,0,65,None,27,27,0,True,,,,right,0.9409864999761339,None,,,,,,,,,,,,,0,27,27,27,523.619213708007,,,,,,,,,,,,,,,,,,,,,,,,,,,,,,,,,,,,,,,,,,,,,,,,,,,,,,,,,,,,,,,,,,,,,,523.6125472910062,523.619213708007,524.6079512500146,525.6026871660142,525.6026871660142,525.6026871660142,526.5547946250008,right,0.9409864999761339,None,,,,,,,,403745,001,2024-11-28_11h03.29.561,Test,2024.2.4,None,2024-11-28 11h03.35.563137 +0100,
53,150,90,64,None,28,28,0,True,,,,right,0.8211770000052638,None,,,,,,,,,,,,,0,28,28,28,526.569978375017,,,,,,,,,,,,,,,,,,,,,,,,,,,,,,,,,,,,,,,,,,,,,,,,,,,,,,,,,,,,,,,,,,,,,,526.5635355830018,526.569978375017,527.5569655410072,528.552691208024,528.552691208024,528.552691208024,529.3776229160139,right,0.8211770000052638,None,,,,,,,,403745,001,2024-11-28_11h03.29.561,Test,2024.2.4,None,2024-11-28 11h03.35.563137 +0100,
17,150,90,5,None,29,29,0,False,,,,right,0.7777588329918217,None,,,,,,,,,,,,,0,29,29,29,529.3929686660122,,,,,,,,,,,,,,,,,,,,,,,,,,,,,,,,,,,,,,,,,,,,,,,,,,,,,,,,,,,,,,,,,,,,,,529.386696875008,529.3929686660122,530.3909502910101,531.3762488750217,531.3762488750217,531.3762488750217,532.1614495410176,right,0.7777588329918217,None,,,,,,,,403745,001,2024-11-28_11h03.29.561,Test,2024.2.4,None,2024-11-28 11h03.35.563137 +0100,
47,150,60,35,None,30,30,0,True,,,,left,0.8143713329918683,None,,,,,,,,,,,,,0,30,30,30,532.1762595830078,,,,,,,,,,,,,,,,,,,,,,,,,,,,,,,,,,,,,,,,,,,,,,,,,,,,,,,,,,,,,,,,,,,,,,532.1700710410078,532.1762595830078,533.1744692909997,534.1596671660081,534.1596671660081,534.1596671660081,534.9768912080035,left,0.8143713329918683,None,,,,,,,,403745,001,2024-11-28_11h03.29.561,Test,2024.2.4,None,2024-11-28 11h03.35.563137 +0100,
49,150,60,32,None,31,31,0,True,,,,right,0.5655682920187246,None,,,,,,,,,,,,,0,31,31,31,534.9915395410208,,,,,,,,,,,,,,,,,,,,,,,,,,,,,,,,,,,,,,,,,,,,,,,,,,,,,,,,,,,,,,,,,,,,,,534.9856094999996,534.9915395410208,535.9858686660009,536.9782021660067,536.9782021660067,536.9782021660067,537.554528291017,right,0.5655682920187246,None,,,,,,,,403745,001,2024-11-28_11h03.29.561,Test,2024.2.4,None,2024-11-28 11h03.35.563137 +0100,
31,150,180,34,None,32,32,0,False,,,,right,0.683530249982141,None,,,,,,,,,,,,,0,32,32,32,537.5699337080005,,,,,,,,,,,,,,,,,,,,,,,,,,,,,,,,,,,,,,,,,,,,,,,,,,,,,,,,,,,,,,,,,,,,,,537.5633634580008,537.5699337080005,538.5569921660062,539.5527036249987,539.5527036249987,539.5527036249987,540.2385169160261,right,0.683530249982141,None,,,,,,,,403745,001,2024-11-28_11h03.29.561,Test,2024.2.4,None,2024-11-28 11h03.35.563137 +0100,
16,150,90,22,None,33,33,0,False,,,,left,0.9835193330072798,None,,,,,,,,,,,,,0,33,33,33,540.2539490830095,,,,,,,,,,,,,,,,,,,,,,,,,,,,,,,,,,,,,,,,,,,,,,,,,,,,,,,,,,,,,,,,,,,,,,540.2474527080194,540.2539490830095,541.252659040998,542.2360694580129,542.2360694580129,542.2360694580129,543.2223597080156,left,0.9835193330072798,None,,,,,,,,403745,001,2024-11-28_11h03.29.561,Test,2024.2.4,None,2024-11-28 11h03.35.563137 +0100,
59,150,120,37,None,34,34,0,True,,,,left,1.1343729170039296,None,,,,,,,,,,,,,0,34,34,34,543.2370123750006,,,,,,,,,,,,,,,,,,,,,,,,,,,,,,,,,,,,,,,,,,,,,,,,,,,,,,,,,,,,,,,,,,,,,,543.2307974580035,543.2370123750006,544.2359050410159,545.2194882500044,545.2194882500044,545.2194882500044,546.3609502910112,left,1.1343729170039296,None,,,,,,,,403745,001,2024-11-28_11h03.29.561,Test,2024.2.4,None,2024-11-28 11h03.35.563137 +0100,
51,150,90,45,None,35,35,0,True,,,,left,0.9268682499823626,None,,,,,,,,,,,,,0,35,35,35,546.3751683330047,,,,,,,,,,,,,,,,,,,,,,,,,,,,,,,,,,,,,,,,,,,,,,,,,,,,,,,,,,,,,,,,,,,,,,546.3691792910104,546.3751683330047,547.3693233750237,548.360545500007,548.360545500007,548.360545500007,549.2940099160187,left,0.9268682499823626,None,,,,,,,,403745,001,2024-11-28_11h03.29.561,Test,2024.2.4,None,2024-11-28 11h03.35.563137 +0100,
15,150,60,33,None,36,36,0,False,,,,right,0.7146687500062399,None,,,,,,,,,,,,,0,36,36,36,549.3086918330227,,,,,,,,,,,,,,,,,,,,,,,,,,,,,,,,,,,,,,,,,,,,,,,,,,,,,,,,,,,,,,,,,,,,,,549.3027683750261,549.3086918330227,550.3025355410064,551.2930615000078,551.2930615000078,551.2930615000078,552.0109363750089,right,0.7146687500062399,None,,,,,,,,403745,001,2024-11-28_11h03.29.561,Test,2024.2.4,None,2024-11-28 11h03.35.563137 +0100,
19,150,90,46,None,37,37,0,False,,,,right,0.7499614589905832,None,,,,,,,,,,,,,0,37,37,37,552.025000499998,,,,,,,,,,,,,,,,,,,,,,,,,,,,,,,,,,,,,,,,,,,,,,,,,,,,,,,,,,,,,,,,,,,,,,552.0187104160141,552.025000499998,553.0190919160086,554.0096057080082,554.0096057080082,554.0096057080082,554.7618609160127,right,0.7499614589905832,None,,,,,,,,403745,001,2024-11-28_11h03.29.561,Test,2024.2.4,None,2024-11-28 11h03.35.563137 +0100,
44,150,30,10,None,38,38,0,True,,,,left,0.8049006669898517,None,,,,,,,,,,,,,0,38,38,38,554.7765427500126,,,,,,,,,,,,,,,,,,,,,,,,,,,,,,,,,,,,,,,,,,,,,,,,,,,,,,,,,,,,,,,,,,,,,,554.7705890409998,554.7765427500126,555.7742965409998,556.7605145410053,556.7605145410053,556.7605145410053,557.5712398330215,left,0.8049006669898517,None,,,,,,,,403745,001,2024-11-28_11h03.29.561,Test,2024.2.4,None,2024-11-28 11h03.35.563137 +0100,
67,150,180,14,None,39,39,0,True,,,,right,0.7307434589893091,None,,,,,,,,,,,,,0,39,39,39,557.5866947500035,,,,,,,,,,,,,,,,,,,,,,,,,,,,,,,,,,,,,,,,,,,,,,,,,,,,,,,,,,,,,,,,,,,,,,557.5800676250074,557.5866947500035,558.5741209580156,559.5694040830131,559.5694040830131,559.5694040830131,560.3046314580133,right,0.7307434589893091,None,,,,,,,,403745,001,2024-11-28_11h03.29.561,Test,2024.2.4,None,2024-11-28 11h03.35.563137 +0100,
7,150,30,51,None,40,40,0,False,,,,left,1.2005848340049852,None,,,,,,,,,,,,,0,40,40,40,560.3193656250078,,,,,,,,,,,,,,,,,,,,,,,,,,,,,,,,,,,,,,,,,,,,,,,,,,,,,,,,,,,,,,,,,,,,,,560.3134462500166,560.3193656250078,561.3075245000073,562.3027374579979,562.3027374579979,562.3027374579979,563.5137222910125,left,1.2005848340049852,None,,,,,,,,403745,001,2024-11-28_11h03.29.561,Test,2024.2.4,None,2024-11-28 11h03.35.563137 +0100,
21,150,120,25,None,41,41,0,False,,,,right,1.6111623750184663,None,,,,,,,,,,,,,0,41,41,41,563.5258564160031,,,,,,,,,,,,,,,,,,,,,,,,,,,,,,,,,,,,,,,,,,,,,,,,,,,,,,,,,,,,,,,,,,,,,,563.5210979580006,563.5258564160031,564.5192964160233,565.5107270410226,565.5107270410226,565.5107270410226,567.12723254101,right,1.6111623750184663,None,,,,,,,,403745,001,2024-11-28_11h03.29.561,Test,2024.2.4,None,2024-11-28 11h03.35.563137 +0100,
63,150,150,39,None,42,42,0,True,,,,left,1.2794069579977077,None,,,,,,,,,,,,,0,42,42,42,567.1421504160098,,,,,,,,,,,,,,,,,,,,,,,,,,,,,,,,,,,,,,,,,,,,,,,,,,,,,,,,,,,,,,,,,,,,,,567.1357711660094,567.1421504160098,568.1359011250024,569.1267652079987,569.1267652079987,569.1267652079987,570.4108533330145,left,1.2794069579977077,None,,,,,,,,403745,001,2024-11-28_11h03.29.561,Test,2024.2.4,None,2024-11-28 11h03.35.563137 +0100,
6,150,30,60,None,43,43,0,False,,,,right,0.8096647089987528,None,,,,,,,,,,,,,0,43,43,43,570.4237931250245,,,,,,,,,,,,,,,,,,,,,,,,,,,,,,,,,,,,,,,,,,,,,,,,,,,,,,,,,,,,,,,,,,,,,,570.4182386250177,570.4237931250245,571.4192295000248,572.4103902080096,572.4103902080096,572.4103902080096,573.2312044580176,right,0.8096647089987528,None,,,,,,,,403745,001,2024-11-28_11h03.29.561,Test,2024.2.4,None,2024-11-28 11h03.35.563137 +0100,
25,150,120,42,None,44,44,0,False,,,,right,1.532590375019936,None,,,,,,,,,,,,,0,44,44,44,573.2436235409987,,,,,,,,,,,,,,,,,,,,,,,,,,,,,,,,,,,,,,,,,,,,,,,,,,,,,,,,,,,,,,,,,,,,,,573.2390012910182,573.2436235409987,574.2417007910262,575.227074666007,575.227074666007,575.227074666007,576.7618530830077,right,1.532590375019936,None,,,,,,,,403745,001,2024-11-28_11h03.29.561,Test,2024.2.4,None,2024-11-28 11h03.35.563137 +0100,
10,150,30,59,None,45,45,0,False,,,,left,1.0000626249820925,None,,,,,,,,,,,,,0,45,45,45,576.7768597500108,,,,,,,,,,,,,,,,,,,,,,,,,,,,,,,,,,,,,,,,,,,,,,,,,,,,,,,,,,,,,,,,,,,,,,576.7703694580123,576.7768597500108,577.7741434580239,578.7590302080207,578.7590302080207,578.7590302080207,579.7612763330108,left,1.0000626249820925,None,,,,,,,,403745,001,2024-11-28_11h03.29.561,Test,2024.2.4,None,2024-11-28 11h03.35.563137 +0100,
29,150,150,53,None,46,46,0,False,,,,left,1.2857977079984266,None,,,,,,,,,,,,,0,46,46,46,579.7758117910125,,,,,,,,,,,,,,,,,,,,,,,,,,,,,,,,,,,,,,,,,,,,,,,,,,,,,,,,,,,,,,,,,,,,,,579.7695055830118,579.7758117910125,580.7745319160167,581.7598157080065,581.7598157080065,581.7598157080065,583.0548427080212,left,1.2857977079984266,None,,,,,,,,403745,001,2024-11-28_11h03.29.561,Test,2024.2.4,None,2024-11-28 11h03.35.563137 +0100,
57,150,120,62,None,47,47,0,True,,,,left,0.9853084160131402,None,,,,,,,,,,,,,0,47,47,47,583.0722211660177,,,,,,,,,,,,,,,,,,,,,,,,,,,,,,,,,,,,,,,,,,,,,,,,,,,,,,,,,,,,,,,,,,,,,,583.0663870830031,583.0722211660177,584.0692760829988,585.0511112500099,585.0511112500099,585.0511112500099,586.0394341250067,left,0.9853084160131402,None,,,,,,,,403745,001,2024-11-28_11h03.29.561,Test,2024.2.4,None,2024-11-28 11h03.35.563137 +0100,
28,150,150,15,None,48,48,0,False,,,,right,1.0893388339900412,None,,,,,,,,,,,,,0,48,48,48,586.0540684580046,,,,,,,,,,,,,,,,,,,,,,,,,,,,,,,,,,,,,,,,,,,,,,,,,,,,,,,,,,,,,,,,,,,,,,586.0484388330078,586.0540684580046,587.0525339580199,588.0361665410164,588.0361665410164,588.0361665410164,589.1280150000239,right,1.0893388339900412,None,,,,,,,,403745,001,2024-11-28_11h03.29.561,Test,2024.2.4,None,2024-11-28 11h03.35.563137 +0100,
39,150,0,6,None,49,49,0,True,,,,left,1.061240875016665,None,,,,,,,,,,,,,0,49,49,49,589.1431331660133,,,,,,,,,,,,,,,,,,,,,,,,,,,,,,,,,,,,,,,,,,,,,,,,,,,,,,,,,,,,,,,,,,,,,,589.1371776250016,589.1431331660133,590.1408272080007,591.126212291012,591.126212291012,591.126212291012,592.1949539160123,left,1.061240875016665,None,,,,,,,,403745,001,2024-11-28_11h03.29.561,Test,2024.2.4,None,2024-11-28 11h03.35.563137 +0100,
18,150,90,66,None,50,50,0,False,,,,right,1.2698556249961257,None,,,,,,,,,,,,,0,50,50,50,592.2097104580025,,,,,,,,,,,,,,,,,,,,,,,,,,,,,,,,,,,,,,,,,,,,,,,,,,,,,,,,,,,,,,,,,,,,,,592.203277624998,592.2097104580025,593.2077303750266,594.1936622910143,594.1936622910143,594.1936622910143,595.4718347080052,right,1.2698556249961257,None,,,,,,,,403745,001,2024-11-28_11h03.29.561,Test,2024.2.4,None,2024-11-28 11h03.35.563137 +0100,
62,150,150,44,None,51,51,0,True,,,,left,1.1596281249949243,None,,,,,,,,,,,,,0,51,51,51,595.4869902500068,,,,,,,,,,,,,,,,,,,,,,,,,,,,,,,,,,,,,,,,,,,,,,,,,,,,,,,,,,,,,,,,,,,,,,595.4801612910233,595.4869902500068,596.485834416002,597.4694687080046,597.4694687080046,597.4694687080046,598.6380524580018,left,1.1596281249949243,None,,,,,,,,403745,001,2024-11-28_11h03.29.561,Test,2024.2.4,None,2024-11-28 11h03.35.563137 +0100,
30,150,150,8,None,52,52,0,False,,,,left,1.2752898749895394,None,,,,,,,,,,,,,0,52,52,52,598.6531662500056,,,,,,,,,,,,,,,,,,,,,,,,,,,,,,,,,,,,,,,,,,,,,,,,,,,,,,,,,,,,,,,,,,,,,,598.646807208017,598.6531662500056,599.6403511660174,600.6361504580127,600.6361504580127,600.6361504580127,601.9215312500019,left,1.2752898749895394,None,,,,,,,,403745,001,2024-11-28_11h03.29.561,Test,2024.2.4,None,2024-11-28 11h03.35.563137 +0100,
66,150,180,43,None,53,53,0,True,,,,left,1.2169661249790806,None,,,,,,,,,,,,,0,53,53,53,601.9363626660197,,,,,,,,,,,,,,,,,,,,,,,,,,,,,,,,,,,,,,,,,,,,,,,,,,,,,,,,,,,,,,,,,,,,,,601.9301440830168,601.9363626660197,602.9250362500024,603.9193247500225,603.9193247500225,603.9193247500225,605.138636208023,left,1.2169661249790806,None,,,,,,,,403745,001,2024-11-28_11h03.29.561,Test,2024.2.4,None,2024-11-28 11h03.35.563137 +0100,
70,150,180,58,None,54,54,0,True,,,,left,0.991781707998598,None,,,,,,,,,,,,,0,54,54,54,605.1530864580127,,,,,,,,,,,,,,,,,,,,,,,,,,,,,,,,,,,,,,,,,,,,,,,,,,,,,,,,,,,,,,,,,,,,,,605.1469280410092,605.1530864580127,606.1402601660229,607.136018833,607.136018833,607.136018833,608.1379743330181,left,0.991781707998598,None,,,,,,,,403745,001,2024-11-28_11h03.29.561,Test,2024.2.4,None,2024-11-28 11h03.35.563137 +0100,
38,150,0,50,None,55,55,0,True,,,,right,0.8843168749881443,None,,,,,,,,,,,,,0,55,55,55,608.1533922910166,,,,,,,,,,,,,,,,,,,,,,,,,,,,,,,,,,,,,,,,,,,,,,,,,,,,,,,,,,,,,,,,,,,,,,608.1466936250217,608.1533922910166,609.1411207500205,610.1359478330123,610.1359478330123,610.1359478330123,611.031102375011,right,0.8843168749881443,None,,,,,,,,403745,001,2024-11-28_11h03.29.561,Test,2024.2.4,None,2024-11-28 11h03.35.563137 +0100,
58,150,120,54,None,56,56,0,True,,,,left,1.0189938340045046,None,,,,,,,,,,,,,0,56,56,56,611.0428801660019,,,,,,,,,,,,,,,,,,,,,,,,,,,,,,,,,,,,,,,,,,,,,,,,,,,,,,,,,,,,,,,,,,,,,,611.0383395000244,611.0428801660019,612.0407052910014,613.0265426250116,613.0265426250116,613.0265426250116,614.0553805830132,left,1.0189938340045046,None,,,,,,,,403745,001,2024-11-28_11h03.29.561,Test,2024.2.4,None,2024-11-28 11h03.35.563137 +0100,
24,150,120,4,None,57,57,0,False,,,,right,1.175331999984337,None,,,,,,,,,,,,,0,57,57,57,614.0709800830227,,,,,,,,,,,,,,,,,,,,,,,,,,,,,,,,,,,,,,,,,,,,,,,,,,,,,,,,,,,,,,,,,,,,,,614.0642857500061,614.0709800830227,615.069196166005,616.0527966250083,616.0527966250083,616.0527966250083,617.2380119580193,right,1.175331999984337,None,,,,,,,,403745,001,2024-11-28_11h03.29.561,Test,2024.2.4,None,2024-11-28 11h03.35.563137 +0100,
2,150,0,55,None,58,58,0,False,,,,right,1.4739647090027574,None,,,,,,,,,,,,,0,58,58,58,617.2536267910036,,,,,,,,,,,,,,,,,,,,,,,,,,,,,,,,,,,,,,,,,,,,,,,,,,,,,,,,,,,,,,,,,,,,,,617.2468607909977,617.2536267910036,618.2524838329991,619.2360941660008,619.2360941660008,619.2360941660008,620.7213469160197,right,1.4739647090027574,None,,,,,,,,403745,001,2024-11-28_11h03.29.561,Test,2024.2.4,None,2024-11-28 11h03.35.563137 +0100,
48,150,60,47,None,59,59,0,True,,,,left,1.1216322079999372,None,,,,,,,,,,,,,0,59,59,59,620.736103208008,,,,,,,,,,,,,,,,,,,,,,,,,,,,,,,,,,,,,,,,,,,,,,,,,,,,,,,,,,,,,,,,,,,,,,620.7295417080168,620.736103208008,621.7246299580147,622.7192153330252,622.7192153330252,622.7192153330252,623.8441112910223,left,1.1216322079999372,None,,,,,,,,403745,001,2024-11-28_11h03.29.561,Test,2024.2.4,None,2024-11-28 11h03.35.563137 +0100,
56,150,120,17,None,60,60,0,True,,,,left,0.7054812079877593,None,,,,,,,,,,,,,0,60,60,60,623.8585485410003,,,,,,,,,,,,,,,,,,,,,,,,,,,,,,,,,,,,,,,,,,,,,,,,,,,,,,,,,,,,,,,,,,,,,,623.852578416001,623.8585485410003,624.8525250000239,625.8430281250039,625.8430281250039,625.8430281250039,626.5550450830196,left,0.7054812079877593,None,,,,,,,,403745,001,2024-11-28_11h03.29.561,Test,2024.2.4,None,2024-11-28 11h03.35.563137 +0100,
55,150,90,30,None,61,61,0,True,,,,left,0.7017571660107933,None,,,,,,,,,,,,,0,61,61,61,626.5693829579977,,,,,,,,,,,,,,,,,,,,,,,,,,,,,,,,,,,,,,,,,,,,,,,,,,,,,,,,,,,,,,,,,,,,,,626.5635939160129,626.5693829579977,627.5571150410105,628.5526440830145,628.5526440830145,628.5526440830145,629.2606058329984,left,0.7017571660107933,None,,,,,,,,403745,001,2024-11-28_11h03.29.561,Test,2024.2.4,None,2024-11-28 11h03.35.563137 +0100,
45,150,30,56,None,62,62,0,True,,,,left,0.8627778749796562,None,,,,,,,,,,,,,0,62,62,62,629.2748780830007,,,,,,,,,,,,,,,,,,,,,,,,,,,,,,,,,,,,,,,,,,,,,,,,,,,,,,,,,,,,,,,,,,,,,,629.268537875003,629.2748780830007,630.2692055830266,631.2600927910244,631.2600927910244,631.2600927910244,632.1274126660137,left,0.8627778749796562,None,,,,,,,,403745,001,2024-11-28_11h03.29.561,Test,2024.2.4,None,2024-11-28 11h03.35.563137 +0100,
9,150,30,29,None,63,63,0,False,,,,left,0.6595791250001639,None,,,,,,,,,,,,,0,63,63,63,632.1413306660252,,,,,,,,,,,,,,,,,,,,,,,,,,,,,,,,,,,,,,,,,,,,,,,,,,,,,,,,,,,,,,,,,,,,,,632.1351987500093,632.1413306660252,633.1359249160159,634.1264936250227,634.1264936250227,634.1264936250227,634.7885571250226,left,0.6595791250001639,None,,,,,,,,403745,001,2024-11-28_11h03.29.561,Test,2024.2.4,None,2024-11-28 11h03.35.563137 +0100,
33,150,180,38,None,64,64,0,False,,,,left,1.190268875012407,None,,,,,,,,,,,,,0,64,64,64,634.8031337080174,,,,,,,,,,,,,,,,,,,,,,,,,,,,,,,,,,,,,,,,,,,,,,,,,,,,,,,,,,,,,,,,,,,,,,634.7967184580048,634.8031337080174,635.7901239159983,636.7858363330015,636.7858363330015,636.7858363330015,637.978322666022,left,1.190268875012407,None,,,,,,,,403745,001,2024-11-28_11h03.29.561,Test,2024.2.4,None,2024-11-28 11h03.35.563137 +0100,
11,150,60,70,None,65,65,0,False,,,,right,0.8994723329960834,None,,,,,,,,,,,,,0,65,65,65,637.9938673750148,,,,,,,,,,,,,,,,,,,,,,,,,,,,,,,,,,,,,,,,,,,,,,,,,,,,,,,,,,,,,,,,,,,,,,637.9870535000227,637.9938673750148,638.9907007910078,639.9771664580039,639.9771664580039,639.9771664580039,640.8880362080235,right,0.8994723329960834,None,,,,,,,,403745,001,2024-11-28_11h03.29.561,Test,2024.2.4,None,2024-11-28 11h03.35.563137 +0100,
36,150,0,49,None,66,66,0,True,,,,left,0.8035920840047766,None,,,,,,,,,,,,,0,66,66,66,640.9029586250253,,,,,,,,,,,,,,,,,,,,,,,,,,,,,,,,,,,,,,,,,,,,,,,,,,,,,,,,,,,,,,,,,,,,,,640.8966171250213,640.9029586250253,641.8912168329989,642.8860717909993,642.8860717909993,642.8860717909993,643.6946705410082,left,0.8035920840047766,None,,,,,,,,403745,001,2024-11-28_11h03.29.561,Test,2024.2.4,None,2024-11-28 11h03.35.563137 +0100,
61,150,150,28,None,67,67,0,True,,,,right,0.9215269580017775,None,,,,,,,,,,,,,0,67,67,67,643.7087118750205,,,,,,,,,,,,,,,,,,,,,,,,,,,,,,,,,,,,,,,,,,,,,,,,,,,,,,,,,,,,,,,,,,,,,,643.7027655830025,643.7087118750205,644.708348041022,645.6931280830177,645.6931280830177,645.6931280830177,646.6212305000226,right,0.9215269580017775,None,,,,,,,,403745,001,2024-11-28_11h03.29.561,Test,2024.2.4,None,2024-11-28 11h03.35.563137 +0100,
23,150,120,52,None,68,68,0,False,,,,left,1.4172298339835834,None,,,,,,,,,,,,,0,68,68,68,646.6360247080156,,,,,,,,,,,,,,,,,,,,,,,,,,,,,,,,,,,,,,,,,,,,,,,,,,,,,,,,,,,,,,,,,,,,,,646.62977650002,646.6360247080156,647.6241346250172,648.6194045410084,648.6194045410084,648.6194045410084,650.0473940000229,left,1.4172298339835834,None,,,,,,,,403745,001,2024-11-28_11h03.29.561,Test,2024.2.4,None,2024-11-28 11h03.35.563137 +0100,
1,150,0,26,None,69,69,0,False,,,,right,0.7567032080260105,None,,,,,,,,,,,,,0,69,69,69,650.0593238750007,,,,,,,,,,,,,,,,,,,,,,,,,,,,,,,,,,,,,,,,,,,,,,,,,,,,,,,,,,,,,,,,,,,,,,650.0546062080248,650.0593238750007,651.0583966660197,652.0437957080139,652.0437957080139,652.0437957080139,652.8046726250031,right,0.7567032080260105,None,,,,,,,,403745,001,2024-11-28_11h03.29.561,Test,2024.2.4,None,2024-11-28 11h03.35.563137 +0100,
,,,,,,,,,,,,,,,,,,,,,,,,,,,,,,,,,,,,,,,,,,,,,,,,,,,,,,,,,,,,,,,,,,,,,,,,,,,,,,,,,,,,,,,,,,,,,,,,,,,,,,,,,,,,,,,652.8049977080082,652.8142235830019,652.8142235830019,658.3046542500088,space,5.482899333990645,None,403745,001,2024-11-28_11h03.29.561,Test,2024.2.4,None,2024-11-28 11h03.35.563137 +0100,
