Trial_Number,Exposure_Duration,Displacement_Angle,Stimulus,Response,thisN,thisTrialN,thisRepN,Is_Distractor,key_resp_3.keys,key_resp_3.rt,key_resp_3.duration,key_resp_7.keys,key_resp_7.rt,key_resp_7.duration,trials.thisRepN,trials.thisTrialN,trials.thisN,trials.thisIndex,trials_2.thisRepN,trials_2.thisTrialN,trials_2.thisN,trials_2.thisIndex,trials_3.thisRepN,trials_3.thisTrialN,trials_3.thisN,trials_3.thisIndex,trials_4.thisRepN,trials_4.thisTrialN,trials_4.thisN,trials_4.thisIndex,thisRow.t,notes,Intro_to_experiment.started,important1_2.started,key_resp_8.started,Intro_to_experiment.stopped,key_resp_8.keys,key_resp_8.rt,key_resp_8.duration,important.started,important1.started,key_resp_4.started,important.stopped,key_resp_4.keys,key_resp_4.rt,key_resp_4.duration,training_instruction.started,key_resp_9.started,important1_3.started,training_instruction.stopped,key_resp_9.keys,key_resp_9.rt,key_resp_9.duration,training_trial.started,cross.started,image.started,aperture.started,cross.stopped,image.stopped,aperture.stopped,training_trial.stopped,New_instruction.started,text.started,key_resp_2.started,New_instruction.stopped,key_resp_2.keys,key_resp_2.rt,key_resp_2.duration,test_trial.started,cross2.started,cross2.stopped,image_2.started,key_resp_3.started,aperture_2.started,test_trial.stopped,trials_2.key_resp_3.keys,trials_2.key_resp_3.rt,trials_2.key_resp_3.duration,image_2.stopped,text_3.started,aperture_2.stopped,start_blok_2.started,key_resp_5.started,text_4.started,start_blok_2.stopped,key_resp_5.keys,key_resp_5.rt,key_resp_5.duration,training_2.started,cross_2.started,image_3.started,aperture_3.started,cross_2.stopped,image_3.stopped,aperture_3.stopped,training_2.stopped,nyeste_instruks.started,text_5.started,key_resp_6.started,nyeste_instruks.stopped,key_resp_6.keys,key_resp_6.rt,key_resp_6.duration,test_2.started,cross2_2.started,cross2_2.stopped,image_4.started,key_resp_7.started,aperture_4.started,test_2.stopped,trials_4.key_resp_7.keys,trials_4.key_resp_7.rt,trials_4.key_resp_7.duration,image_4.stopped,aperture_4.stopped,text_6.started,Instruction.started,Instruktion.started,key_resp.started,Instruction.stopped,key_resp.keys,key_resp.rt,key_resp.duration,participant,session,date,expName,psychopyVersion,frameRate,expStart,
,,,,,,,,,,,,,,,,,,,,,,,,,,,,,,,,,0.007410791993606836,0.013041125028394163,0.013041125028394163,41.242155500047375,space,41.18014829099411,None,,,,,,,,,,,,,,,,,,,,,,,,,,,,,,,,,,,,,,,,,,,,,,,,,,,,,,,,,,,,,,,,,,,,,,,,,,,,,,,,,,,,,405679,001,2024-12-05_13h30.39.909,Test,2024.2.4,None,2024-12-05 13h30.46.276688 +0100,
,,,,,,,,,,,,,,,,,,,,,,,,,,,,,,,,,,,,,,,,41.24238004203653,41.247260667034425,41.247260667034425,61.24709008302307,space,19.9975534590194,None,,,,,,,,,,,,,,,,,,,,,,,,,,,,,,,,,,,,,,,,,,,,,,,,,,,,,,,,,,,,,,,,,,,,,,,,,,,,,,405679,001,2024-12-05_13h30.39.909,Test,2024.2.4,None,2024-12-05 13h30.46.276688 +0100,
,,,,,,,,,,,,,,,,,,,,,,,,,,,,,,,,,,,,,,,,,,,,,,,61.24716170801548,61.26653275004355,61.26653275004355,74.50109783303924,space,13.229482624970842,None,,,,,,,,,,,,,,,,,,,,,,,,,,,,,,,,,,,,,,,,,,,,,,,,,,,,,,,,,,,,,,,,,,,,,,,405679,001,2024-12-05_13h30.39.909,Test,2024.2.4,None,2024-12-05 13h30.46.276688 +0100,
30,150,150,47,None,0,0,0,,,,,,,,0,0,0,29,,,,,,,,,,,,,74.56300600001123,,,,,,,,,,,,,,,,,,,,,,,74.5581734169973,74.56300600001123,74.69255008304026,74.69255008304026,74.7594838750083,76.40528320800513,76.40528320800513,76.37933891703142,,,,,,,,,,,,,,,,,,,,,,,,,,,,,,,,,,,,,,,,,,,,,,,,,,,,,,,,,,,,,,,405679,001,2024-12-05_13h30.39.909,Test,2024.2.4,None,2024-12-05 13h30.46.276688 +0100,
14,150,60,20,None,1,1,0,,,,,,,,0,1,1,13,,,,,,,,,,,,,76.40528320800513,,,,,,,,,,,,,,,,,,,,,,,76.38580016704509,76.42187120800372,76.59469816699857,76.59469816699857,76.61055495799519,78.28751095803455,78.28751095803455,78.27927154203644,,,,,,,,,,,,,,,,,,,,,,,,,,,,,,,,,,,,,,,,,,,,,,,,,,,,,,,,,,,,,,,405679,001,2024-12-05_13h30.39.909,Test,2024.2.4,None,2024-12-05 13h30.46.276688 +0100,
29,150,150,59,None,2,2,0,,,,,,,,0,2,2,28,,,,,,,,,,,,,78.28751095803455,,,,,,,,,,,,,,,,,,,,,,,78.2845877080108,78.29256879200693,78.49427333299536,78.49427333299536,78.48858662502607,80.18768491700757,80.18768491700757,80.17948279203847,,,,,,,,,,,,,,,,,,,,,,,,,,,,,,,,,,,,,,,,,,,,,,,,,,,,,,,,,,,,,,,405679,001,2024-12-05_13h30.39.909,Test,2024.2.4,None,2024-12-05 13h30.46.276688 +0100,
33,150,180,67,None,3,3,0,,,,,,,,0,3,3,32,,,,,,,,,,,,,80.18768491700757,,,,,,,,,,,,,,,,,,,,,,,80.1847263330128,80.19297829200514,80.39461316703819,80.39461316703819,80.38860187504906,82.08758712501731,82.08758712501731,82.07945158303482,,,,,,,,,,,,,,,,,,,,,,,,,,,,,,,,,,,,,,,,,,,,,,,,,,,,,,,,,,,,,,,405679,001,2024-12-05_13h30.39.909,Test,2024.2.4,None,2024-12-05 13h30.46.276688 +0100,
18,150,90,62,None,4,4,0,,,,,,,,0,4,4,17,,,,,,,,,,,,,82.08758712501731,,,,,,,,,,,,,,,,,,,,,,,82.08477762504481,82.09238312504021,82.29445220803609,82.29445220803609,82.28873191704042,83.98756070801755,83.98756070801755,83.97996762499679,,,,,,,,,,,,,,,,,,,,,,,,,,,,,,,,,,,,,,,,,,,,,,,,,,,,,,,,,,,,,,,405679,001,2024-12-05_13h30.39.909,Test,2024.2.4,None,2024-12-05 13h30.46.276688 +0100,
24,150,120,22,None,5,5,0,,,,,,,,0,5,5,23,,,,,,,,,,,,,83.98756070801755,,,,,,,,,,,,,,,,,,,,,,,83.98412675003055,83.99275766703067,84.19456462503877,84.19456462503877,84.18853500002297,85.88756075000856,85.88756075000856,85.87930150004104,,,,,,,,,,,,,,,,,,,,,,,,,,,,,,,,,,,,,,,,,,,,,,,,,,,,,,,,,,,,,,,405679,001,2024-12-05_13h30.39.909,Test,2024.2.4,None,2024-12-05 13h30.46.276688 +0100,
26,150,150,44,None,6,6,0,,,,,,,,0,6,6,25,,,,,,,,,,,,,85.88756075000856,,,,,,,,,,,,,,,,,,,,,,,85.88468679203652,85.89276129199425,86.0944592920132,86.0944592920132,86.08853720803745,87.7881652500364,87.7881652500364,87.78005379199749,,,,,,,,,,,,,,,,,,,,,,,,,,,,,,,,,,,,,,,,,,,,,,,,,,,,,,,,,,,,,,,405679,001,2024-12-05_13h30.39.909,Test,2024.2.4,None,2024-12-05 13h30.46.276688 +0100,
13,150,60,35,None,7,7,0,,,,,,,,0,7,7,12,,,,,,,,,,,,,87.7881652500364,,,,,,,,,,,,,,,,,,,,,,,87.78548383299494,87.79351675004,87.99444783304352,87.99444783304352,87.98851562500931,89.68802425003378,89.68802425003378,89.68002725002589,,,,,,,,,,,,,,,,,,,,,,,,,,,,,,,,,,,,,,,,,,,,,,,,,,,,,,,,,,,,,,,405679,001,2024-12-05_13h30.39.909,Test,2024.2.4,None,2024-12-05 13h30.46.276688 +0100,
31,150,180,58,None,8,8,0,,,,,,,,0,8,8,30,,,,,,,,,,,,,89.68802425003378,,,,,,,,,,,,,,,,,,,,,,,89.68531600001734,89.69295041699661,89.89453945803689,89.89453945803689,89.88869270804571,91.58764458302176,91.58764458302176,91.57932816701941,,,,,,,,,,,,,,,,,,,,,,,,,,,,,,,,,,,,,,,,,,,,,,,,,,,,,,,,,,,,,,,405679,001,2024-12-05_13h30.39.909,Test,2024.2.4,None,2024-12-05 13h30.46.276688 +0100,
4,150,0,27,None,9,9,0,,,,,,,,0,9,9,3,,,,,,,,,,,,,91.58764458302176,,,,,,,,,,,,,,,,,,,,,,,91.5849556250032,91.59272466704715,91.79449825000484,91.79449825000484,91.78848358301912,93.48764583299635,93.48764583299635,93.47951075003948,,,,,,,,,,,,,,,,,,,,,,,,,,,,,,,,,,,,,,,,,,,,,,,,,,,,,,,,,,,,,,,405679,001,2024-12-05_13h30.39.909,Test,2024.2.4,None,2024-12-05 13h30.46.276688 +0100,
17,150,90,52,None,10,10,0,,,,,,,,0,10,10,16,,,,,,,,,,,,,93.48764583299635,,,,,,,,,,,,,,,,,,,,,,,93.48483962501632,93.49260900000809,93.6945069580106,93.6945069580106,93.68866220803466,95.38808100001188,95.38808100001188,95.3800850000116,,,,,,,,,,,,,,,,,,,,,,,,,,,,,,,,,,,,,,,,,,,,,,,,,,,,,,,,,,,,,,,405679,001,2024-12-05_13h30.39.909,Test,2024.2.4,None,2024-12-05 13h30.46.276688 +0100,
11,150,60,12,None,11,11,0,,,,,,,,0,11,11,10,,,,,,,,,,,,,95.38808100001188,,,,,,,,,,,,,,,,,,,,,,,95.38537062500836,95.39347404200817,95.59414050000487,95.59414050000487,95.58842833299423,97.28758154204115,97.28758154204115,97.27957987500122,,,,,,,,,,,,,,,,,,,,,,,,,,,,,,,,,,,,,,,,,,,,,,,,,,,,,,,,,,,,,,,405679,001,2024-12-05_13h30.39.909,Test,2024.2.4,None,2024-12-05 13h30.46.276688 +0100,
27,150,150,30,None,12,12,0,,,,,,,,0,12,12,26,,,,,,,,,,,,,97.28758154204115,,,,,,,,,,,,,,,,,,,,,,,97.2846060830052,97.29287750000367,97.4940232920344,97.4940232920344,97.48853366699768,99.19004116702126,99.19004116702126,99.18026900000405,,,,,,,,,,,,,,,,,,,,,,,,,,,,,,,,,,,,,,,,,,,,,,,,,,,,,,,,,,,,,,,405679,001,2024-12-05_13h30.39.909,Test,2024.2.4,None,2024-12-05 13h30.46.276688 +0100,
25,150,120,70,None,13,13,0,,,,,,,,0,13,13,24,,,,,,,,,,,,,99.19004116702126,,,,,,,,,,,,,,,,,,,,,,,99.1863846250344,99.20529529202031,99.39430362504208,99.39430362504208,99.39430362504208,101.08750470803352,101.08750470803352,101.07911383302417,,,,,,,,,,,,,,,,,,,,,,,,,,,,,,,,,,,,,,,,,,,,,,,,,,,,,,,,,,,,,,,405679,001,2024-12-05_13h30.39.909,Test,2024.2.4,None,2024-12-05 13h30.46.276688 +0100,
28,150,150,61,None,14,14,0,,,,,,,,0,14,14,27,,,,,,,,,,,,,101.08750470803352,,,,,,,,,,,,,,,,,,,,,,,101.08422079199227,101.09257416700711,101.29416912503075,101.29416912503075,101.28848049999215,102.98790237499634,102.98790237499634,102.97987725003622,,,,,,,,,,,,,,,,,,,,,,,,,,,,,,,,,,,,,,,,,,,,,,,,,,,,,,,,,,,,,,,405679,001,2024-12-05_13h30.39.909,Test,2024.2.4,None,2024-12-05 13h30.46.276688 +0100,
23,150,120,39,None,15,15,0,,,,,,,,0,15,15,22,,,,,,,,,,,,,102.98790237499634,,,,,,,,,,,,,,,,,,,,,,,102.98512729199138,102.992848917027,103.19407079200028,103.19407079200028,103.18855654203799,104.88771183299832,104.88771183299832,104.878848458,,,,,,,,,,,,,,,,,,,,,,,,,,,,,,,,,,,,,,,,,,,,,,,,,,,,,,,,,,,,,,,405679,001,2024-12-05_13h30.39.909,Test,2024.2.4,None,2024-12-05 13h30.46.276688 +0100,
5,150,0,55,None,16,16,0,,,,,,,,0,16,16,4,,,,,,,,,,,,,104.88771183299832,,,,,,,,,,,,,,,,,,,,,,,104.88489479204873,104.8929127920419,105.09433104202617,105.09433104202617,105.08862925000722,106.78816216700943,106.78816216700943,106.77980037499219,,,,,,,,,,,,,,,,,,,,,,,,,,,,,,,,,,,,,,,,,,,,,,,,,,,,,,,,,,,,,,,405679,001,2024-12-05_13h30.39.909,Test,2024.2.4,None,2024-12-05 13h30.46.276688 +0100,
10,150,30,42,None,17,17,0,,,,,,,,0,17,17,9,,,,,,,,,,,,,106.78816216700943,,,,,,,,,,,,,,,,,,,,,,,106.78548529202817,106.79310333303874,106.9941863330314,106.9941863330314,106.98849991703173,108.68744404200697,108.68744404200697,108.67916754202452,,,,,,,,,,,,,,,,,,,,,,,,,,,,,,,,,,,,,,,,,,,,,,,,,,,,,,,,,,,,,,,405679,001,2024-12-05_13h30.39.909,Test,2024.2.4,None,2024-12-05 13h30.46.276688 +0100,
15,150,60,2,None,18,18,0,,,,,,,,0,18,18,14,,,,,,,,,,,,,108.68744404200697,,,,,,,,,,,,,,,,,,,,,,,108.6840655830456,108.69253245799337,108.89424954203423,108.89424954203423,108.88861579203513,110.58754725003382,110.58754725003382,110.5795463329996,,,,,,,,,,,,,,,,,,,,,,,,,,,,,,,,,,,,,,,,,,,,,,,,,,,,,,,,,,,,,,,405679,001,2024-12-05_13h30.39.909,Test,2024.2.4,None,2024-12-05 13h30.46.276688 +0100,
34,150,180,28,None,19,19,0,,,,,,,,0,19,19,33,,,,,,,,,,,,,110.58754725003382,,,,,,,,,,,,,,,,,,,,,,,110.58454887499101,110.59274479199667,110.79469612502726,110.79469612502726,110.7885004170239,112.48746412503533,112.48746412503533,112.47930404200451,,,,,,,,,,,,,,,,,,,,,,,,,,,,,,,,,,,,,,,,,,,,,,,,,,,,,,,,,,,,,,,405679,001,2024-12-05_13h30.39.909,Test,2024.2.4,None,2024-12-05 13h30.46.276688 +0100,
35,150,180,56,None,20,20,0,,,,,,,,0,20,20,34,,,,,,,,,,,,,112.48746412503533,,,,,,,,,,,,,,,,,,,,,,,112.483709208027,112.49280875001568,112.69412150001153,112.69412150001153,112.68855795799755,114.38747916702414,114.38747916702414,114.37950550002279,,,,,,,,,,,,,,,,,,,,,,,,,,,,,,,,,,,,,,,,,,,,,,,,,,,,,,,,,,,,,,,405679,001,2024-12-05_13h30.39.909,Test,2024.2.4,None,2024-12-05 13h30.46.276688 +0100,
16,150,90,66,None,21,21,0,,,,,,,,0,21,21,15,,,,,,,,,,,,,114.38747916702414,,,,,,,,,,,,,,,,,,,,,,,114.38405150000472,114.39253508299589,114.5944264170248,114.5944264170248,114.58860829204787,116.28751733299578,116.28751733299578,116.27921929204604,,,,,,,,,,,,,,,,,,,,,,,,,,,,,,,,,,,,,,,,,,,,,,,,,,,,,,,,,,,,,,,405679,001,2024-12-05_13h30.39.909,Test,2024.2.4,None,2024-12-05 13h30.46.276688 +0100,
12,150,60,13,None,22,22,0,,,,,,,,0,22,22,11,,,,,,,,,,,,,116.28751733299578,,,,,,,,,,,,,,,,,,,,,,,116.28440320800291,116.29258912504883,116.49445366702275,116.49445366702275,116.48856145801255,118.19821195799159,118.19821195799159,118.1906761249993,,,,,,,,,,,,,,,,,,,,,,,,,,,,,,,,,,,,,,,,,,,,,,,,,,,,,,,,,,,,,,,405679,001,2024-12-05_13h30.39.909,Test,2024.2.4,None,2024-12-05 13h30.46.276688 +0100,
32,150,180,7,None,23,23,0,,,,,,,,0,23,23,31,,,,,,,,,,,,,118.19821195799159,,,,,,,,,,,,,,,,,,,,,,,118.19535662501585,118.19821195799159,118.3940951669938,118.3940951669938,118.3940951669938,120.08760870801052,120.08760870801052,120.07951912499266,,,,,,,,,,,,,,,,,,,,,,,,,,,,,,,,,,,,,,,,,,,,,,,,,,,,,,,,,,,,,,,405679,001,2024-12-05_13h30.39.909,Test,2024.2.4,None,2024-12-05 13h30.46.276688 +0100,
7,150,30,63,None,24,24,0,,,,,,,,0,24,24,6,,,,,,,,,,,,,120.08760870801052,,,,,,,,,,,,,,,,,,,,,,,120.08452541701263,120.09306899999501,120.29415941704065,120.29415941704065,120.28863437502878,121.98748650000198,121.98748650000198,121.97957137500634,,,,,,,,,,,,,,,,,,,,,,,,,,,,,,,,,,,,,,,,,,,,,,,,,,,,,,,,,,,,,,,405679,001,2024-12-05_13h30.39.909,Test,2024.2.4,None,2024-12-05 13h30.46.276688 +0100,
21,150,120,54,None,25,25,0,,,,,,,,0,25,25,20,,,,,,,,,,,,,121.98748650000198,,,,,,,,,,,,,,,,,,,,,,,121.98441658302909,121.9928912500036,122.1943559999927,122.1943559999927,122.18857045803452,123.88753641699441,123.88753641699441,123.87882199999876,,,,,,,,,,,,,,,,,,,,,,,,,,,,,,,,,,,,,,,,,,,,,,,,,,,,,,,,,,,,,,,405679,001,2024-12-05_13h30.39.909,Test,2024.2.4,None,2024-12-05 13h30.46.276688 +0100,
20,150,90,24,None,26,26,0,,,,,,,,0,26,26,19,,,,,,,,,,,,,123.88753641699441,,,,,,,,,,,,,,,,,,,,,,,123.88387491699541,123.89290016703308,124.09432837500935,124.09432837500935,124.0886332920054,125.78777654201258,125.78777654201258,125.77966320799896,,,,,,,,,,,,,,,,,,,,,,,,,,,,,,,,,,,,,,,,,,,,,,,,,,,,,,,,,,,,,,,405679,001,2024-12-05_13h30.39.909,Test,2024.2.4,None,2024-12-05 13h30.46.276688 +0100,
19,150,90,45,None,27,27,0,,,,,,,,0,27,27,18,,,,,,,,,,,,,125.78777654201258,,,,,,,,,,,,,,,,,,,,,,,125.78494212502846,125.79319170804229,125.99438375001773,125.99438375001773,125.98854908300564,127.6876260000281,127.6876260000281,127.67959045799216,,,,,,,,,,,,,,,,,,,,,,,,,,,,,,,,,,,,,,,,,,,,,,,,,,,,,,,,,,,,,,,405679,001,2024-12-05_13h30.39.909,Test,2024.2.4,None,2024-12-05 13h30.46.276688 +0100,
2,150,0,8,None,28,28,0,,,,,,,,0,28,28,1,,,,,,,,,,,,,127.6876260000281,,,,,,,,,,,,,,,,,,,,,,,127.68475958303316,127.69305504200747,127.89451229199767,127.89451229199767,127.88857779203681,129.5876775830402,129.5876775830402,129.5795922499965,,,,,,,,,,,,,,,,,,,,,,,,,,,,,,,,,,,,,,,,,,,,,,,,,,,,,,,,,,,,,,,405679,001,2024-12-05_13h30.39.909,Test,2024.2.4,None,2024-12-05 13h30.46.276688 +0100,
8,150,30,46,None,29,29,0,,,,,,,,0,29,29,7,,,,,,,,,,,,,129.5876775830402,,,,,,,,,,,,,,,,,,,,,,,129.58481862500776,129.59294787503313,129.7939962919918,129.7939962919918,129.78849841700867,131.48794500000076,131.48794500000076,131.47951945802197,,,,,,,,,,,,,,,,,,,,,,,,,,,,,,,,,,,,,,,,,,,,,,,,,,,,,,,,,,,,,,,405679,001,2024-12-05_13h30.39.909,Test,2024.2.4,None,2024-12-05 13h30.46.276688 +0100,
6,150,30,31,None,30,30,0,,,,,,,,0,30,30,5,,,,,,,,,,,,,131.48794500000076,,,,,,,,,,,,,,,,,,,,,,,131.48530608299188,131.49286229204154,131.6944880830124,131.6944880830124,131.68870104203233,133.39030291704694,133.39030291704694,133.37970000004862,,,,,,,,,,,,,,,,,,,,,,,,,,,,,,,,,,,,,,,,,,,,,,,,,,,,,,,,,,,,,,,405679,001,2024-12-05_13h30.39.909,Test,2024.2.4,None,2024-12-05 13h30.46.276688 +0100,
3,150,0,51,None,31,31,0,,,,,,,,0,31,31,2,,,,,,,,,,,,,133.39030291704694,,,,,,,,,,,,,,,,,,,,,,,133.38641466700938,133.4051841670298,133.59450750000542,133.59450750000542,133.59450750000542,135.29076762503246,135.29076762503246,135.2793612080277,,,,,,,,,,,,,,,,,,,,,,,,,,,,,,,,,,,,,,,,,,,,,,,,,,,,,,,,,,,,,,,405679,001,2024-12-05_13h30.39.909,Test,2024.2.4,None,2024-12-05 13h30.46.276688 +0100,
1,150,0,29,None,32,32,0,,,,,,,,0,32,32,0,,,,,,,,,,,,,135.29076762503246,,,,,,,,,,,,,,,,,,,,,,,135.28726233303314,135.3052410830278,135.49450600001728,135.49450600001728,135.49450600001728,137.19825204199878,137.19825204199878,137.19072745804442,,,,,,,,,,,,,,,,,,,,,,,,,,,,,,,,,,,,,,,,,,,,,,,,,,,,,,,,,,,,,,,405679,001,2024-12-05_13h30.39.909,Test,2024.2.4,None,2024-12-05 13h30.46.276688 +0100,
22,150,120,43,None,33,33,0,,,,,,,,0,33,33,21,,,,,,,,,,,,,137.19825204199878,,,,,,,,,,,,,,,,,,,,,,,137.19544829201186,137.19825204199878,137.39417662500637,137.39417662500637,137.39417662500637,139.08755579200806,139.08755579200806,139.07922474999214,,,,,,,,,,,,,,,,,,,,,,,,,,,,,,,,,,,,,,,,,,,,,,,,,,,,,,,,,,,,,,,405679,001,2024-12-05_13h30.39.909,Test,2024.2.4,None,2024-12-05 13h30.46.276688 +0100,
9,150,30,64,None,34,34,0,,,,,,,,0,34,34,8,,,,,,,,,,,,,139.08755579200806,,,,,,,,,,,,,,,,,,,,,,,139.08405420801137,139.09283937502187,139.29457108303905,139.29457108303905,139.2886375830276,140.98849129199516,140.98849129199516,140.97930704202736,,,,,,,,,,,,,,,,,,,,,,,,,,,,,,,,,,,,,,,,,,,,,,,,,,,,,,,,,,,,,,,405679,001,2024-12-05_13h30.39.909,Test,2024.2.4,None,2024-12-05 13h30.46.276688 +0100,
,,,,,,,,,,,,,,,,,,,,,,,,,,,,,,,,,,,,,,,,,,,,,,,,,,,,,,,,,,,,,,140.97944679204375,140.99538154201582,140.99538154201582,162.4604303750093,space,21.457250082981773,None,,,,,,,,,,,,,,,,,,,,,,,,,,,,,,,,,,,,,,,,,,,,,,,,,,,,,,,,405679,001,2024-12-05_13h30.39.909,Test,2024.2.4,None,2024-12-05 13h30.46.276688 +0100,
37,150,0,21,None,0,0,0,True,right,2.8273053750162944,None,,,,,,,,0,0,0,0,,,,,,,,,162.49494554201374,,,,,,,,,,,,,,,,,,,,,,,,,,,,,,,,,,,,,,162.48780250002164,162.49494554201374,163.4885323329945,164.4552295000176,164.4552295000176,164.4552295000176,167.2920473330305,right,2.8273053750162944,None,,,,,,,,,,,,,,,,,,,,,,,,,,,,,,,,,,,,,,,,,,,,,,405679,001,2024-12-05_13h30.39.909,Test,2024.2.4,None,2024-12-05 13h30.46.276688 +0100,
23,150,120,39,None,1,1,0,False,right,1.8106277919723652,None,,,,,,,,0,1,1,1,,,,,,,,,167.363017124997,,,,,,,,,,,,,,,,,,,,,,,,,,,,,,,,,,,,,,167.29862537502777,167.363017124997,168.36050891701598,169.28891866700724,169.28891866700724,169.28891866700724,171.1080642080051,right,1.8106277919723652,None,,,,,,,,,,,,,,,,,,,,,,,,,,,,,,,,,,,,,,,,,,,,,,405679,001,2024-12-05_13h30.39.909,Test,2024.2.4,None,2024-12-05 13h30.46.276688 +0100,
49,150,60,68,None,2,2,0,True,left,1.773160208016634,None,,,,,,,,0,2,2,2,,,,,,,,,171.11827875004383,,,,,,,,,,,,,,,,,,,,,,,,,,,,,,,,,,,,,,171.1143059580354,171.11827875004383,172.10994633304654,173.10524583299411,173.10524583299411,173.10524583299411,174.87990300002275,left,1.773160208016634,None,,,,,,,,,,,,,,,,,,,,,,,,,,,,,,,,,,,,,,,,,,,,,,405679,001,2024-12-05_13h30.39.909,Test,2024.2.4,None,2024-12-05 13h30.46.276688 +0100,
13,150,60,35,None,3,3,0,False,right,1.316431500017643,None,,,,,,,,0,3,3,3,,,,,,,,,174.891061042028,,,,,,,,,,,,,,,,,,,,,,,,,,,,,,,,,,,,,,174.88644795800792,174.891061042028,175.88839733303757,176.87772975000553,176.87772975000553,176.87772975000553,178.19686979200924,right,1.316431500017643,None,,,,,,,,,,,,,,,,,,,,,,,,,,,,,,,,,,,,,,,,,,,,,,405679,001,2024-12-05_13h30.39.909,Test,2024.2.4,None,2024-12-05 13h30.46.276688 +0100,
50,150,60,16,None,4,4,0,True,left,1.6292907500173897,None,,,,,,,,0,4,4,4,,,,,,,,,178.2071514170384,,,,,,,,,,,,,,,,,,,,,,,,,,,,,,,,,,,,,,178.20246375002898,178.2071514170384,179.20535554201342,180.19473091699183,180.19473091699183,180.19473091699183,181.82644633302698,left,1.6292907500173897,None,,,,,,,,,,,,,,,,,,,,,,,,,,,,,,,,,,,,,,,,,,,,,,405679,001,2024-12-05_13h30.39.909,Test,2024.2.4,None,2024-12-05 13h30.46.276688 +0100,
64,150,150,9,None,5,5,0,True,right,1.3723731670179404,None,,,,,,,,0,5,5,5,,,,,,,,,181.835995292,,,,,,,,,,,,,,,,,,,,,,,,,,,,,,,,,,,,,,181.83209008304402,181.835995292,182.82753570802743,183.82197012502002,183.82197012502002,183.82197012502002,185.19723691703985,right,1.3723731670179404,None,,,,,,,,,,,,,,,,,,,,,,,,,,,,,,,,,,,,,,,,,,,,,,405679,001,2024-12-05_13h30.39.909,Test,2024.2.4,None,2024-12-05 13h30.46.276688 +0100,
39,150,0,26,None,6,6,0,True,left,2.203221166972071,None,,,,,,,,0,6,6,6,,,,,,,,,185.20741241704673,,,,,,,,,,,,,,,,,,,,,,,,,,,,,,,,,,,,,,185.20266662503127,185.20741241704673,186.20515150000574,187.19479266699636,187.19479266699636,187.19479266699636,189.40824754204368,left,2.203221166972071,None,,,,,,,,,,,,,,,,,,,,,,,,,,,,,,,,,,,,,,,,,,,,,,405679,001,2024-12-05_13h30.39.909,Test,2024.2.4,None,2024-12-05 13h30.46.276688 +0100,
70,150,180,33,None,7,7,0,True,left,1.807056624966208,None,,,,,,,,0,7,7,7,,,,,,,,,189.41810541704763,,,,,,,,,,,,,,,,,,,,,,,,,,,,,,,,,,,,,,189.41430612502154,189.41810541704763,190.4106438330491,191.4052760830382,191.4052760830382,191.4052760830382,193.21388070803368,left,1.807056624966208,None,,,,,,,,,,,,,,,,,,,,,,,,,,,,,,,,,,,,,,,,,,,,,,405679,001,2024-12-05_13h30.39.909,Test,2024.2.4,None,2024-12-05 13h30.46.276688 +0100,
12,150,60,13,None,8,8,0,False,right,1.596185417030938,None,,,,,,,,0,8,8,8,,,,,,,,,193.2242470830097,,,,,,,,,,,,,,,,,,,,,,,,,,,,,,,,,,,,,,193.22031775000505,193.2242470830097,194.22110125003383,195.21144958300283,195.21144958300283,195.21144958300283,196.8128124580253,right,1.596185417030938,None,,,,,,,,,,,,,,,,,,,,,,,,,,,,,,,,,,,,,,,,,,,,,,405679,001,2024-12-05_13h30.39.909,Test,2024.2.4,None,2024-12-05 13h30.46.276688 +0100,
9,150,30,64,None,9,9,0,False,right,1.2288378329831176,None,,,,,,,,0,9,9,9,,,,,,,,,196.82103183300933,,,,,,,,,,,,,,,,,,,,,,,,,,,,,,,,,,,,,,196.81740970804822,196.82103183300933,197.81046675000107,198.8112747920095,198.8112747920095,198.8112747920095,200.04248466703575,right,1.2288378329831176,None,,,,,,,,,,,,,,,,,,,,,,,,,,,,,,,,,,,,,,,,,,,,,,405679,001,2024-12-05_13h30.39.909,Test,2024.2.4,None,2024-12-05 13h30.46.276688 +0100,
40,150,0,18,None,10,10,0,True,left,1.4775665840134025,None,,,,,,,,0,10,10,10,,,,,,,,,200.05200370802777,,,,,,,,,,,,,,,,,,,,,,,,,,,,,,,,,,,,,,200.04803258302854,200.05200370802777,201.04386224999325,202.03870037500747,202.03870037500747,202.03870037500747,203.5250692080008,left,1.4775665840134025,None,,,,,,,,,,,,,,,,,,,,,,,,,,,,,,,,,,,,,,,,,,,,,,405679,001,2024-12-05_13h30.39.909,Test,2024.2.4,None,2024-12-05 13h30.46.276688 +0100,
38,150,0,32,None,11,11,0,True,left,2.3851726250140928,None,,,,,,,,0,11,11,11,,,,,,,,,203.53449300001375,,,,,,,,,,,,,,,,,,,,,,,,,,,,,,,,,,,,,,203.53070258302614,203.53449300001375,204.52751429204363,205.521920625004,205.521920625004,205.521920625004,207.90842912503285,left,2.3851726250140928,None,,,,,,,,,,,,,,,,,,,,,,,,,,,,,,,,,,,,,,,,,,,,,,405679,001,2024-12-05_13h30.39.909,Test,2024.2.4,None,2024-12-05 13h30.46.276688 +0100,
19,150,90,45,None,12,12,0,False,right,2.352136458037421,None,,,,,,,,0,12,12,12,,,,,,,,,207.9169697079924,,,,,,,,,,,,,,,,,,,,,,,,,,,,,,,,,,,,,,207.91344616701826,207.9169697079924,208.90980079199653,209.90532433299813,209.90532433299813,209.90532433299813,212.263180708047,right,2.352136458037421,None,,,,,,,,,,,,,,,,,,,,,,,,,,,,,,,,,,,,,,,,,,,,,,405679,001,2024-12-05_13h30.39.909,Test,2024.2.4,None,2024-12-05 13h30.46.276688 +0100,
62,150,150,60,None,13,13,0,True,right,1.6616451669833623,None,,,,,,,,0,13,13,13,,,,,,,,,212.28867075004382,,,,,,,,,,,,,,,,,,,,,,,,,,,,,,,,,,,,,,212.26811058301246,212.28867075004382,213.27713587501785,214.26141600002302,214.26141600002302,214.26141600002302,215.9249897080008,right,1.6616451669833623,None,,,,,,,,,,,,,,,,,,,,,,,,,,,,,,,,,,,,,,,,,,,,,,405679,001,2024-12-05_13h30.39.909,Test,2024.2.4,None,2024-12-05 13h30.46.276688 +0100,
52,150,90,1,None,14,14,0,True,right,1.4648430829984136,None,,,,,,,,0,14,14,14,,,,,,,,,215.93386179202935,,,,,,,,,,,,,,,,,,,,,,,,,,,,,,,,,,,,,,215.9303445420228,215.93386179202935,216.92727687500883,217.9219076250447,217.9219076250447,217.9219076250447,219.39159050001763,right,1.4648430829984136,None,,,,,,,,,,,,,,,,,,,,,,,,,,,,,,,,,,,,,,,,,,,,,,405679,001,2024-12-05_13h30.39.909,Test,2024.2.4,None,2024-12-05 13h30.46.276688 +0100,
31,150,180,58,None,15,15,0,False,left,1.3536316669778898,None,,,,,,,,0,15,15,15,,,,,,,,,219.40042166702915,,,,,,,,,,,,,,,,,,,,,,,,,,,,,,,,,,,,,,219.39689441700466,219.40042166702915,220.3940509170061,221.38864258304238,221.38864258304238,221.38864258304238,222.7468995419913,left,1.3536316669778898,None,,,,,,,,,,,,,,,,,,,,,,,,,,,,,,,,,,,,,,,,,,,,,,405679,001,2024-12-05_13h30.39.909,Test,2024.2.4,None,2024-12-05 13h30.46.276688 +0100,
58,150,120,37,None,16,16,0,True,left,2.16418641700875,None,,,,,,,,0,16,16,16,,,,,,,,,222.75710545800393,,,,,,,,,,,,,,,,,,,,,,,,,,,,,,,,,,,,,,222.75258191704052,222.75710545800393,223.75522970804013,224.74587787501514,224.74587787501514,224.74587787501514,226.91442904202268,left,2.16418641700875,None,,,,,,,,,,,,,,,,,,,,,,,,,,,,,,,,,,,,,,,,,,,,,,405679,001,2024-12-05_13h30.39.909,Test,2024.2.4,None,2024-12-05 13h30.46.276688 +0100,
30,150,150,47,None,17,17,0,False,right,1.1544632920413278,None,,,,,,,,0,17,17,17,,,,,,,,,226.9261575830169,,,,,,,,,,,,,,,,,,,,,,,,,,,,,,,,,,,,,,226.92209229199216,226.9261575830169,227.92194716702215,228.91139779199148,228.91139779199148,228.91139779199148,230.0753582920297,right,1.1544632920413278,None,,,,,,,,,,,,,,,,,,,,,,,,,,,,,,,,,,,,,,,,,,,,,,405679,001,2024-12-05_13h30.39.909,Test,2024.2.4,None,2024-12-05 13h30.46.276688 +0100,
57,150,120,36,None,18,18,0,True,left,1.677686667011585,None,,,,,,,,0,18,18,18,,,,,,,,,230.0838820830104,,,,,,,,,,,,,,,,,,,,,,,,,,,,,,,,,,,,,,230.0803325000452,230.0838820830104,231.0775327500305,232.07196249999106,232.07196249999106,232.07196249999106,233.7581941250246,left,1.677686667011585,None,,,,,,,,,,,,,,,,,,,,,,,,,,,,,,,,,,,,,,,,,,,,,,405679,001,2024-12-05_13h30.39.909,Test,2024.2.4,None,2024-12-05 13h30.46.276688 +0100,
46,150,60,48,None,19,19,0,True,right,1.0024064169847406,None,,,,,,,,0,19,19,19,,,,,,,,,233.7671413749922,,,,,,,,,,,,,,,,,,,,,,,,,,,,,,,,,,,,,,233.76356387499254,233.7671413749922,234.7603753330186,235.7553270420176,235.7553270420176,235.7553270420176,236.76399270800175,right,1.0024064169847406,None,,,,,,,,,,,,,,,,,,,,,,,,,,,,,,,,,,,,,,,,,,,,,,405679,001,2024-12-05_13h30.39.909,Test,2024.2.4,None,2024-12-05 13h30.46.276688 +0100,
35,150,180,56,None,20,20,0,False,right,2.522106749995146,None,,,,,,,,0,20,20,20,,,,,,,,,236.77384029200766,,,,,,,,,,,,,,,,,,,,,,,,,,,,,,,,,,,,,,236.76948641700437,236.77384029200766,237.7719503749977,238.76143950002734,238.76143950002734,238.76143950002734,241.29165324999485,right,2.522106749995146,None,,,,,,,,,,,,,,,,,,,,,,,,,,,,,,,,,,,,,,,,,,,,,,405679,001,2024-12-05_13h30.39.909,Test,2024.2.4,None,2024-12-05 13h30.46.276688 +0100,
8,150,30,46,None,21,21,0,False,right,1.1519101249868982,None,,,,,,,,0,21,21,21,,,,,,,,,241.30073270801222,,,,,,,,,,,,,,,,,,,,,,,,,,,,,,,,,,,,,,241.2971139170113,241.30073270801222,242.29422079201322,243.28864366700873,243.28864366700873,243.28864366700873,244.44186850002734,right,1.1519101249868982,None,,,,,,,,,,,,,,,,,,,,,,,,,,,,,,,,,,,,,,,,,,,,,,405679,001,2024-12-05_13h30.39.909,Test,2024.2.4,None,2024-12-05 13h30.46.276688 +0100,
45,150,30,3,None,22,22,0,True,left,2.055947125016246,None,,,,,,,,0,22,22,22,,,,,,,,,244.45086170802824,,,,,,,,,,,,,,,,,,,,,,,,,,,,,,,,,,,,,,244.44749333302025,244.45086170802824,245.44409595802426,246.43870795803377,246.43870795803377,246.43870795803377,248.4966426670435,left,2.055947125016246,None,,,,,,,,,,,,,,,,,,,,,,,,,,,,,,,,,,,,,,,,,,,,,,405679,001,2024-12-05_13h30.39.909,Test,2024.2.4,None,2024-12-05 13h30.46.276688 +0100,
42,150,30,34,None,23,23,0,True,right,0.9579989579506218,None,,,,,,,,0,23,23,23,,,,,,,,,248.51801016699756,,,,,,,,,,,,,,,,,,,,,,,,,,,,,,,,,,,,,,248.5146066250163,248.51801016699756,249.51047354203183,250.4987992499955,250.4987992499955,250.4987992499955,251.45858845801558,right,0.9579989579506218,None,,,,,,,,,,,,,,,,,,,,,,,,,,,,,,,,,,,,,,,,,,,,,,405679,001,2024-12-05_13h30.39.909,Test,2024.2.4,None,2024-12-05 13h30.46.276688 +0100,
65,150,150,65,None,24,24,0,True,left,2.3944495829637162,None,,,,,,,,0,24,24,24,,,,,,,,,251.46834066702286,,,,,,,,,,,,,,,,,,,,,,,,,,,,,,,,,,,,,,251.46484395803418,251.46834066702286,252.46087662503123,253.45531020802446,253.45531020802446,253.45531020802446,255.85815604199888,left,2.3944495829637162,None,,,,,,,,,,,,,,,,,,,,,,,,,,,,,,,,,,,,,,,,,,,,,,405679,001,2024-12-05_13h30.39.909,Test,2024.2.4,None,2024-12-05 13h30.46.276688 +0100,
11,150,60,12,None,25,25,0,False,right,1.7729385839775205,None,,,,,,,,0,25,25,25,,,,,,,,,255.86733904201537,,,,,,,,,,,,,,,,,,,,,,,,,,,,,,,,,,,,,,255.86371854203753,255.86733904201537,256.86050329200225,257.8552926669945,257.8552926669945,257.8552926669945,259.6295815000194,right,1.7729385839775205,None,,,,,,,,,,,,,,,,,,,,,,,,,,,,,,,,,,,,,,,,,,,,,,405679,001,2024-12-05_13h30.39.909,Test,2024.2.4,None,2024-12-05 13h30.46.276688 +0100,
55,150,90,14,None,26,26,0,True,right,0.9960979579482228,None,,,,,,,,0,26,26,26,,,,,,,,,259.63768358301604,,,,,,,,,,,,,,,,,,,,,,,,,,,,,,,,,,,,,,259.6326952080126,259.63768358301604,260.6274888330372,261.6281095420127,261.6281095420127,261.6281095420127,262.6258296670276,right,0.9960979579482228,None,,,,,,,,,,,,,,,,,,,,,,,,,,,,,,,,,,,,,,,,,,,,,,405679,001,2024-12-05_13h30.39.909,Test,2024.2.4,None,2024-12-05 13h30.46.276688 +0100,
17,150,90,52,None,27,27,0,False,right,1.0112056669895537,None,,,,,,,,0,27,27,27,,,,,,,,,262.6364041250199,,,,,,,,,,,,,,,,,,,,,,,,,,,,,,,,,,,,,,262.6327133330051,262.6364041250199,263.62712933303555,264.6219375000219,264.6219375000219,264.6219375000219,265.64147416700143,right,1.0112056669895537,None,,,,,,,,,,,,,,,,,,,,,,,,,,,,,,,,,,,,,,,,,,,,,,405679,001,2024-12-05_13h30.39.909,Test,2024.2.4,None,2024-12-05 13h30.46.276688 +0100,
24,150,120,22,None,28,28,0,False,right,2.3912226670072414,None,,,,,,,,0,28,28,28,,,,,,,,,265.649935708032,,,,,,,,,,,,,,,,,,,,,,,,,,,,,,,,,,,,,,265.6464857500396,265.649935708032,266.643726875016,267.63867366703926,267.63867366703926,267.63867366703926,270.0414939580369,right,2.3912226670072414,None,,,,,,,,,,,,,,,,,,,,,,,,,,,,,,,,,,,,,,,,,,,,,,405679,001,2024-12-05_13h30.39.909,Test,2024.2.4,None,2024-12-05 13h30.46.276688 +0100,
21,150,120,54,None,29,29,0,False,right,1.5036569170188159,None,,,,,,,,0,29,29,29,,,,,,,,,270.0505870830384,,,,,,,,,,,,,,,,,,,,,,,,,,,,,,,,,,,,,,270.0470122080296,270.0505870830384,271.04359666700475,272.0388106669998,272.0388106669998,272.0388106669998,273.5474339170032,right,1.5036569170188159,None,,,,,,,,,,,,,,,,,,,,,,,,,,,,,,,,,,,,,,,,,,,,,,405679,001,2024-12-05_13h30.39.909,Test,2024.2.4,None,2024-12-05 13h30.46.276688 +0100,
61,150,150,53,None,30,30,0,True,left,3.0353970419964753,None,,,,,,,,0,30,30,30,,,,,,,,,273.55698708299315,,,,,,,,,,,,,,,,,,,,,,,,,,,,,,,,,,,,,,273.55309775000205,273.55698708299315,274.555279000022,275.5445596250356,275.5445596250356,275.5445596250356,278.59161775000393,left,3.0353970419964753,None,278.5522400829941,278.5522400829941,278.5522400829941,,,,,,,,,,,,,,,,,,,,,,,,,,,,,,,,,,,,,,,,,,,405679,001,2024-12-05_13h30.39.909,Test,2024.2.4,None,2024-12-05 13h30.46.276688 +0100,
22,150,120,43,None,31,31,0,False,right,2.51767283299705,None,,,,,,,,0,31,31,31,,,,,,,,,278.5998207080411,,,,,,,,,,,,,,,,,,,,,,,,,,,,,,,,,,,,,,278.59631433303,278.5998207080411,279.59318374999566,280.58869116700953,280.58869116700953,280.58869116700953,283.10802833299385,right,2.51767283299705,None,,,,,,,,,,,,,,,,,,,,,,,,,,,,,,,,,,,,,,,,,,,,,,405679,001,2024-12-05_13h30.39.909,Test,2024.2.4,None,2024-12-05 13h30.46.276688 +0100,
6,150,30,31,None,32,32,0,False,right,1.2681509589892812,None,,,,,,,,0,32,32,32,,,,,,,,,283.1166571670328,,,,,,,,,,,,,,,,,,,,,,,,,,,,,,,,,,,,,,283.1131162500242,283.1166571670328,284.1087058749981,285.1053524580202,285.1053524580202,285.1053524580202,286.37556533300085,right,1.2681509589892812,None,,,,,,,,,,,,,,,,,,,,,,,,,,,,,,,,,,,,,,,,,,,,,,405679,001,2024-12-05_13h30.39.909,Test,2024.2.4,None,2024-12-05 13h30.46.276688 +0100,
33,150,180,67,None,33,33,0,False,right,2.43707462499151,None,,,,,,,,0,33,33,33,,,,,,,,,286.38735495804576,,,,,,,,,,,,,,,,,,,,,,,,,,,,,,,,,,,,,,286.3835121250013,286.38735495804576,287.37665437499527,288.3719460000284,288.3719460000284,288.3719460000284,290.81367308303015,right,2.43707462499151,None,,,,,,,,,,,,,,,,,,,,,,,,,,,,,,,,,,,,,,,,,,,,,,405679,001,2024-12-05_13h30.39.909,Test,2024.2.4,None,2024-12-05 13h30.46.276688 +0100,
10,150,30,42,None,34,34,0,False,left,1.9894688340136781,None,,,,,,,,0,34,34,34,,,,,,,,,290.82408320804825,,,,,,,,,,,,,,,,,,,,,,,,,,,,,,,,,,,,,,290.81947370804846,290.82408320804825,291.8219723330112,292.81148729199776,292.81148729199776,292.81148729199776,294.80846670799656,left,1.9894688340136781,None,,,,,,,,,,,,,,,,,,,,,,,,,,,,,,,,,,,,,,,,,,,,,,405679,001,2024-12-05_13h30.39.909,Test,2024.2.4,None,2024-12-05 13h30.46.276688 +0100,
26,150,150,44,None,35,35,0,False,right,1.8678739169845358,None,,,,,,,,0,35,35,35,,,,,,,,,294.81800037500216,,,,,,,,,,,,,,,,,,,,,,,,,,,,,,,,,,,,,,294.8144237080123,294.81800037500216,295.8101698330138,296.8053090420435,296.8053090420435,296.8053090420435,298.67524912499357,right,1.8678739169845358,None,,,,,,,,,,,,,,,,,,,,,,,,,,,,,,,,,,,,,,,,,,,,,,405679,001,2024-12-05_13h30.39.909,Test,2024.2.4,None,2024-12-05 13h30.46.276688 +0100,
27,150,150,30,None,36,36,0,False,left,2.327211041992996,None,,,,,,,,0,36,36,36,,,,,,,,,298.6848194170161,,,,,,,,,,,,,,,,,,,,,,,,,,,,,,,,,,,,,,298.68119379202835,298.6848194170161,299.67752816702705,300.67194670799654,300.67194670799654,300.67194670799654,303.008282625,left,2.327211041992996,None,,,,,,,,,,,,,,,,,,,,,,,,,,,,,,,,,,,,,,,,,,,,,,405679,001,2024-12-05_13h30.39.909,Test,2024.2.4,None,2024-12-05 13h30.46.276688 +0100,
32,150,180,7,None,37,37,0,False,left,1.9060271669877693,None,,,,,,,,0,37,37,37,,,,,,,,,303.0172985420213,,,,,,,,,,,,,,,,,,,,,,,,,,,,,,,,,,,,,,303.0138546670205,303.0172985420213,304.0103837920469,305.0054465000285,305.0054465000285,305.0054465000285,306.9143405830255,left,1.9060271669877693,None,,,,,,,,,,,,,,,,,,,,,,,,,,,,,,,,,,,,,,,,,,,,,,405679,001,2024-12-05_13h30.39.909,Test,2024.2.4,None,2024-12-05 13h30.46.276688 +0100,
66,150,180,38,None,38,38,0,True,right,1.4849672500276938,None,,,,,,,,0,38,38,38,,,,,,,,,306.92394816700835,,,,,,,,,,,,,,,,,,,,,,,,,,,,,,,,,,,,,,306.92032133304747,306.92394816700835,307.9218807920115,308.9105859170086,308.9105859170086,308.9105859170086,310.3968720000121,right,1.4849672500276938,None,,,,,,,,,,,,,,,,,,,,,,,,,,,,,,,,,,,,,,,,,,,,,,405679,001,2024-12-05_13h30.39.909,Test,2024.2.4,None,2024-12-05 13h30.46.276688 +0100,
34,150,180,28,None,39,39,0,False,right,1.3413990419940092,None,,,,,,,,0,39,39,39,,,,,,,,,310.40657175000524,,,,,,,,,,,,,,,,,,,,,,,,,,,,,,,,,,,,,,310.40235695801675,310.40657175000524,311.4052824170212,312.3947585420101,312.3947585420101,312.3947585420101,313.7417879170389,right,1.3413990419940092,None,,,,,,,,,,,,,,,,,,,,,,,,,,,,,,,,,,,,,,,,,,,,,,405679,001,2024-12-05_13h30.39.909,Test,2024.2.4,None,2024-12-05 13h30.46.276688 +0100,
44,150,30,23,None,40,40,0,True,left,1.2904196250019595,None,,,,,,,,0,40,40,40,,,,,,,,,313.7673557919916,,,,,,,,,,,,,,,,,,,,,,,,,,,,,,,,,,,,,,313.7471752500278,313.7673557919916,314.76010329200653,315.7386766250129,315.7386766250129,315.7386766250129,317.0320224580355,left,1.2904196250019595,None,,,,,,,,,,,,,,,,,,,,,,,,,,,,,,,,,,,,,,,,,,,,,,405679,001,2024-12-05_13h30.39.909,Test,2024.2.4,None,2024-12-05 13h30.46.276688 +0100,
15,150,60,2,None,41,41,0,False,right,1.3327633750159293,None,,,,,,,,0,41,41,41,,,,,,,,,317.04171683301684,,,,,,,,,,,,,,,,,,,,,,,,,,,,,,,,,,,,,,317.03794379200554,317.04171683301684,318.038546374999,319.0281865000143,319.0281865000143,319.0281865000143,320.36337858304614,right,1.3327633750159293,None,,,,,,,,,,,,,,,,,,,,,,,,,,,,,,,,,,,,,,,,,,,,,,405679,001,2024-12-05_13h30.39.909,Test,2024.2.4,None,2024-12-05 13h30.46.276688 +0100,
29,150,150,59,None,42,42,0,False,right,0.8565869169542566,None,,,,,,,,0,42,42,42,,,,,,,,,320.3737523330492,,,,,,,,,,,,,,,,,,,,,,,,,,,,,,,,,,,,,,320.36892187502235,320.3737523330492,321.37192937504733,322.36098604201106,322.36098604201106,322.36098604201106,323.22494949999964,right,0.8565869169542566,None,,,,,,,,,,,,,,,,,,,,,,,,,,,,,,,,,,,,,,,,,,,,,,405679,001,2024-12-05_13h30.39.909,Test,2024.2.4,None,2024-12-05 13h30.46.276688 +0100,
2,150,0,8,None,43,43,0,False,right,2.2539696670137346,None,,,,,,,,0,43,43,43,,,,,,,,,323.2334806250292,,,,,,,,,,,,,,,,,,,,,,,,,,,,,,,,,,,,,,323.2299124580459,323.2334806250292,324.227325749991,325.2219604580314,325.2219604580314,325.2219604580314,327.4799712499953,right,2.2539696670137346,None,,,,,,,,,,,,,,,,,,,,,,,,,,,,,,,,,,,,,,,,,,,,,,405679,001,2024-12-05_13h30.39.909,Test,2024.2.4,None,2024-12-05 13h30.46.276688 +0100,
28,150,150,61,None,44,44,0,False,left,2.290829584002495,None,,,,,,,,0,44,44,44,,,,,,,,,327.49064970802283,,,,,,,,,,,,,,,,,,,,,,,,,,,,,,,,,,,,,,327.48653425002703,327.49064970802283,328.48858395800926,329.4778890830348,329.4778890830348,329.4778890830348,331.77507804200286,left,2.290829584002495,None,,,,,,,,,,,,,,,,,,,,,,,,,,,,,,,,,,,,,,,,,,,,,,405679,001,2024-12-05_13h30.39.909,Test,2024.2.4,None,2024-12-05 13h30.46.276688 +0100,
60,150,120,10,None,45,45,0,True,left,1.3581466660252772,None,,,,,,,,0,45,45,45,,,,,,,,,331.78392491699196,,,,,,,,,,,,,,,,,,,,,,,,,,,,,,,,,,,,,,331.7803557080333,331.78392491699196,332.7776025829953,333.7721905420185,333.7721905420185,333.7721905420185,335.1415048330091,left,1.3581466660252772,None,,,,,,,,,,,,,,,,,,,,,,,,,,,,,,,,,,,,,,,,,,,,,,405679,001,2024-12-05_13h30.39.909,Test,2024.2.4,None,2024-12-05 13h30.46.276688 +0100,
59,150,120,17,None,46,46,0,True,left,1.3093270829995163,None,,,,,,,,0,46,46,46,,,,,,,,,335.1517035420402,,,,,,,,,,,,,,,,,,,,,,,,,,,,,,,,,,,,,,335.1479371250025,335.1517035420402,336.1439637080184,337.1387267500395,337.1387267500395,337.1387267500395,338.46106487500947,left,1.3093270829995163,None,,,,,,,,,,,,,,,,,,,,,,,,,,,,,,,,,,,,,,,,,,,,,,405679,001,2024-12-05_13h30.39.909,Test,2024.2.4,None,2024-12-05 13h30.46.276688 +0100,
67,150,180,4,None,47,47,0,True,left,1.505348332982976,None,,,,,,,,0,47,47,47,,,,,,,,,338.47118912503356,,,,,,,,,,,,,,,,,,,,,,,,,,,,,,,,,,,,,,338.4676457500318,338.47118912503356,339.46002345799934,340.455320875044,340.455320875044,340.455320875044,341.96382350003114,left,1.505348332982976,None,,,,,,,,,,,,,,,,,,,,,,,,,,,,,,,,,,,,,,,,,,,,,,405679,001,2024-12-05_13h30.39.909,Test,2024.2.4,None,2024-12-05 13h30.46.276688 +0100,
5,150,0,55,None,48,48,0,False,left,2.7779377920087427,None,,,,,,,,0,48,48,48,,,,,,,,,341.97371158300666,,,,,,,,,,,,,,,,,,,,,,,,,,,,,,,,,,,,,,341.9694747920148,341.97371158300666,342.97196858300595,343.9597728330409,343.9597728330409,343.9597728330409,346.74213241704274,left,2.7779377920087427,None,,,,,,,,,,,,,,,,,,,,,,,,,,,,,,,,,,,,,,,,,,,,,,405679,001,2024-12-05_13h30.39.909,Test,2024.2.4,None,2024-12-05 13h30.46.276688 +0100,
63,150,150,5,None,49,49,0,True,right,0.9280824169982225,None,,,,,,,,0,49,49,49,,,,,,,,,346.75207029201556,,,,,,,,,,,,,,,,,,,,,,,,,,,,,,,,,,,,,,346.74838512501447,346.75207029201556,347.7439368329942,348.7385910830344,348.7385910830344,348.7385910830344,349.67492962500546,right,0.9280824169982225,None,,,,,,,,,,,,,,,,,,,,,,,,,,,,,,,,,,,,,,,,,,,,,,405679,001,2024-12-05_13h30.39.909,Test,2024.2.4,None,2024-12-05 13h30.46.276688 +0100,
43,150,30,11,None,50,50,0,True,right,1.1946481670020148,None,,,,,,,,0,50,50,50,,,,,,,,,349.68386258301325,,,,,,,,,,,,,,,,,,,,,,,,,,,,,,,,,,,,,,349.6802412919933,349.68386258301325,350.6776910420158,351.6720316670253,351.6720316670253,351.6720316670253,352.874847625033,right,1.1946481670020148,None,,,,,,,,,,,,,,,,,,,,,,,,,,,,,,,,,,,,,,,,,,,,,,405679,001,2024-12-05_13h30.39.909,Test,2024.2.4,None,2024-12-05 13h30.46.276688 +0100,
14,150,60,20,None,51,51,0,False,left,5.702989416953642,None,,,,,,,,0,51,51,51,,,,,,,,,352.8829347080318,,,,,,,,,,,,,,,,,,,,,,,,,,,,,,,,,,,,,,352.8792958330014,352.8829347080318,353.87773833301617,354.8720915830345,354.8720915830345,354.8720915830345,360.5805063750013,left,5.702989416953642,None,357.86096812499454,357.8719753330224,357.86096812499454,,,,,,,,,,,,,,,,,,,,,,,,,,,,,,,,,,,,,,,,,,,405679,001,2024-12-05_13h30.39.909,Test,2024.2.4,None,2024-12-05 13h30.46.276688 +0100,
48,150,60,69,None,52,52,0,True,left,3.59962612495292,None,,,,,,,,0,52,52,52,,,,,,,,,360.5915214580018,,,,,,,,,,,,,,,,,,,,,,,,,,,,,,,,,,,,,,360.5881363330409,360.5915214580018,361.58861820801394,362.5782341250451,362.5782341250451,362.5782341250451,366.1810623750207,left,3.59962612495292,None,365.5776297500124,365.5776297500124,365.5776297500124,,,,,,,,,,,,,,,,,,,,,,,,,,,,,,,,,,,,,,,,,,,405679,001,2024-12-05_13h30.39.909,Test,2024.2.4,None,2024-12-05 13h30.46.276688 +0100,
69,150,180,15,None,53,53,0,True,left,1.3785042500239797,None,,,,,,,,0,53,53,53,,,,,,,,,366.1916358330054,,,,,,,,,,,,,,,,,,,,,,,,,,,,,,,,,,,,,,366.1879868330434,366.1916358330054,367.18852483300725,368.17812579200836,368.17812579200836,368.17812579200836,369.55822458304465,left,1.3785042500239797,None,,,,,,,,,,,,,,,,,,,,,,,,,,,,,,,,,,,,,,,,,,,,,,405679,001,2024-12-05_13h30.39.909,Test,2024.2.4,None,2024-12-05 13h30.46.276688 +0100,
56,150,120,49,None,54,54,0,True,right,1.5851951249642298,None,,,,,,,,0,54,54,54,,,,,,,,,369.5677117080195,,,,,,,,,,,,,,,,,,,,,,,,,,,,,,,,,,,,,,369.5639979169937,369.5677117080195,370.5603802500409,371.55532629200025,371.55532629200025,371.55532629200025,373.14190491702175,right,1.5851951249642298,None,,,,,,,,,,,,,,,,,,,,,,,,,,,,,,,,,,,,,,,,,,,,,,405679,001,2024-12-05_13h30.39.909,Test,2024.2.4,None,2024-12-05 13h30.46.276688 +0100,
16,150,90,66,None,55,55,0,False,right,1.9680391660076566,None,,,,,,,,0,55,55,55,,,,,,,,,373.15106812503655,,,,,,,,,,,,,,,,,,,,,,,,,,,,,,,,,,,,,,373.147510083043,373.15106812503655,374.14141408301657,375.13865458301734,375.13865458301734,375.13865458301734,377.1083863330423,right,1.9680391660076566,None,,,,,,,,,,,,,,,,,,,,,,,,,,,,,,,,,,,,,,,,,,,,,,405679,001,2024-12-05_13h30.39.909,Test,2024.2.4,None,2024-12-05 13h30.46.276688 +0100,
20,150,90,24,None,56,56,0,False,right,1.3585839589941315,None,,,,,,,,0,56,56,56,,,,,,,,,377.1187432500301,,,,,,,,,,,,,,,,,,,,,,,,,,,,,,,,,,,,,,377.11515204200987,377.1187432500301,378.11089316703146,379.10537475004094,379.10537475004094,379.10537475004094,380.475157708046,right,1.3585839589941315,None,,,,,,,,,,,,,,,,,,,,,,,,,,,,,,,,,,,,,,,,,,,,,,405679,001,2024-12-05_13h30.39.909,Test,2024.2.4,None,2024-12-05 13h30.46.276688 +0100,
54,150,90,6,None,57,57,0,True,left,1.7605942499940284,None,,,,,,,,0,57,57,57,,,,,,,,,380.48405075003393,,,,,,,,,,,,,,,,,,,,,,,,,,,,,,,,,,,,,,380.48061975004384,380.48405075003393,381.4775561669958,382.47187979199225,382.47187979199225,382.47187979199225,384.2415998750366,left,1.7605942499940284,None,,,,,,,,,,,,,,,,,,,,,,,,,,,,,,,,,,,,,,,,,,,,,,405679,001,2024-12-05_13h30.39.909,Test,2024.2.4,None,2024-12-05 13h30.46.276688 +0100,
53,150,90,40,None,58,58,0,True,right,1.0650246660225093,None,,,,,,,,0,58,58,58,,,,,,,,,384.2515809580218,,,,,,,,,,,,,,,,,,,,,,,,,,,,,,,,,,,,,,384.24797754199244,384.2515809580218,385.24359629204264,386.23857270804,386.23857270804,386.23857270804,387.30826566700125,right,1.0650246660225093,None,,,,,,,,,,,,,,,,,,,,,,,,,,,,,,,,,,,,,,,,,,,,,,405679,001,2024-12-05_13h30.39.909,Test,2024.2.4,None,2024-12-05 13h30.46.276688 +0100,
3,150,0,51,None,59,59,0,False,right,1.132423708040733,None,,,,,,,,0,59,59,59,,,,,,,,,387.31732445803937,,,,,,,,,,,,,,,,,,,,,,,,,,,,,,,,,,,,,,387.31369937502313,387.31732445803937,388.31041470804485,389.3053457500064,389.3053457500064,389.3053457500064,390.44187337503536,right,1.132423708040733,None,,,,,,,,,,,,,,,,,,,,,,,,,,,,,,,,,,,,,,,,,,,,,,405679,001,2024-12-05_13h30.39.909,Test,2024.2.4,None,2024-12-05 13h30.46.276688 +0100,
36,150,0,50,None,60,60,0,True,left,1.4229782079928555,None,,,,,,,,0,60,60,60,,,,,,,,,390.4507396250265,,,,,,,,,,,,,,,,,,,,,,,,,,,,,,,,,,,,,,390.4471515000332,390.4507396250265,391.4438385000103,392.4387432500371,392.4387432500371,392.4387432500371,393.863448832999,left,1.4229782079928555,None,,,,,,,,,,,,,,,,,,,,,,,,,,,,,,,,,,,,,,,,,,,,,,405679,001,2024-12-05_13h30.39.909,Test,2024.2.4,None,2024-12-05 13h30.46.276688 +0100,
47,150,60,57,None,61,61,0,True,left,1.67964570899494,None,,,,,,,,0,61,61,61,,,,,,,,,393.87334587500663,,,,,,,,,,,,,,,,,,,,,,,,,,,,,,,,,,,,,,393.86857462499756,393.87334587500663,394.87199666700326,395.8610667500179,395.8610667500179,395.8610667500179,397.5482132920297,left,1.67964570899494,None,,,,,,,,,,,,,,,,,,,,,,,,,,,,,,,,,,,,,,,,,,,,,,405679,001,2024-12-05_13h30.39.909,Test,2024.2.4,None,2024-12-05 13h30.46.276688 +0100,
4,150,0,27,None,62,62,0,False,right,2.0250391659792513,None,,,,,,,,0,62,62,62,,,,,,,,,397.55735779204406,,,,,,,,,,,,,,,,,,,,,,,,,,,,,,,,,,,,,,397.5532240830362,397.55735779204406,398.55525375000434,399.5454028749955,399.5454028749955,399.5454028749955,401.5748403330217,right,2.0250391659792513,None,,,,,,,,,,,,,,,,,,,,,,,,,,,,,,,,,,,,,,,,,,,,,,405679,001,2024-12-05_13h30.39.909,Test,2024.2.4,None,2024-12-05 13h30.46.276688 +0100,
41,150,30,19,None,63,63,0,True,left,1.58690554095665,None,,,,,,,,0,63,63,63,,,,,,,,,401.5834187500295,,,,,,,,,,,,,,,,,,,,,,,,,,,,,,,,,,,,,,401.57981945801293,401.5834187500295,402.57721775001846,403.5719604580081,403.5719604580081,403.5719604580081,405.1756657920196,left,1.58690554095665,None,,,,,,,,,,,,,,,,,,,,,,,,,,,,,,,,,,,,,,,,,,,,,,405679,001,2024-12-05_13h30.39.909,Test,2024.2.4,None,2024-12-05 13h30.46.276688 +0100,
7,150,30,63,None,64,64,0,False,right,1.0415852909791283,None,,,,,,,,0,64,64,64,,,,,,,,,405.1928586669965,,,,,,,,,,,,,,,,,,,,,,,,,,,,,,,,,,,,,,405.18767425004626,405.1928586669965,406.18852433300344,407.17815404204885,407.17815404204885,407.17815404204885,408.22539137501735,right,1.0415852909791283,None,,,,,,,,,,,,,,,,,,,,,,,,,,,,,,,,,,,,,,,,,,,,,,405679,001,2024-12-05_13h30.39.909,Test,2024.2.4,None,2024-12-05 13h30.46.276688 +0100,
18,150,90,62,None,65,65,0,False,left,2.319994541001506,None,,,,,,,,0,65,65,65,,,,,,,,,408.2348925420083,,,,,,,,,,,,,,,,,,,,,,,,,,,,,,,,,,,,,,408.2313495420385,408.2348925420083,409.2270909170038,410.2219665830489,410.2219665830489,410.2219665830489,412.5472205420374,left,2.319994541001506,None,,,,,,,,,,,,,,,,,,,,,,,,,,,,,,,,,,,,,,,,,,,,,,405679,001,2024-12-05_13h30.39.909,Test,2024.2.4,None,2024-12-05 13h30.46.276688 +0100,
25,150,120,70,None,66,66,0,False,left,2.6478800419718027,None,,,,,,,,0,66,66,66,,,,,,,,,412.556796208024,,,,,,,,,,,,,,,,,,,,,,,,,,,,,,,,,,,,,,412.5523411250324,412.556796208024,413.55521483300254,414.5449553329963,414.5449553329963,414.5449553329963,417.19712162500946,left,2.6478800419718027,None,,,,,,,,,,,,,,,,,,,,,,,,,,,,,,,,,,,,,,,,,,,,,,405679,001,2024-12-05_13h30.39.909,Test,2024.2.4,None,2024-12-05 13h30.46.276688 +0100,
68,150,180,41,None,67,67,0,True,right,0.823637833003886,None,,,,,,,,0,67,67,67,,,,,,,,,417.2067821670207,,,,,,,,,,,,,,,,,,,,,,,,,,,,,,,,,,,,,,417.20195429201704,417.2067821670207,418.20528279204154,419.19425220799167,419.19425220799167,419.19425220799167,420.0249787920038,right,0.823637833003886,None,,,,,,,,,,,,,,,,,,,,,,,,,,,,,,,,,,,,,,,,,,,,,,405679,001,2024-12-05_13h30.39.909,Test,2024.2.4,None,2024-12-05 13h30.46.276688 +0100,
1,150,0,29,None,68,68,0,False,right,0.8868950830074027,None,,,,,,,,0,68,68,68,,,,,,,,,420.0340461670421,,,,,,,,,,,,,,,,,,,,,,,,,,,,,,,,,,,,,,420.0305904170382,420.0340461670421,421.02748874999816,422.0219602920115,422.0219602920115,422.0219602920115,422.9133551249979,right,0.8868950830074027,None,,,,,,,,,,,,,,,,,,,,,,,,,,,,,,,,,,,,,,,,,,,,,,405679,001,2024-12-05_13h30.39.909,Test,2024.2.4,None,2024-12-05 13h30.46.276688 +0100,
51,150,90,25,None,69,69,0,True,right,2.0627610000083223,None,,,,,,,,0,69,69,69,,,,,,,,,422.9386838329956,,,,,,,,,,,,,,,,,,,,,,,,,,,,,,,,,,,,,,422.9181352080195,422.9386838329956,423.9272753330297,424.9111534580006,424.9111534580006,424.9111534580006,426.980515125033,right,2.0627610000083223,None,,,,,,,,,,,,,,,,,,,,,,,,,,,,,,,,,,,,,,,,,,,,,,405679,001,2024-12-05_13h30.39.909,Test,2024.2.4,None,2024-12-05 13h30.46.276688 +0100,
,,,,,,,,,,,,,,,,,,,,,,,,,,,,,,,,,,,,,,,,,,,,,,,,,,,,,,,,,,,,,,,,,,,,,,,,,,,,,,,,,,426.9807151250425,426.98780133301625,426.98780133301625,433.2640196250286,space,6.271108582965098,None,,,,,,,,,,,,,,,,,,,,,,,,,,,,,,,,,,,,405679,001,2024-12-05_13h30.39.909,Test,2024.2.4,None,2024-12-05 13h30.46.276688 +0100,
20,150,90,24,None,0,0,0,,,,,,,,,,,,,,,,0,0,0,19,,,,,433.2870472500217,,,,,,,,,,,,,,,,,,,,,,,,,,,,,,,,,,,,,,,,,,,,,,,,,,,,,,,,,,433.28135770803783,433.2870472500217,433.4613200420281,433.4613200420281,433.4772611249937,435.17204825003864,435.17204825003864,435.14615387504455,,,,,,,,,,,,,,,,,,,,,,,,,,,,405679,001,2024-12-05_13h30.39.909,Test,2024.2.4,None,2024-12-05 13h30.46.276688 +0100,
14,150,60,20,None,1,1,0,,,,,,,,,,,,,,,,0,1,1,13,,,,,435.17204825003864,,,,,,,,,,,,,,,,,,,,,,,,,,,,,,,,,,,,,,,,,,,,,,,,,,,,,,,,,,435.15286504203686,435.18863337504445,435.36143470800016,435.36143470800016,435.37757408304606,437.054561958008,437.054561958008,437.04626445804024,,,,,,,,,,,,,,,,,,,,,,,,,,,,405679,001,2024-12-05_13h30.39.909,Test,2024.2.4,None,2024-12-05 13h30.46.276688 +0100,
32,150,180,7,None,2,2,0,,,,,,,,,,,,,,,,0,2,2,31,,,,,437.054561958008,,,,,,,,,,,,,,,,,,,,,,,,,,,,,,,,,,,,,,,,,,,,,,,,,,,,,,,,,,437.05187545804074,437.0601746250177,437.2608205000288,437.2608205000288,437.2551418330404,438.9542966670124,438.9542966670124,438.9458794580423,,,,,,,,,,,,,,,,,,,,,,,,,,,,405679,001,2024-12-05_13h30.39.909,Test,2024.2.4,None,2024-12-05 13h30.46.276688 +0100,
19,150,90,45,None,3,3,0,,,,,,,,,,,,,,,,0,3,3,18,,,,,438.9542966670124,,,,,,,,,,,,,,,,,,,,,,,,,,,,,,,,,,,,,,,,,,,,,,,,,,,,,,,,,,438.9512789170258,438.95972616702784,439.1607086250442,439.1607086250442,439.15521845803596,440.8546975420322,440.8546975420322,440.8464422080433,,,,,,,,,,,,,,,,,,,,,,,,,,,,405679,001,2024-12-05_13h30.39.909,Test,2024.2.4,None,2024-12-05 13h30.46.276688 +0100,
13,150,60,35,None,4,4,0,,,,,,,,,,,,,,,,0,4,4,12,,,,,440.8546975420322,,,,,,,,,,,,,,,,,,,,,,,,,,,,,,,,,,,,,,,,,,,,,,,,,,,,,,,,,,440.85193937504664,440.8599389580195,441.06076554203173,441.06076554203173,441.05525954201585,442.7545463750139,442.7545463750139,442.74656766699627,,,,,,,,,,,,,,,,,,,,,,,,,,,,405679,001,2024-12-05_13h30.39.909,Test,2024.2.4,None,2024-12-05 13h30.46.276688 +0100,
31,150,180,58,None,5,5,0,,,,,,,,,,,,,,,,0,5,5,30,,,,,442.7545463750139,,,,,,,,,,,,,,,,,,,,,,,,,,,,,,,,,,,,,,,,,,,,,,,,,,,,,,,,,,442.75188716704724,442.7599624170107,442.95975070801796,442.95975070801796,442.95447291701566,444.6543542500003,444.6543542500003,444.64628716703737,,,,,,,,,,,,,,,,,,,,,,,,,,,,405679,001,2024-12-05_13h30.39.909,Test,2024.2.4,None,2024-12-05 13h30.46.276688 +0100,
30,150,150,47,None,6,6,0,,,,,,,,,,,,,,,,0,6,6,29,,,,,444.6543542500003,,,,,,,,,,,,,,,,,,,,,,,,,,,,,,,,,,,,,,,,,,,,,,,,,,,,,,,,,,444.65101562504424,444.6597453750437,444.86075529200025,444.86075529200025,444.8552902920055,446.55437733302824,446.55437733302824,446.5470042080269,,,,,,,,,,,,,,,,,,,,,,,,,,,,405679,001,2024-12-05_13h30.39.909,Test,2024.2.4,None,2024-12-05 13h30.46.276688 +0100,
9,150,30,64,None,7,7,0,,,,,,,,,,,,,,,,0,7,7,8,,,,,446.55437733302824,,,,,,,,,,,,,,,,,,,,,,,,,,,,,,,,,,,,,,,,,,,,,,,,,,,,,,,,,,446.55145029199775,446.55970133299707,446.76104866701644,446.76104866701644,446.75530254200567,448.4548246670165,448.4548246670165,448.4456715420238,,,,,,,,,,,,,,,,,,,,,,,,,,,,405679,001,2024-12-05_13h30.39.909,Test,2024.2.4,None,2024-12-05 13h30.46.276688 +0100,
28,150,150,61,None,8,8,0,,,,,,,,,,,,,,,,0,8,8,27,,,,,448.4548246670165,,,,,,,,,,,,,,,,,,,,,,,,,,,,,,,,,,,,,,,,,,,,,,,,,,,,,,,,,,448.45216212503146,448.4599311249913,448.6609071250423,448.6609071250423,448.65522133302875,450.3542583330418,450.3542583330418,450.34616175002884,,,,,,,,,,,,,,,,,,,,,,,,,,,,405679,001,2024-12-05_13h30.39.909,Test,2024.2.4,None,2024-12-05 13h30.46.276688 +0100,
6,150,30,31,None,9,9,0,,,,,,,,,,,,,,,,0,9,9,5,,,,,450.3542583330418,,,,,,,,,,,,,,,,,,,,,,,,,,,,,,,,,,,,,,,,,,,,,,,,,,,,,,,,,,450.3510973750381,450.3594018330332,450.5608839170309,450.5608839170309,450.5552379169967,452.25441929203225,452.25441929203225,452.2463906670455,,,,,,,,,,,,,,,,,,,,,,,,,,,,405679,001,2024-12-05_13h30.39.909,Test,2024.2.4,None,2024-12-05 13h30.46.276688 +0100,
34,150,180,28,None,10,10,0,,,,,,,,,,,,,,,,0,10,10,33,,,,,452.25441929203225,,,,,,,,,,,,,,,,,,,,,,,,,,,,,,,,,,,,,,,,,,,,,,,,,,,,,,,,,,452.2515425000456,452.2599883750081,452.4613907079911,452.4613907079911,452.45535200001905,454.15423141699284,454.15423141699284,454.1458299580263,,,,,,,,,,,,,,,,,,,,,,,,,,,,405679,001,2024-12-05_13h30.39.909,Test,2024.2.4,None,2024-12-05 13h30.46.276688 +0100,
7,150,30,63,None,11,11,0,,,,,,,,,,,,,,,,0,11,11,6,,,,,454.15423141699284,,,,,,,,,,,,,,,,,,,,,,,,,,,,,,,,,,,,,,,,,,,,,,,,,,,,,,,,,,454.1506130420021,454.15915191703243,454.3611861250247,454.3611861250247,454.355252792011,456.0584423750406,456.0584423750406,456.04615850001574,,,,,,,,,,,,,,,,,,,,,,,,,,,,405679,001,2024-12-05_13h30.39.909,Test,2024.2.4,None,2024-12-05 13h30.46.276688 +0100,
18,150,90,62,None,12,12,0,,,,,,,,,,,,,,,,0,12,12,17,,,,,456.0584423750406,,,,,,,,,,,,,,,,,,,,,,,,,,,,,,,,,,,,,,,,,,,,,,,,,,,,,,,,,,456.0551982920151,456.07189570803894,456.261990833038,456.261990833038,456.261990833038,457.96535995800514,457.96535995800514,457.9573237080476,,,,,,,,,,,,,,,,,,,,,,,,,,,,405679,001,2024-12-05_13h30.39.909,Test,2024.2.4,None,2024-12-05 13h30.46.276688 +0100,
11,150,60,12,None,13,13,0,,,,,,,,,,,,,,,,0,13,13,10,,,,,457.96535995800514,,,,,,,,,,,,,,,,,,,,,,,,,,,,,,,,,,,,,,,,,,,,,,,,,,,,,,,,,,457.9628387920093,457.96535995800514,458.1606798330322,458.1606798330322,458.1606798330322,459.85429179202765,459.85429179202765,459.8460027500405,,,,,,,,,,,,,,,,,,,,,,,,,,,,405679,001,2024-12-05_13h30.39.909,Test,2024.2.4,None,2024-12-05 13h30.46.276688 +0100,
26,150,150,44,None,14,14,0,,,,,,,,,,,,,,,,0,14,14,25,,,,,459.85429179202765,,,,,,,,,,,,,,,,,,,,,,,,,,,,,,,,,,,,,,,,,,,,,,,,,,,,,,,,,,459.85118241701275,459.8594035420101,460.06093999999575,460.06093999999575,460.05527945799986,461.7547700830037,461.7547700830037,461.74681170802796,,,,,,,,,,,,,,,,,,,,,,,,,,,,405679,001,2024-12-05_13h30.39.909,Test,2024.2.4,None,2024-12-05 13h30.46.276688 +0100,
4,150,0,27,None,15,15,0,,,,,,,,,,,,,,,,0,15,15,3,,,,,461.7547700830037,,,,,,,,,,,,,,,,,,,,,,,,,,,,,,,,,,,,,,,,,,,,,,,,,,,,,,,,,,461.75198108301265,461.759753292019,461.9609078330104,461.9609078330104,461.9553066670196,463.6543910000473,463.6543910000473,463.64649662503507,,,,,,,,,,,,,,,,,,,,,,,,,,,,405679,001,2024-12-05_13h30.39.909,Test,2024.2.4,None,2024-12-05 13h30.46.276688 +0100,
10,150,30,42,None,16,16,0,,,,,,,,,,,,,,,,0,16,16,9,,,,,463.6543910000473,,,,,,,,,,,,,,,,,,,,,,,,,,,,,,,,,,,,,,,,,,,,,,,,,,,,,,,,,,463.65164979203837,463.65984866704093,463.85818541701883,463.85818541701883,463.85818541701883,465.5574993750197,465.5574993750197,465.5465603750199,,,,,,,,,,,,,,,,,,,,,,,,,,,,405679,001,2024-12-05_13h30.39.909,Test,2024.2.4,None,2024-12-05 13h30.46.276688 +0100,
23,150,120,39,None,17,17,0,,,,,,,,,,,,,,,,0,17,17,22,,,,,465.5574993750197,,,,,,,,,,,,,,,,,,,,,,,,,,,,,,,,,,,,,,,,,,,,,,,,,,,,,,,,,,465.5548168750247,465.57188141701045,465.76084287499543,465.76084287499543,465.76084287499543,467.45421679201536,467.45421679201536,467.4462698750431,,,,,,,,,,,,,,,,,,,,,,,,,,,,405679,001,2024-12-05_13h30.39.909,Test,2024.2.4,None,2024-12-05 13h30.46.276688 +0100,
12,150,60,13,None,18,18,0,,,,,,,,,,,,,,,,0,18,18,11,,,,,467.45421679201536,,,,,,,,,,,,,,,,,,,,,,,,,,,,,,,,,,,,,,,,,,,,,,,,,,,,,,,,,,467.45119195804,467.4594223750173,467.6608672920265,467.6608672920265,467.6552280000178,469.354499500012,469.354499500012,469.34677483304404,,,,,,,,,,,,,,,,,,,,,,,,,,,,405679,001,2024-12-05_13h30.39.909,Test,2024.2.4,None,2024-12-05 13h30.46.276688 +0100,
22,150,120,43,None,19,19,0,,,,,,,,,,,,,,,,0,19,19,21,,,,,469.354499500012,,,,,,,,,,,,,,,,,,,,,,,,,,,,,,,,,,,,,,,,,,,,,,,,,,,,,,,,,,469.35180925001623,469.36006529204315,469.56120041699614,469.56120041699614,469.55524987500394,471.2544204580481,471.2544204580481,471.2462362080114,,,,,,,,,,,,,,,,,,,,,,,,,,,,405679,001,2024-12-05_13h30.39.909,Test,2024.2.4,None,2024-12-05 13h30.46.276688 +0100,
24,150,120,22,None,20,20,0,,,,,,,,,,,,,,,,0,20,20,23,,,,,471.2544204580481,,,,,,,,,,,,,,,,,,,,,,,,,,,,,,,,,,,,,,,,,,,,,,,,,,,,,,,,,,471.25154641701374,471.2597770830034,471.4609352920088,471.4609352920088,471.45528383302735,473.15432383300504,473.15432383300504,473.14643783302745,,,,,,,,,,,,,,,,,,,,,,,,,,,,405679,001,2024-12-05_13h30.39.909,Test,2024.2.4,None,2024-12-05 13h30.46.276688 +0100,
1,150,0,29,None,21,21,0,,,,,,,,,,,,,,,,0,21,21,0,,,,,473.15432383300504,,,,,,,,,,,,,,,,,,,,,,,,,,,,,,,,,,,,,,,,,,,,,,,,,,,,,,,,,,473.1515531670302,473.15956504200585,473.36091708304593,473.36091708304593,473.35522629204206,475.0542509999941,475.0542509999941,475.0464172500069,,,,,,,,,,,,,,,,,,,,,,,,,,,,405679,001,2024-12-05_13h30.39.909,Test,2024.2.4,None,2024-12-05 13h30.46.276688 +0100,
5,150,0,55,None,22,22,0,,,,,,,,,,,,,,,,0,22,22,4,,,,,475.0542509999941,,,,,,,,,,,,,,,,,,,,,,,,,,,,,,,,,,,,,,,,,,,,,,,,,,,,,,,,,,475.05085295799654,475.05937837500824,475.2610435830429,475.2610435830429,475.25529137504054,476.9623481250019,476.9623481250019,476.9580778750242,,,,,,,,,,,,,,,,,,,,,,,,,,,,405679,001,2024-12-05_13h30.39.909,Test,2024.2.4,None,2024-12-05 13h30.46.276688 +0100,
15,150,60,2,None,23,23,0,,,,,,,,,,,,,,,,0,23,23,14,,,,,476.9623481250019,,,,,,,,,,,,,,,,,,,,,,,,,,,,,,,,,,,,,,,,,,,,,,,,,,,,,,,,,,476.96060045802733,476.9623481250019,477.16000954201445,477.16000954201445,477.16000954201445,478.87202062504366,478.87202062504366,478.84664766700007,,,,,,,,,,,,,,,,,,,,,,,,,,,,405679,001,2024-12-05_13h30.39.909,Test,2024.2.4,None,2024-12-05 13h30.46.276688 +0100,
25,150,120,70,None,24,24,0,,,,,,,,,,,,,,,,0,24,24,24,,,,,478.87202062504366,,,,,,,,,,,,,,,,,,,,,,,,,,,,,,,,,,,,,,,,,,,,,,,,,,,,,,,,,,478.85250091704074,478.8886261250009,479.0611741670291,479.0611741670291,479.07709841703763,480.7542680420447,480.7542680420447,480.74602879199665,,,,,,,,,,,,,,,,,,,,,,,,,,,,405679,001,2024-12-05_13h30.39.909,Test,2024.2.4,None,2024-12-05 13h30.46.276688 +0100,
35,150,180,56,None,25,25,0,,,,,,,,,,,,,,,,0,25,25,34,,,,,480.7542680420447,,,,,,,,,,,,,,,,,,,,,,,,,,,,,,,,,,,,,,,,,,,,,,,,,,,,,,,,,,480.7512332920451,480.7592410420184,480.9606890830328,480.9606890830328,480.9551649170462,482.6542366670328,482.6542366670328,482.64637804200174,,,,,,,,,,,,,,,,,,,,,,,,,,,,405679,001,2024-12-05_13h30.39.909,Test,2024.2.4,None,2024-12-05 13h30.46.276688 +0100,
21,150,120,54,None,26,26,0,,,,,,,,,,,,,,,,0,26,26,20,,,,,482.6542366670328,,,,,,,,,,,,,,,,,,,,,,,,,,,,,,,,,,,,,,,,,,,,,,,,,,,,,,,,,,482.6510462500155,482.65977329201996,482.8613445420051,482.8613445420051,482.85521420801524,484.5542802500422,484.5542802500422,484.54587608302245,,,,,,,,,,,,,,,,,,,,,,,,,,,,405679,001,2024-12-05_13h30.39.909,Test,2024.2.4,None,2024-12-05 13h30.46.276688 +0100,
33,150,180,67,None,27,27,0,,,,,,,,,,,,,,,,0,27,27,32,,,,,484.5542802500422,,,,,,,,,,,,,,,,,,,,,,,,,,,,,,,,,,,,,,,,,,,,,,,,,,,,,,,,,,484.55048916704254,484.5596776250168,484.76133237499744,484.76133237499744,484.75543362501776,486.45424237503903,486.45424237503903,486.44576508301543,,,,,,,,,,,,,,,,,,,,,,,,,,,,405679,001,2024-12-05_13h30.39.909,Test,2024.2.4,None,2024-12-05 13h30.46.276688 +0100,
17,150,90,52,None,28,28,0,,,,,,,,,,,,,,,,0,28,28,16,,,,,486.45424237503903,,,,,,,,,,,,,,,,,,,,,,,,,,,,,,,,,,,,,,,,,,,,,,,,,,,,,,,,,,486.45075970800826,486.4591510000173,486.66091795801185,486.66091795801185,486.6551631670445,488.35450783302076,488.35450783302076,488.34641016699607,,,,,,,,,,,,,,,,,,,,,,,,,,,,405679,001,2024-12-05_13h30.39.909,Test,2024.2.4,None,2024-12-05 13h30.46.276688 +0100,
3,150,0,51,None,29,29,0,,,,,,,,,,,,,,,,0,29,29,2,,,,,488.35450783302076,,,,,,,,,,,,,,,,,,,,,,,,,,,,,,,,,,,,,,,,,,,,,,,,,,,,,,,,,,488.3513266250375,488.35984425002243,488.56080533302156,488.56080533302156,488.5552308750339,490.2543617080082,490.2543617080082,490.2464373750263,,,,,,,,,,,,,,,,,,,,,,,,,,,,405679,001,2024-12-05_13h30.39.909,Test,2024.2.4,None,2024-12-05 13h30.46.276688 +0100,
8,150,30,46,None,30,30,0,,,,,,,,,,,,,,,,0,30,30,7,,,,,490.2543617080082,,,,,,,,,,,,,,,,,,,,,,,,,,,,,,,,,,,,,,,,,,,,,,,,,,,,,,,,,,490.2514360420173,490.25938991701696,490.46126675000414,490.46126675000414,490.45532183302566,492.15418312500697,492.15418312500697,492.14623729203595,,,,,,,,,,,,,,,,,,,,,,,,,,,,405679,001,2024-12-05_13h30.39.909,Test,2024.2.4,None,2024-12-05 13h30.46.276688 +0100,
2,150,0,8,None,31,31,0,,,,,,,,,,,,,,,,0,31,31,1,,,,,492.15418312500697,,,,,,,,,,,,,,,,,,,,,,,,,,,,,,,,,,,,,,,,,,,,,,,,,,,,,,,,,,492.1506412080489,492.15982533304486,492.36087262502406,492.36087262502406,492.35526575002586,494.06901537504746,494.06901537504746,494.0561332080397,,,,,,,,,,,,,,,,,,,,,,,,,,,,405679,001,2024-12-05_13h30.39.909,Test,2024.2.4,None,2024-12-05 13h30.46.276688 +0100,
27,150,150,30,None,32,32,0,,,,,,,,,,,,,,,,0,32,32,26,,,,,494.06901537504746,,,,,,,,,,,,,,,,,,,,,,,,,,,,,,,,,,,,,,,,,,,,,,,,,,,,,,,,,,494.0665206250269,494.06901537504746,494.2594596670242,494.2594596670242,494.2594596670242,495.95478000002913,495.95478000002913,495.94663616700564,,,,,,,,,,,,,,,,,,,,,,,,,,,,405679,001,2024-12-05_13h30.39.909,Test,2024.2.4,None,2024-12-05 13h30.46.276688 +0100,
29,150,150,59,None,33,33,0,,,,,,,,,,,,,,,,0,33,33,28,,,,,495.95478000002913,,,,,,,,,,,,,,,,,,,,,,,,,,,,,,,,,,,,,,,,,,,,,,,,,,,,,,,,,,495.9521497079986,495.9602369579952,496.1610872920137,496.1610872920137,496.155310458038,497.85426591703435,497.85426591703435,497.8464977500262,,,,,,,,,,,,,,,,,,,,,,,,,,,,405679,001,2024-12-05_13h30.39.909,Test,2024.2.4,None,2024-12-05 13h30.46.276688 +0100,
16,150,90,66,None,34,34,0,,,,,,,,,,,,,,,,0,34,34,15,,,,,497.85426591703435,,,,,,,,,,,,,,,,,,,,,,,,,,,,,,,,,,,,,,,,,,,,,,,,,,,,,,,,,,497.85116091702366,497.85939908301225,498.06073662504787,498.06073662504787,498.0552562500234,499.7552962080226,499.7552962080226,499.7465010830201,,,,,,,,,,,,,,,,,,,,,,,,,,,,405679,001,2024-12-05_13h30.39.909,Test,2024.2.4,None,2024-12-05 13h30.46.276688 +0100,
,,,,,,,,,,,,,,,,,,,,,,,,,,,,,,,,,,,,,,,,,,,,,,,,,,,,,,,,,,,,,,,,,,,,,,,,,,,,,,,,,,,,,,,,,,,,,,,,,499.74666775000514,499.762855167035,499.762855167035,502.77576874999795,space,3.0005669579841197,None,,,,,,,,,,,,,,,,,,,,,405679,001,2024-12-05_13h30.39.909,Test,2024.2.4,None,2024-12-05 13h30.46.276688 +0100,
37,150,0,21,None,0,0,0,True,,,,left,0.9968102920101956,None,,,,,,,,,,,,,0,0,0,0,502.7976942920359,,,,,,,,,,,,,,,,,,,,,,,,,,,,,,,,,,,,,,,,,,,,,,,,,,,,,,,,,,,,,,,,,,,,,,,,,502.7924240830471,502.7976942920359,503.79379254201194,504.77198170800693,504.77198170800693,504.77198170800693,505.77477887499845,left,0.9968102920101956,None,,,,,,,,,,,405679,001,2024-12-05_13h30.39.909,Test,2024.2.4,None,2024-12-05 13h30.46.276688 +0100,
23,150,120,39,None,1,1,0,False,,,,right,0.9111755840131082,None,,,,,,,,,,,,,0,1,1,1,505.7838524580002,,,,,,,,,,,,,,,,,,,,,,,,,,,,,,,,,,,,,,,,,,,,,,,,,,,,,,,,,,,,,,,,,,,,,,,,,505.7801723750308,505.7838524580002,506.77715937502217,507.77189025003463,507.77189025003463,507.77189025003463,508.6916081670206,right,0.9111755840131082,None,,,,,,,,,,,405679,001,2024-12-05_13h30.39.909,Test,2024.2.4,None,2024-12-05 13h30.46.276688 +0100,
49,150,60,68,None,2,2,0,True,,,,left,1.6017631249851547,None,,,,,,,,,,,,,0,2,2,2,508.7006747080013,,,,,,,,,,,,,,,,,,,,,,,,,,,,,,,,,,,,,,,,,,,,,,,,,,,,,,,,,,,,,,,,,,,,,,,,,508.69700120802736,508.7006747080013,509.6934005829971,510.6886373750167,510.6886373750167,510.6886373750167,512.2920630419976,left,1.6017631249851547,None,,,,,,,,,,,405679,001,2024-12-05_13h30.39.909,Test,2024.2.4,None,2024-12-05 13h30.46.276688 +0100,
13,150,60,35,None,3,3,0,False,,,,left,2.6353292919811793,None,,,,,,,,,,,,,0,3,3,3,512.3016889170394,,,,,,,,,,,,,,,,,,,,,,,,,,,,,,,,,,,,,,,,,,,,,,,,,,,,,,,,,,,,,,,,,,,,,,,,,512.2980073330109,512.3016889170394,513.2937895420473,514.2887765420019,514.2887765420019,514.2887765420019,516.930179500021,left,2.6353292919811793,None,,,,,,,,,,,405679,001,2024-12-05_13h30.39.909,Test,2024.2.4,None,2024-12-05 13h30.46.276688 +0100,
50,150,60,16,None,4,4,0,True,,,,right,1.6628225420136005,None,,,,,,,,,,,,,0,4,4,4,516.9399485830218,,,,,,,,,,,,,,,,,,,,,,,,,,,,,,,,,,,,,,,,,,,,,,,,,,,,,,,,,,,,,,,,,,,,,,,,,516.9355158749968,516.9399485830218,517.9386560830171,518.9275950830197,518.9275950830197,518.9275950830197,520.591862250003,right,1.6628225420136005,None,,,,,,,,,,,405679,001,2024-12-05_13h30.39.909,Test,2024.2.4,None,2024-12-05 13h30.46.276688 +0100,
64,150,150,9,None,5,5,0,True,,,,right,1.8712929579778574,None,,,,,,,,,,,,,0,5,5,5,520.6011101250187,,,,,,,,,,,,,,,,,,,,,,,,,,,,,,,,,,,,,,,,,,,,,,,,,,,,,,,,,,,,,,,,,,,,,,,,,520.5975871250266,520.6011101250187,521.5940890420461,522.5886792080128,522.5886792080128,522.5886792080128,524.4638142920448,right,1.8712929579778574,None,,,,,,,,,,,405679,001,2024-12-05_13h30.39.909,Test,2024.2.4,None,2024-12-05 13h30.46.276688 +0100,
39,150,0,26,None,6,6,0,True,,,,left,1.6288509999867529,None,,,,,,,,,,,,,0,6,6,6,524.4734785830369,,,,,,,,,,,,,,,,,,,,,,,,,,,,,,,,,,,,,,,,,,,,,,,,,,,,,,,,,,,,,,,,,,,,,,,,,524.4689239170402,524.4734785830369,525.4719677080284,526.4613776250044,526.4613776250044,526.4613776250044,528.0917122079991,left,1.6288509999867529,None,,,,,,,,,,,405679,001,2024-12-05_13h30.39.909,Test,2024.2.4,None,2024-12-05 13h30.46.276688 +0100,
70,150,180,33,None,7,7,0,True,,,,left,2.021164250036236,None,,,,,,,,,,,,,0,7,7,7,528.1004566250485,,,,,,,,,,,,,,,,,,,,,,,,,,,,,,,,,,,,,,,,,,,,,,,,,,,,,,,,,,,,,,,,,,,,,,,,,528.0968444580212,528.1004566250485,529.0943327080458,530.0886647080188,530.0886647080188,530.0886647080188,532.113378708018,left,2.021164250036236,None,,,,,,,,,,,405679,001,2024-12-05_13h30.39.909,Test,2024.2.4,None,2024-12-05 13h30.46.276688 +0100,
12,150,60,13,None,8,8,0,False,,,,right,0.7720356250065379,None,,,,,,,,,,,,,0,8,8,8,532.1237868750468,,,,,,,,,,,,,,,,,,,,,,,,,,,,,,,,,,,,,,,,,,,,,,,,,,,,,,,,,,,,,,,,,,,,,,,,,532.1194937080145,532.1237868750468,533.1219575420255,534.1115470000077,534.1115470000077,534.1115470000077,534.8914193750243,right,0.7720356250065379,None,,,,,,,,,,,405679,001,2024-12-05_13h30.39.909,Test,2024.2.4,None,2024-12-05 13h30.46.276688 +0100,
9,150,30,64,None,9,9,0,False,,,,right,0.744700874958653,None,,,,,,,,,,,,,0,9,9,9,534.9004492080421,,,,,,,,,,,,,,,,,,,,,,,,,,,,,,,,,,,,,,,,,,,,,,,,,,,,,,,,,,,,,,,,,,,,,,,,,534.8969440420042,534.9004492080421,535.8941349580418,536.8885908750235,536.8885908750235,536.8885908750235,537.6415926670306,right,0.744700874958653,None,,,,,,,,,,,405679,001,2024-12-05_13h30.39.909,Test,2024.2.4,None,2024-12-05 13h30.46.276688 +0100,
40,150,0,18,None,10,10,0,True,,,,left,0.9854193749488331,None,,,,,,,,,,,,,0,10,10,10,537.6502964170068,,,,,,,,,,,,,,,,,,,,,,,,,,,,,,,,,,,,,,,,,,,,,,,,,,,,,,,,,,,,,,,,,,,,,,,,,537.6467455420061,537.6502964170068,538.6438356669969,539.6386074170005,539.6386074170005,539.6386074170005,540.6306083750096,left,0.9854193749488331,None,,,,,,,,,,,405679,001,2024-12-05_13h30.39.909,Test,2024.2.4,None,2024-12-05 13h30.46.276688 +0100,
38,150,0,32,None,11,11,0,True,,,,right,0.7815151249524206,None,,,,,,,,,,,,,0,11,11,11,540.6399548750487,,,,,,,,,,,,,,,,,,,,,,,,,,,,,,,,,,,,,,,,,,,,,,,,,,,,,,,,,,,,,,,,,,,,,,,,,540.6357506670174,540.6399548750487,541.6385302499984,542.6282339169993,542.6282339169993,542.6282339169993,543.4135717920144,right,0.7815151249524206,None,,,,,,,,,,,405679,001,2024-12-05_13h30.39.909,Test,2024.2.4,None,2024-12-05 13h30.46.276688 +0100,
19,150,90,45,None,12,12,0,False,,,,right,0.7316837499965914,None,,,,,,,,,,,,,0,12,12,12,543.4234848750057,,,,,,,,,,,,,,,,,,,,,,,,,,,,,,,,,,,,,,,,,,,,,,,,,,,,,,,,,,,,,,,,,,,,,,,,,543.4188163750223,543.4234848750057,544.4220145830186,545.4114790000021,545.4114790000021,545.4114790000021,546.1472221250297,right,0.7316837499965914,None,,,,,,,,,,,405679,001,2024-12-05_13h30.39.909,Test,2024.2.4,None,2024-12-05 13h30.46.276688 +0100,
62,150,150,60,None,13,13,0,True,,,,right,0.7358267499948852,None,,,,,,,,,,,,,0,13,13,13,546.1570310000097,,,,,,,,,,,,,,,,,,,,,,,,,,,,,,,,,,,,,,,,,,,,,,,,,,,,,,,,,,,,,,,,,,,,,,,,,546.1525225830264,546.1570310000097,547.1553231670405,548.144814750005,548.144814750005,548.144814750005,548.8915430000052,right,0.7358267499948852,None,,,,,,,,,,,405679,001,2024-12-05_13h30.39.909,Test,2024.2.4,None,2024-12-05 13h30.46.276688 +0100,
52,150,90,1,None,14,14,0,True,,,,right,0.9179487079964019,None,,,,,,,,,,,,,0,14,14,14,548.90067141701,,,,,,,,,,,,,,,,,,,,,,,,,,,,,,,,,,,,,,,,,,,,,,,,,,,,,,,,,,,,,,,,,,,,,,,,,548.8973830000032,548.90067141701,549.8937463330221,550.8888895830023,550.8888895830023,550.8888895830023,551.8083904170198,right,0.9179487079964019,None,,,,,,,,,,,405679,001,2024-12-05_13h30.39.909,Test,2024.2.4,None,2024-12-05 13h30.46.276688 +0100,
31,150,180,58,None,15,15,0,False,,,,right,0.7927384590147994,None,,,,,,,,,,,,,0,15,15,15,551.8178492080187,,,,,,,,,,,,,,,,,,,,,,,,,,,,,,,,,,,,,,,,,,,,,,,,,,,,,,,,,,,,,,,,,,,,,,,,,551.8143102920149,551.8178492080187,552.8107770000352,553.8043896669988,553.8043896669988,553.8043896669988,554.609786999994,right,0.7927384590147994,None,,,,,,,,,,,405679,001,2024-12-05_13h30.39.909,Test,2024.2.4,None,2024-12-05 13h30.46.276688 +0100,
58,150,120,37,None,16,16,0,True,,,,left,1.4274439999717288,None,,,,,,,,,,,,,0,16,16,16,554.6205810829997,,,,,,,,,,,,,,,,,,,,,,,,,,,,,,,,,,,,,,,,,,,,,,,,,,,,,,,,,,,,,,,,,,,,,,,,,554.6157341250218,554.6205810829997,555.6103854580433,556.6053127500345,556.6053127500345,556.6053127500345,558.0420570000424,left,1.4274439999717288,None,,,,,,,,,,,405679,001,2024-12-05_13h30.39.909,Test,2024.2.4,None,2024-12-05 13h30.46.276688 +0100,
30,150,150,47,None,17,17,0,False,,,,right,0.920031875022687,None,,,,,,,,,,,,,0,17,17,17,558.0512837500428,,,,,,,,,,,,,,,,,,,,,,,,,,,,,,,,,,,,,,,,,,,,,,,,,,,,,,,,,,,,,,,,,,,,,,,,,558.047708542028,558.0512837500428,559.0440407500137,560.0387810830143,560.0387810830143,560.0387810830143,560.9633542500087,right,0.920031875022687,None,,,,,,,,,,,405679,001,2024-12-05_13h30.39.909,Test,2024.2.4,None,2024-12-05 13h30.46.276688 +0100,
57,150,120,36,None,18,18,0,True,,,,left,1.704501124972012,None,,,,,,,,,,,,,0,18,18,18,560.9736344169942,,,,,,,,,,,,,,,,,,,,,,,,,,,,,,,,,,,,,,,,,,,,,,,,,,,,,,,,,,,,,,,,,,,,,,,,,560.9690787920263,560.9736344169942,561.9719476670143,562.9614770420012,562.9614770420012,562.9614770420012,564.6753479170147,left,1.704501124972012,None,,,,,,,,,,,405679,001,2024-12-05_13h30.39.909,Test,2024.2.4,None,2024-12-05 13h30.46.276688 +0100,
46,150,60,48,None,19,19,0,True,,,,left,3.2031562080373988,None,,,,,,,,,,,,,0,19,19,19,564.684262291994,,,,,,,,,,,,,,,,,,,,,,,,,,,,,,,,,,,,,,,,,,,,,,,,,,,,,,,,,,,,,,,,,,,,,,,,,564.6807626670343,564.684262291994,565.6775686670444,566.6719496670412,566.6719496670412,566.6719496670412,569.8801004580455,left,3.2031562080373988,None,569.6608929579961,569.6608929579961,569.6720049169962,,,,,,,,405679,001,2024-12-05_13h30.39.909,Test,2024.2.4,None,2024-12-05 13h30.46.276688 +0100,
35,150,180,56,None,20,20,0,False,,,,right,2.572302040993236,None,,,,,,,,,,,,,0,20,20,20,569.890147291997,,,,,,,,,,,,,,,,,,,,,,,,,,,,,,,,,,,,,,,,,,,,,,,,,,,,,,,,,,,,,,,,,,,,,,,,,569.8855020000483,569.890147291997,570.8886171670165,571.8776752920239,571.8776752920239,571.8776752920239,574.4586663329974,right,2.572302040993236,None,,,,,,,,,,,405679,001,2024-12-05_13h30.39.909,Test,2024.2.4,None,2024-12-05 13h30.46.276688 +0100,
8,150,30,46,None,21,21,0,False,,,,right,2.1455379580147564,None,,,,,,,,,,,,,0,21,21,21,574.4678342920379,,,,,,,,,,,,,,,,,,,,,,,,,,,,,,,,,,,,,,,,,,,,,,,,,,,,,,,,,,,,,,,,,,,,,,,,,574.4642205000273,574.4678342920379,575.460863208049,576.4552640829934,576.4552640829934,576.4552640829934,578.6082652500481,right,2.1455379580147564,None,,,,,,,,,,,405679,001,2024-12-05_13h30.39.909,Test,2024.2.4,None,2024-12-05 13h30.46.276688 +0100,
45,150,30,3,None,22,22,0,True,,,,right,0.9946556659997441,None,,,,,,,,,,,,,0,22,22,22,578.6175578330294,,,,,,,,,,,,,,,,,,,,,,,,,,,,,,,,,,,,,,,,,,,,,,,,,,,,,,,,,,,,,,,,,,,,,,,,,578.6138785830117,578.6175578330294,579.6104927080451,580.6053170830128,580.6053170830128,580.6053170830128,581.6082901250338,right,0.9946556659997441,None,,,,,,,,,,,405679,001,2024-12-05_13h30.39.909,Test,2024.2.4,None,2024-12-05 13h30.46.276688 +0100,
42,150,30,34,None,23,23,0,True,,,,left,1.3520891250227578,None,,,,,,,,,,,,,0,23,23,23,581.6169634580147,,,,,,,,,,,,,,,,,,,,,,,,,,,,,,,,,,,,,,,,,,,,,,,,,,,,,,,,,,,,,,,,,,,,,,,,,581.6135172920185,581.6169634580147,582.6108870000462,583.6055366250221,583.6055366250221,583.6055366250221,584.9592405000003,left,1.3520891250227578,None,,,,,,,,,,,405679,001,2024-12-05_13h30.39.909,Test,2024.2.4,None,2024-12-05 13h30.46.276688 +0100,
65,150,150,65,None,24,24,0,True,,,,left,1.590044417011086,None,,,,,,,,,,,,,0,24,24,24,584.9676733330125,,,,,,,,,,,,,,,,,,,,,,,,,,,,,,,,,,,,,,,,,,,,,,,,,,,,,,,,,,,,,,,,,,,,,,,,,584.9639697080129,584.9676733330125,585.9604433330242,586.9553022500477,586.9553022500477,586.9553022500477,588.5469373330125,left,1.590044417011086,None,,,,,,,,,,,405679,001,2024-12-05_13h30.39.909,Test,2024.2.4,None,2024-12-05 13h30.46.276688 +0100,
11,150,60,12,None,25,25,0,False,,,,right,2.0811080830171704,None,,,,,,,,,,,,,0,25,25,25,588.5570468750084,,,,,,,,,,,,,,,,,,,,,,,,,,,,,,,,,,,,,,,,,,,,,,,,,,,,,,,,,,,,,,,,,,,,,,,,,588.5525417920435,588.5570468750084,589.5552840000018,590.5442850000109,590.5442850000109,590.5442850000109,592.6302972080302,right,2.0811080830171704,None,,,,,,,,,,,405679,001,2024-12-05_13h30.39.909,Test,2024.2.4,None,2024-12-05 13h30.46.276688 +0100,
55,150,90,14,None,26,26,0,True,,,,right,2.30460608395515,None,,,,,,,,,,,,,0,26,26,26,592.6406485420302,,,,,,,,,,,,,,,,,,,,,,,,,,,,,,,,,,,,,,,,,,,,,,,,,,,,,,,,,,,,,,,,,,,,,,,,,592.6364767920459,592.6406485420302,593.6385707080481,594.6283364170231,594.6283364170231,594.6283364170231,596.941658375028,right,2.30460608395515,None,,,,,,,,,,,405679,001,2024-12-05_13h30.39.909,Test,2024.2.4,None,2024-12-05 13h30.46.276688 +0100,
17,150,90,52,None,27,27,0,False,,,,left,1.5376328749698587,None,,,,,,,,,,,,,0,27,27,27,596.9507501670159,,,,,,,,,,,,,,,,,,,,,,,,,,,,,,,,,,,,,,,,,,,,,,,,,,,,,,,,,,,,,,,,,,,,,,,,,596.9470629169955,596.9507501670159,597.9437707079924,598.9386205830378,598.9386205830378,598.9386205830378,600.4803045419976,left,1.5376328749698587,None,,,,,,,,,,,405679,001,2024-12-05_13h30.39.909,Test,2024.2.4,None,2024-12-05 13h30.46.276688 +0100,
24,150,120,22,None,28,28,0,False,,,,left,1.5565510420128703,None,,,,,,,,,,,,,0,28,28,28,600.4905132920248,,,,,,,,,,,,,,,,,,,,,,,,,,,,,,,,,,,,,,,,,,,,,,,,,,,,,,,,,,,,,,,,,,,,,,,,,600.4864839580259,600.4905132920248,601.4885634580278,602.4779938750435,602.4779938750435,602.4779938750435,604.0423795420211,left,1.5565510420128703,None,,,,,,,,,,,405679,001,2024-12-05_13h30.39.909,Test,2024.2.4,None,2024-12-05 13h30.46.276688 +0100,
21,150,120,54,None,29,29,0,False,,,,right,0.9756398330209777,None,,,,,,,,,,,,,0,29,29,29,604.0522407499957,,,,,,,,,,,,,,,,,,,,,,,,,,,,,,,,,,,,,,,,,,,,,,,,,,,,,,,,,,,,,,,,,,,,,,,,,604.0480167920468,604.0522407499957,605.0439367500367,606.0386148749967,606.0386148749967,606.0386148749967,607.0248561670305,right,0.9756398330209777,None,,,,,,,,,,,405679,001,2024-12-05_13h30.39.909,Test,2024.2.4,None,2024-12-05 13h30.46.276688 +0100,
61,150,150,53,None,30,30,0,True,,,,left,1.476685042027384,None,,,,,,,,,,,,,0,30,30,30,607.0339135000249,,,,,,,,,,,,,,,,,,,,,,,,,,,,,,,,,,,,,,,,,,,,,,,,,,,,,,,,,,,,,,,,,,,,,,,,,607.0303971670219,607.0339135000249,608.027423417021,609.0213241250021,609.0213241250021,609.0213241250021,610.5075180830318,left,1.476685042027384,None,,,,,,,,,,,405679,001,2024-12-05_13h30.39.909,Test,2024.2.4,None,2024-12-05 13h30.46.276688 +0100,
22,150,120,43,None,31,31,0,False,,,,right,0.9459106249851175,None,,,,,,,,,,,,,0,31,31,31,610.5248040000442,,,,,,,,,,,,,,,,,,,,,,,,,,,,,,,,,,,,,,,,,,,,,,,,,,,,,,,,,,,,,,,,,,,,,,,,,610.5188135830103,610.5248040000442,611.5219590830384,612.5052557500312,612.5052557500312,612.5052557500312,613.4697444580379,right,0.9459106249851175,None,,,,,,,,,,,405679,001,2024-12-05_13h30.39.909,Test,2024.2.4,None,2024-12-05 13h30.46.276688 +0100,
6,150,30,31,None,32,32,0,False,,,,left,2.2075180420069955,None,,,,,,,,,,,,,0,32,32,32,613.4885655000107,,,,,,,,,,,,,,,,,,,,,,,,,,,,,,,,,,,,,,,,,,,,,,,,,,,,,,,,,,,,,,,,,,,,,,,,,613.4830180419958,613.4885655000107,614.4767187919933,615.4607158750296,615.4607158750296,615.4607158750296,617.675102750014,left,2.2075180420069955,None,,,,,,,,,,,405679,001,2024-12-05_13h30.39.909,Test,2024.2.4,None,2024-12-05 13h30.46.276688 +0100,
33,150,180,67,None,33,33,0,False,,,,right,2.734941916016396,None,,,,,,,,,,,,,0,33,33,33,617.6842881250195,,,,,,,,,,,,,,,,,,,,,,,,,,,,,,,,,,,,,,,,,,,,,,,,,,,,,,,,,,,,,,,,,,,,,,,,,617.6806164170266,617.6842881250195,618.6774914580164,619.6721642920165,619.6721642920165,619.6721642920165,622.408619416994,right,2.734941916016396,None,,,,,,,,,,,405679,001,2024-12-05_13h30.39.909,Test,2024.2.4,None,2024-12-05 13h30.46.276688 +0100,
10,150,30,42,None,34,34,0,False,,,,right,1.5039927500183694,None,,,,,,,,,,,,,0,34,34,34,622.4176767080207,,,,,,,,,,,,,,,,,,,,,,,,,,,,,,,,,,,,,,,,,,,,,,,,,,,,,,,,,,,,,,,,,,,,,,,,,622.4139570420375,622.4176767080207,623.4106042500352,624.4052830419969,624.4052830419969,624.4052830419969,625.9155883330386,right,1.5039927500183694,None,,,,,,,,,,,405679,001,2024-12-05_13h30.39.909,Test,2024.2.4,None,2024-12-05 13h30.46.276688 +0100,
26,150,150,44,None,35,35,0,False,,,,right,0.9221610840177163,None,,,,,,,,,,,,,0,35,35,35,625.9295805420261,,,,,,,,,,,,,,,,,,,,,,,,,,,,,,,,,,,,,,,,,,,,,,,,,,,,,,,,,,,,,,,,,,,,,,,,,625.9247008750099,625.9295805420261,626.9259833749966,627.9109329580097,627.9109329580097,627.9109329580097,628.8423831670079,right,0.9221610840177163,None,,,,,,,,,,,405679,001,2024-12-05_13h30.39.909,Test,2024.2.4,None,2024-12-05 13h30.46.276688 +0100,
27,150,150,30,None,36,36,0,False,,,,right,1.1518804170191288,None,,,,,,,,,,,,,0,36,36,36,628.8549392500427,,,,,,,,,,,,,,,,,,,,,,,,,,,,,,,,,,,,,,,,,,,,,,,,,,,,,,,,,,,,,,,,,,,,,,,,,628.8500899170176,628.8549392500427,629.8434577500448,630.8387327500386,630.8387327500386,630.8387327500386,631.9922326250235,right,1.1518804170191288,None,,,,,,,,,,,405679,001,2024-12-05_13h30.39.909,Test,2024.2.4,None,2024-12-05 13h30.46.276688 +0100,
32,150,180,7,None,37,37,0,False,,,,right,1.0421422499930486,None,,,,,,,,,,,,,0,37,37,37,632.0027824999997,,,,,,,,,,,,,,,,,,,,,,,,,,,,,,,,,,,,,,,,,,,,,,,,,,,,,,,,,,,,,,,,,,,,,,,,,631.9993731669965,632.0027824999997,632.9936931669945,633.9884965000092,633.9884965000092,633.9884965000092,635.041563958046,right,1.0421422499930486,None,,,,,,,,,,,405679,001,2024-12-05_13h30.39.909,Test,2024.2.4,None,2024-12-05 13h30.46.276688 +0100,
66,150,180,38,None,38,38,0,True,,,,left,2.3437473329831846,None,,,,,,,,,,,,,0,38,38,38,635.0508275420289,,,,,,,,,,,,,,,,,,,,,,,,,,,,,,,,,,,,,,,,,,,,,,,,,,,,,,,,,,,,,,,,,,,,,,,,,635.047158833011,635.0508275420289,636.043819707993,637.038799083035,637.038799083035,637.038799083035,639.3930112920352,left,2.3437473329831846,None,,,,,,,,,,,405679,001,2024-12-05_13h30.39.909,Test,2024.2.4,None,2024-12-05 13h30.46.276688 +0100,
34,150,180,28,None,39,39,0,False,,,,right,1.5212086249957792,None,,,,,,,,,,,,,0,39,39,39,639.403504832997,,,,,,,,,,,,,,,,,,,,,,,,,,,,,,,,,,,,,,,,,,,,,,,,,,,,,,,,,,,,,,,,,,,,,,,,,639.3996075830073,639.403504832997,640.3943796670064,641.3886542080436,641.3886542080436,641.3886542080436,642.913706833031,right,1.5212086249957792,None,,,,,,,,,,,405679,001,2024-12-05_13h30.39.909,Test,2024.2.4,None,2024-12-05 13h30.46.276688 +0100,
44,150,30,23,None,40,40,0,True,,,,left,2.079281499958597,None,,,,,,,,,,,,,0,40,40,40,642.9237037500134,,,,,,,,,,,,,,,,,,,,,,,,,,,,,,,,,,,,,,,,,,,,,,,,,,,,,,,,,,,,,,,,,,,,,,,,,642.9190457080258,642.9237037500134,643.9211188750342,644.9116687080241,644.9116687080241,644.9116687080241,646.9970421250327,left,2.079281499958597,None,,,,,,,,,,,405679,001,2024-12-05_13h30.39.909,Test,2024.2.4,None,2024-12-05 13h30.46.276688 +0100,
15,150,60,2,None,41,41,0,False,,,,right,0.8672586249886081,None,,,,,,,,,,,,,0,41,41,41,647.0068398330477,,,,,,,,,,,,,,,,,,,,,,,,,,,,,,,,,,,,,,,,,,,,,,,,,,,,,,,,,,,,,,,,,,,,,,,,,647.002534875006,647.0068398330477,648.0052602080395,648.9942122499924,648.9942122499924,648.9942122499924,649.8634303330327,right,0.8672586249886081,None,,,,,,,,,,,405679,001,2024-12-05_13h30.39.909,Test,2024.2.4,None,2024-12-05 13h30.46.276688 +0100,
29,150,150,59,None,42,42,0,False,,,,left,1.664599374984391,None,,,,,,,,,,,,,0,42,42,42,649.8733946669963,,,,,,,,,,,,,,,,,,,,,,,,,,,,,,,,,,,,,,,,,,,,,,,,,,,,,,,,,,,,,,,,,,,,,,,,,649.8689659170341,649.8733946669963,650.8719839580008,651.861187500006,651.861187500006,651.861187500006,653.5301206250442,left,1.664599374984391,None,,,,,,,,,,,405679,001,2024-12-05_13h30.39.909,Test,2024.2.4,None,2024-12-05 13h30.46.276688 +0100,
2,150,0,8,None,43,43,0,False,,,,right,1.2163329999893904,None,,,,,,,,,,,,,0,43,43,43,653.5402775830007,,,,,,,,,,,,,,,,,,,,,,,,,,,,,,,,,,,,,,,,,,,,,,,,,,,,,,,,,,,,,,,,,,,,,,,,,653.5352208330296,653.5402775830007,654.5386069579981,655.5275499169948,655.5275499169948,655.5275499169948,656.7473679170362,right,1.2163329999893904,None,,,,,,,,,,,405679,001,2024-12-05_13h30.39.909,Test,2024.2.4,None,2024-12-05 13h30.46.276688 +0100,
28,150,150,61,None,44,44,0,False,,,,right,1.607788374996744,None,,,,,,,,,,,,,0,44,44,44,656.7583367500338,,,,,,,,,,,,,,,,,,,,,,,,,,,,,,,,,,,,,,,,,,,,,,,,,,,,,,,,,,,,,,,,,,,,,,,,,656.7549580000341,656.7583367500338,657.7555327920127,658.7444215830183,658.7444215830183,658.7444215830183,660.358178583032,right,1.607788374996744,None,,,,,,,,,,,405679,001,2024-12-05_13h30.39.909,Test,2024.2.4,None,2024-12-05 13h30.46.276688 +0100,
60,150,120,10,None,45,45,0,True,,,,right,0.8465050829690881,None,,,,,,,,,,,,,0,45,45,45,660.3668479580083,,,,,,,,,,,,,,,,,,,,,,,,,,,,,,,,,,,,,,,,,,,,,,,,,,,,,,,,,,,,,,,,,,,,,,,,,660.3633861250128,660.3668479580083,661.3601835830486,662.355310917017,662.355310917017,662.355310917017,663.2085209580255,right,0.8465050829690881,None,,,,,,,,,,,405679,001,2024-12-05_13h30.39.909,Test,2024.2.4,None,2024-12-05 13h30.46.276688 +0100,
59,150,120,17,None,46,46,0,True,,,,left,2.6289288330008276,None,,,,,,,,,,,,,0,46,46,46,663.2182130830479,,,,,,,,,,,,,,,,,,,,,,,,,,,,,,,,,,,,,,,,,,,,,,,,,,,,,,,,,,,,,,,,,,,,,,,,,663.2142750000348,663.2182130830479,664.2104732920416,665.2051292080432,665.2051292080432,665.2051292080432,667.8415571670048,left,2.6289288330008276,None,,,,,,,,,,,405679,001,2024-12-05_13h30.39.909,Test,2024.2.4,None,2024-12-05 13h30.46.276688 +0100,
67,150,180,4,None,47,47,0,True,,,,left,1.1239277500426397,None,,,,,,,,,,,,,0,47,47,47,667.8514282079996,,,,,,,,,,,,,,,,,,,,,,,,,,,,,,,,,,,,,,,,,,,,,,,,,,,,,,,,,,,,,,,,,,,,,,,,,667.8478335000109,667.8514282079996,668.8443184579955,669.8385767080472,669.8385767080472,669.8385767080472,670.9750997500378,left,1.1239277500426397,None,,,,,,,,,,,405679,001,2024-12-05_13h30.39.909,Test,2024.2.4,None,2024-12-05 13h30.46.276688 +0100,
5,150,0,55,None,48,48,0,False,,,,right,1.449262916983571,None,,,,,,,,,,,,,0,48,48,48,670.9856767920428,,,,,,,,,,,,,,,,,,,,,,,,,,,,,,,,,,,,,,,,,,,,,,,,,,,,,,,,,,,,,,,,,,,,,,,,,670.9816587500391,670.9856767920428,671.9771223330172,672.9720522080315,672.9720522080315,672.9720522080315,674.4251349170227,right,1.449262916983571,None,,,,,,,,,,,405679,001,2024-12-05_13h30.39.909,Test,2024.2.4,None,2024-12-05 13h30.46.276688 +0100,
63,150,150,5,None,49,49,0,True,,,,left,2.3976975840050727,None,,,,,,,,,,,,,0,49,49,49,674.4376612080378,,,,,,,,,,,,,,,,,,,,,,,,,,,,,,,,,,,,,,,,,,,,,,,,,,,,,,,,,,,,,,,,,,,,,,,,,674.4324929580325,674.4376612080378,675.4270972920349,676.4219726250158,676.4219726250158,676.4219726250158,678.8255083330441,left,2.3976975840050727,None,,,,,,,,,,,405679,001,2024-12-05_13h30.39.909,Test,2024.2.4,None,2024-12-05 13h30.46.276688 +0100,
43,150,30,11,None,50,50,0,True,,,,left,1.8849811250111088,None,,,,,,,,,,,,,0,50,50,50,678.8425702080131,,,,,,,,,,,,,,,,,,,,,,,,,,,,,,,,,,,,,,,,,,,,,,,,,,,,,,,,,,,,,,,,,,,,,,,,,678.8375666250358,678.8425702080131,679.838654250023,680.8222719579935,680.8222719579935,680.8222719579935,682.7089231249993,left,1.8849811250111088,None,,,,,,,,,,,405679,001,2024-12-05_13h30.39.909,Test,2024.2.4,None,2024-12-05 13h30.46.276688 +0100,
14,150,60,20,None,51,51,0,False,,,,right,0.7520483330008574,None,,,,,,,,,,,,,0,51,51,51,682.7181290420122,,,,,,,,,,,,,,,,,,,,,,,,,,,,,,,,,,,,,,,,,,,,,,,,,,,,,,,,,,,,,,,,,,,,,,,,,682.7146505420096,682.7181290420122,683.7103566250298,684.7053965830128,684.7053965830128,684.7053965830128,685.4598803750123,right,0.7520483330008574,None,,,,,,,,,,,405679,001,2024-12-05_13h30.39.909,Test,2024.2.4,None,2024-12-05 13h30.46.276688 +0100,
48,150,60,69,None,52,52,0,True,,,,left,0.9591621660511009,None,,,,,,,,,,,,,0,52,52,52,685.4695387920365,,,,,,,,,,,,,,,,,,,,,,,,,,,,,,,,,,,,,,,,,,,,,,,,,,,,,,,,,,,,,,,,,,,,,,,,,685.4657701250399,685.4695387920365,686.4605777499964,687.4555179169984,687.4555179169984,687.4555179169984,688.4252358750091,left,0.9591621660511009,None,,,,,,,,,,,405679,001,2024-12-05_13h30.39.909,Test,2024.2.4,None,2024-12-05 13h30.46.276688 +0100,
69,150,180,15,None,53,53,0,True,,,,right,0.6399850419838913,None,,,,,,,,,,,,,0,53,53,53,688.4345697920071,,,,,,,,,,,,,,,,,,,,,,,,,,,,,,,,,,,,,,,,,,,,,,,,,,,,,,,,,,,,,,,,,,,,,,,,,688.4309029580327,688.4345697920071,689.427656667016,690.4220602920395,690.4220602920395,690.4220602920395,691.063632208039,right,0.6399850419838913,None,,,,,,,,,,,405679,001,2024-12-05_13h30.39.909,Test,2024.2.4,None,2024-12-05 13h30.46.276688 +0100,
56,150,120,49,None,54,54,0,True,,,,right,0.8069546250044368,None,,,,,,,,,,,,,0,54,54,54,691.0887372920406,,,,,,,,,,,,,,,,,,,,,,,,,,,,,,,,,,,,,,,,,,,,,,,,,,,,,,,,,,,,,,,,,,,,,,,,,691.067977083032,691.0887372920406,692.0772393330117,693.0612989170477,693.0612989170477,693.0612989170477,693.8749683329952,right,0.8069546250044368,None,,,,,,,,,,,405679,001,2024-12-05_13h30.39.909,Test,2024.2.4,None,2024-12-05 13h30.46.276688 +0100,
16,150,90,66,None,55,55,0,False,,,,left,1.7306514579686336,None,,,,,,,,,,,,,0,55,55,55,693.8839492920088,,,,,,,,,,,,,,,,,,,,,,,,,,,,,,,,,,,,,,,,,,,,,,,,,,,,,,,,,,,,,,,,,,,,,,,,,693.8802234579925,693.8839492920088,694.8771141250036,695.8720273330109,695.8720273330109,695.8720273330109,697.6083938750089,left,1.7306514579686336,None,,,,,,,,,,,405679,001,2024-12-05_13h30.39.909,Test,2024.2.4,None,2024-12-05 13h30.46.276688 +0100,
20,150,90,24,None,56,56,0,False,,,,left,0.9352777090389282,None,,,,,,,,,,,,,0,56,56,56,697.6172169580241,,,,,,,,,,,,,,,,,,,,,,,,,,,,,,,,,,,,,,,,,,,,,,,,,,,,,,,,,,,,,,,,,,,,,,,,,697.6136730830185,697.6172169580241,698.610918875027,699.6053373329923,699.6053373329923,699.6053373329923,700.542244583019,left,0.9352777090389282,None,,,,,,,,,,,405679,001,2024-12-05_13h30.39.909,Test,2024.2.4,None,2024-12-05 13h30.46.276688 +0100,
54,150,90,6,None,57,57,0,True,,,,right,0.6994865830056369,None,,,,,,,,,,,,,0,57,57,57,700.5504957920057,,,,,,,,,,,,,,,,,,,,,,,,,,,,,,,,,,,,,,,,,,,,,,,,,,,,,,,,,,,,,,,,,,,,,,,,,700.5469895420247,700.5504957920057,701.544338333013,702.5387067919946,702.5387067919946,702.5387067919946,703.2435063750017,right,0.6994865830056369,None,,,,,,,,,,,405679,001,2024-12-05_13h30.39.909,Test,2024.2.4,None,2024-12-05 13h30.46.276688 +0100,
53,150,90,40,None,58,58,0,True,,,,left,1.7467606670106761,None,,,,,,,,,,,,,0,58,58,58,703.2552647500415,,,,,,,,,,,,,,,,,,,,,,,,,,,,,,,,,,,,,,,,,,,,,,,,,,,,,,,,,,,,,,,,,,,,,,,,,703.2478742499952,703.2552647500415,704.2423716670019,705.2387020000024,705.2387020000024,705.2387020000024,706.9918227080489,left,1.7467606670106761,None,,,,,,,,,,,405679,001,2024-12-05_13h30.39.909,Test,2024.2.4,None,2024-12-05 13h30.46.276688 +0100,
3,150,0,51,None,59,59,0,False,,,,right,0.885444582963828,None,,,,,,,,,,,,,0,59,59,59,707.0021307920106,,,,,,,,,,,,,,,,,,,,,,,,,,,,,,,,,,,,,,,,,,,,,,,,,,,,,,,,,,,,,,,,,,,,,,,,,706.998389208049,707.0021307920106,707.9936244580313,708.9884099170449,708.9884099170449,708.9884099170449,709.8751670829952,right,0.885444582963828,None,,,,,,,,,,,405679,001,2024-12-05_13h30.39.909,Test,2024.2.4,None,2024-12-05 13h30.46.276688 +0100,
36,150,0,50,None,60,60,0,True,,,,left,0.9390416669775732,None,,,,,,,,,,,,,0,60,60,60,709.8845898330328,,,,,,,,,,,,,,,,,,,,,,,,,,,,,,,,,,,,,,,,,,,,,,,,,,,,,,,,,,,,,,,,,,,,,,,,,709.8811208330444,709.8845898330328,710.8770115420339,711.8719788750168,711.8719788750168,711.8719788750168,712.8136517080129,left,0.9390416669775732,None,,,,,,,,,,,405679,001,2024-12-05_13h30.39.909,Test,2024.2.4,None,2024-12-05 13h30.46.276688 +0100,
47,150,60,57,None,61,61,0,True,,,,left,2.1008747079758905,None,,,,,,,,,,,,,0,61,61,61,712.823564958002,,,,,,,,,,,,,,,,,,,,,,,,,,,,,,,,,,,,,,,,,,,,,,,,,,,,,,,,,,,,,,,,,,,,,,,,,712.8189554580022,712.823564958002,713.8220490830136,714.8112641250482,714.8112641250482,714.8112641250482,716.9137517079944,left,2.1008747079758905,None,,,,,,,,,,,405679,001,2024-12-05_13h30.39.909,Test,2024.2.4,None,2024-12-05 13h30.46.276688 +0100,
4,150,0,27,None,62,62,0,False,,,,left,1.5125150420353748,None,,,,,,,,,,,,,0,62,62,62,716.9242388750426,,,,,,,,,,,,,,,,,,,,,,,,,,,,,,,,,,,,,,,,,,,,,,,,,,,,,,,,,,,,,,,,,,,,,,,,,716.9195086670225,716.9242388750426,717.9218983330065,718.9111154580023,718.9111154580023,718.9111154580023,720.4250026250375,left,1.5125150420353748,None,,,,,,,,,,,405679,001,2024-12-05_13h30.39.909,Test,2024.2.4,None,2024-12-05 13h30.46.276688 +0100,
41,150,30,19,None,63,63,0,True,,,,left,1.0380274169729091,None,,,,,,,,,,,,,0,63,63,63,720.433615832997,,,,,,,,,,,,,,,,,,,,,,,,,,,,,,,,,,,,,,,,,,,,,,,,,,,,,,,,,,,,,,,,,,,,,,,,,720.4300865420373,720.433615832997,721.4276296250173,722.4220496670459,722.4220496670459,722.4220496670459,723.463683375041,left,1.0380274169729091,None,,,,,,,,,,,405679,001,2024-12-05_13h30.39.909,Test,2024.2.4,None,2024-12-05 13h30.46.276688 +0100,
7,150,30,63,None,64,64,0,False,,,,right,0.819612541992683,None,,,,,,,,,,,,,0,64,64,64,723.4735618330305,,,,,,,,,,,,,,,,,,,,,,,,,,,,,,,,,,,,,,,,,,,,,,,,,,,,,,,,,,,,,,,,,,,,,,,,,723.468730291992,723.4735618330305,724.4720182500314,725.4615939170471,725.4615939170471,725.4615939170471,726.2914504579967,right,0.819612541992683,None,,,,,,,,,,,405679,001,2024-12-05_13h30.39.909,Test,2024.2.4,None,2024-12-05 13h30.46.276688 +0100,
18,150,90,62,None,65,65,0,False,,,,right,0.8082715420168824,None,,,,,,,,,,,,,0,65,65,65,726.3069668330136,,,,,,,,,,,,,,,,,,,,,,,,,,,,,,,,,,,,,,,,,,,,,,,,,,,,,,,,,,,,,,,,,,,,,,,,,726.3017466670135,726.3069668330136,727.3054195420118,728.2887194580398,728.2887194580398,728.2887194580398,729.108444500016,right,0.8082715420168824,None,,,,,,,,,,,405679,001,2024-12-05_13h30.39.909,Test,2024.2.4,None,2024-12-05 13h30.46.276688 +0100,
25,150,120,70,None,66,66,0,False,,,,right,1.21873866597889,None,,,,,,,,,,,,,0,66,66,66,729.1163953749929,,,,,,,,,,,,,,,,,,,,,,,,,,,,,,,,,,,,,,,,,,,,,,,,,,,,,,,,,,,,,,,,,,,,,,,,,729.1128388330108,729.1163953749929,730.1110365830245,731.1053497500252,731.1053497500252,731.1053497500252,732.330172292015,right,1.21873866597889,None,,,,,,,,,,,405679,001,2024-12-05_13h30.39.909,Test,2024.2.4,None,2024-12-05 13h30.46.276688 +0100,
68,150,180,41,None,67,67,0,True,,,,left,1.5691792499856092,None,,,,,,,,,,,,,0,67,67,67,732.3403567500063,,,,,,,,,,,,,,,,,,,,,,,,,,,,,,,,,,,,,,,,,,,,,,,,,,,,,,,,,,,,,,,,,,,,,,,,,732.3361782500288,732.3403567500063,733.3386684580473,734.3284273330355,734.3284273330355,734.3284273330355,735.9100266250316,left,1.5691792499856092,None,,,,,,,,,,,405679,001,2024-12-05_13h30.39.909,Test,2024.2.4,None,2024-12-05 13h30.46.276688 +0100,
1,150,0,29,None,68,68,0,False,,,,right,1.8396279999869876,None,,,,,,,,,,,,,0,68,68,68,735.9233609170187,,,,,,,,,,,,,,,,,,,,,,,,,,,,,,,,,,,,,,,,,,,,,,,,,,,,,,,,,,,,,,,,,,,,,,,,,735.9181107500335,735.9233609170187,736.9219056669972,737.9053821249981,737.9053821249981,737.9053821249981,739.7470317080151,right,1.8396279999869876,None,,,,,,,,,,,405679,001,2024-12-05_13h30.39.909,Test,2024.2.4,None,2024-12-05 13h30.46.276688 +0100,
51,150,90,25,None,69,69,0,True,,,,left,1.2406805420177989,None,,,,,,,,,,,,,0,69,69,69,739.7575879170327,,,,,,,,,,,,,,,,,,,,,,,,,,,,,,,,,,,,,,,,,,,,,,,,,,,,,,,,,,,,,,,,,,,,,,,,,739.7527894170489,739.7575879170327,740.7552882920136,741.7442819999997,741.7442819999997,741.7442819999997,742.9912605830468,left,1.2406805420177989,None,,,,,,,,,,,405679,001,2024-12-05_13h30.39.909,Test,2024.2.4,None,2024-12-05 13h30.46.276688 +0100,
,,,,,,,,,,,,,,,,,,,,,,,,,,,,,,,,,,,,,,,,,,,,,,,,,,,,,,,,,,,,,,,,,,,,,,,,,,,,,,,,,,,,,,,,,,,,,,,,,,,,,,,,,,,,,,,,,,,,,742.9915232920321,742.9983858329942,742.9983858329942,746.2747479170212,space,3.2651951250154525,None,405679,001,2024-12-05_13h30.39.909,Test,2024.2.4,None,2024-12-05 13h30.46.276688 +0100,
