Trial_Number,Exposure_Duration,Displacement_Angle,Stimulus,Response,thisN,thisTrialN,thisRepN,Is_Distractor,key_resp_3.keys,key_resp_3.rt,key_resp_3.duration,key_resp_7.keys,key_resp_7.rt,key_resp_7.duration,trials.thisRepN,trials.thisTrialN,trials.thisN,trials.thisIndex,trials_2.thisRepN,trials_2.thisTrialN,trials_2.thisN,trials_2.thisIndex,trials_3.thisRepN,trials_3.thisTrialN,trials_3.thisN,trials_3.thisIndex,trials_4.thisRepN,trials_4.thisTrialN,trials_4.thisN,trials_4.thisIndex,thisRow.t,notes,Intro_to_experiment.started,important1_2.started,key_resp_8.started,Intro_to_experiment.stopped,key_resp_8.keys,key_resp_8.rt,key_resp_8.duration,important.started,important1.started,key_resp_4.started,important.stopped,key_resp_4.keys,key_resp_4.rt,key_resp_4.duration,instruction.started,text_7.started,key_resp_9.started,instruction.stopped,key_resp_9.keys,key_resp_9.rt,key_resp_9.duration,training_trial.started,cross.started,image.started,cross.stopped,aperture.started,training_trial.stopped,image.stopped,aperture.stopped,New_instruction.started,text.started,key_resp_2.started,New_instruction.stopped,key_resp_2.keys,key_resp_2.rt,key_resp_2.duration,test_trial.started,cross2.started,cross2.stopped,image_2.started,key_resp_3.started,aperture_2.started,image_2.stopped,text_3.started,aperture_2.stopped,test_trial.stopped,trials_2.key_resp_3.keys,trials_2.key_resp_3.rt,trials_2.key_resp_3.duration,start_blok_2.started,key_resp_5.started,text_4.started,start_blok_2.stopped,key_resp_5.keys,key_resp_5.rt,key_resp_5.duration,training_2.started,cross_2.started,image_3.started,aperture_3.started,cross_2.stopped,image_3.stopped,aperture_3.stopped,training_2.stopped,nyeste_instruks.started,text_5.started,key_resp_6.started,nyeste_instruks.stopped,key_resp_6.keys,key_resp_6.rt,key_resp_6.duration,test_2.started,cross2_2.started,cross2_2.stopped,image_4.started,key_resp_7.started,aperture_4.started,test_2.stopped,trials_4.key_resp_7.keys,trials_4.key_resp_7.rt,trials_4.key_resp_7.duration,image_4.stopped,text_6.started,aperture_4.stopped,Instruction1.started,Instruktion.started,key_resp.started,Instruction1.stopped,key_resp.keys,key_resp.rt,key_resp.duration,participant,session,date,expName,psychopyVersion,frameRate,expStart,
,,,,,,,,,,,,,,,,,,,,,,,,,,,,,,,,,0.01051273799748742,0.024383438998484053,0.024383438998484053,4.839167517999158,space,4.787178599999606,None,,,,,,,,,,,,,,,,,,,,,,,,,,,,,,,,,,,,,,,,,,,,,,,,,,,,,,,,,,,,,,,,,,,,,,,,,,,,,,,,,,,,,436888,001,2024-12-01_17h20.24.010,Test,2024.2.1,59.31481412925579,2024-12-01 17h20.40.193476 +0100,
,,,,,,,,,,,,,,,,,,,,,,,,,,,,,,,,,,,,,,,,4.839287165999849,4.860725061997073,4.860725061997073,13.755447487998026,space,8.882346583999606,None,,,,,,,,,,,,,,,,,,,,,,,,,,,,,,,,,,,,,,,,,,,,,,,,,,,,,,,,,,,,,,,,,,,,,,,,,,,,,,436888,001,2024-12-01_17h20.24.010,Test,2024.2.1,59.31481412925579,2024-12-01 17h20.40.193476 +0100,
,,,,,,,,,,,,,,,,,,,,,,,,,,,,,,,,,,,,,,,,,,,,,,,13.755502718999196,13.771258723998471,13.771258723998471,17.7731888849994,space,3.99353486399923,None,,,,,,,,,,,,,,,,,,,,,,,,,,,,,,,,,,,,,,,,,,,,,,,,,,,,,,,,,,,,,,,,,,,,,,,436888,001,2024-12-01_17h20.24.010,Test,2024.2.1,59.31481412925579,2024-12-01 17h20.40.193476 +0100,
4,150,0,68,None,0,0,0,,,,,,,,0,0,0,3,,,,,,,,,,,,,17.803240951998305,,,,,,,,,,,,,,,,,,,,,,,17.79352439699869,17.803240951998305,18.009700570997666,18.009700570997666,18.009700570997666,19.6879775769994,,,,,,,,,,,,,,,,,,,,,,,,,,,,,,,,,,,,,,,,,,,,,,,,,,,,,,,,,,,,,,,,,436888,001,2024-12-01_17h20.24.010,Test,2024.2.1,59.31481412925579,2024-12-01 17h20.40.193476 +0100,
35,150,180,59,None,1,1,0,,,,,,,,0,1,1,34,,,,,,,,,,,,,19.705240658997354,,,,,,,,,,,,,,,,,,,,,,,19.69563375099824,19.705240658997354,19.871249616997375,19.90518917100053,19.871249616997375,21.555614659999264,21.573005669997656,21.573005669997656,,,,,,,,,,,,,,,,,,,,,,,,,,,,,,,,,,,,,,,,,,,,,,,,,,,,,,,,,,,,,,,436888,001,2024-12-01_17h20.24.010,Test,2024.2.1,59.31481412925579,2024-12-01 17h20.40.193476 +0100,
15,150,60,57,None,2,2,0,,,,,,,,0,2,2,14,,,,,,,,,,,,,21.573005669997656,,,,,,,,,,,,,,,,,,,,,,,21.562906631999795,21.588562529999763,21.788223832998483,21.788223832998483,21.788223832998483,23.47372277300019,23.492646744998638,23.492646744998638,,,,,,,,,,,,,,,,,,,,,,,,,,,,,,,,,,,,,,,,,,,,,,,,,,,,,,,,,,,,,,,436888,001,2024-12-01_17h20.24.010,Test,2024.2.1,59.31481412925579,2024-12-01 17h20.40.193476 +0100,
9,150,30,12,None,3,3,0,,,,,,,,0,3,3,8,,,,,,,,,,,,,23.492646744998638,,,,,,,,,,,,,,,,,,,,,,,23.48403234899888,23.492646744998638,23.68874953499835,23.705181024997728,23.68874953499835,25.372630333000416,25.38829001799968,25.38829001799968,,,,,,,,,,,,,,,,,,,,,,,,,,,,,,,,,,,,,,,,,,,,,,,,,,,,,,,,,,,,,,,436888,001,2024-12-01_17h20.24.010,Test,2024.2.1,59.31481412925579,2024-12-01 17h20.40.193476 +0100,
27,150,150,40,None,4,4,0,,,,,,,,0,4,4,26,,,,,,,,,,,,,25.38829001799968,,,,,,,,,,,,,,,,,,,,,,,25.37838410599943,25.38829001799968,25.572765056000208,25.58925352299775,25.572765056000208,27.25589987800049,27.271538961998885,27.271538961998885,,,,,,,,,,,,,,,,,,,,,,,,,,,,,,,,,,,,,,,,,,,,,,,,,,,,,,,,,,,,,,,436888,001,2024-12-01_17h20.24.010,Test,2024.2.1,59.31481412925579,2024-12-01 17h20.40.193476 +0100,
8,150,30,51,None,5,5,0,,,,,,,,0,5,5,7,,,,,,,,,,,,,27.271538961998885,,,,,,,,,,,,,,,,,,,,,,,27.26171804399928,27.28915108399815,27.48880356799782,27.48880356799782,27.48880356799782,29.173178139997617,29.188618701999076,29.188618701999076,,,,,,,,,,,,,,,,,,,,,,,,,,,,,,,,,,,,,,,,,,,,,,,,,,,,,,,,,,,,,,,436888,001,2024-12-01_17h20.24.010,Test,2024.2.1,59.31481412925579,2024-12-01 17h20.40.193476 +0100,
21,150,120,15,None,6,6,0,,,,,,,,0,6,6,20,,,,,,,,,,,,,29.188618701999076,,,,,,,,,,,,,,,,,,,,,,,29.179120830998727,29.188618701999076,29.37209484199775,29.38874054599728,29.37209484199775,31.055838602998847,31.07154153099691,31.07154153099691,,,,,,,,,,,,,,,,,,,,,,,,,,,,,,,,,,,,,,,,,,,,,,,,,,,,,,,,,,,,,,,436888,001,2024-12-01_17h20.24.010,Test,2024.2.1,59.31481412925579,2024-12-01 17h20.40.193476 +0100,
5,150,0,41,None,7,7,0,,,,,,,,0,7,7,4,,,,,,,,,,,,,31.07154153099691,,,,,,,,,,,,,,,,,,,,,,,31.061728977998428,31.089175776000047,31.272250212998188,31.28872846000013,31.272250212998188,32.95685926299848,32.97223239899904,32.97223239899904,,,,,,,,,,,,,,,,,,,,,,,,,,,,,,,,,,,,,,,,,,,,,,,,,,,,,,,,,,,,,,,436888,001,2024-12-01_17h20.24.010,Test,2024.2.1,59.31481412925579,2024-12-01 17h20.40.193476 +0100,
2,150,0,23,None,8,8,0,,,,,,,,0,8,8,1,,,,,,,,,,,,,32.97223239899904,,,,,,,,,,,,,,,,,,,,,,,32.963647045999096,32.97223239899904,33.17253125199932,33.17253125199932,33.17253125199932,34.85682416099735,34.87214875399877,34.87214875399877,,,,,,,,,,,,,,,,,,,,,,,,,,,,,,,,,,,,,,,,,,,,,,,,,,,,,,,,,,,,,,,436888,001,2024-12-01_17h20.24.010,Test,2024.2.1,59.31481412925579,2024-12-01 17h20.40.193476 +0100,
14,150,60,3,None,9,9,0,,,,,,,,0,9,9,13,,,,,,,,,,,,,34.87214875399877,,,,,,,,,,,,,,,,,,,,,,,34.862994663999416,34.87214875399877,35.072340728998824,35.072340728998824,35.072340728998824,36.75655716599795,36.772750071999326,36.772750071999326,,,,,,,,,,,,,,,,,,,,,,,,,,,,,,,,,,,,,,,,,,,,,,,,,,,,,,,,,,,,,,,436888,001,2024-12-01_17h20.24.010,Test,2024.2.1,59.31481412925579,2024-12-01 17h20.40.193476 +0100,
30,150,150,52,None,10,10,0,,,,,,,,0,10,10,29,,,,,,,,,,,,,36.772750071999326,,,,,,,,,,,,,,,,,,,,,,,36.764094877999014,36.772750071999326,36.97273372599739,36.97273372599739,36.97273372599739,38.65636096899834,38.67250857899853,38.67250857899853,,,,,,,,,,,,,,,,,,,,,,,,,,,,,,,,,,,,,,,,,,,,,,,,,,,,,,,,,,,,,,,436888,001,2024-12-01_17h20.24.010,Test,2024.2.1,59.31481412925579,2024-12-01 17h20.40.193476 +0100,
32,150,180,24,None,11,11,0,,,,,,,,0,11,11,31,,,,,,,,,,,,,38.67250857899853,,,,,,,,,,,,,,,,,,,,,,,38.66157362299782,38.67250857899853,38.88859010099986,38.87210442399737,38.88859010099986,40.57360205199802,,,,,,,,,,,,,,,,,,,,,,,,,,,,,,,,,,,,,,,,,,,,,,,,,,,,,,,,,,,,,,,,,436888,001,2024-12-01_17h20.24.010,Test,2024.2.1,59.31481412925579,2024-12-01 17h20.40.193476 +0100,
18,150,90,19,None,12,12,0,,,,,,,,0,12,12,17,,,,,,,,,,,,,40.58938340399982,,,,,,,,,,,,,,,,,,,,,,,40.58096828199996,40.58938340399982,40.77332347399715,40.78962465400036,40.77332347399715,42.45692158499878,42.47248027599926,42.47248027599926,,,,,,,,,,,,,,,,,,,,,,,,,,,,,,,,,,,,,,,,,,,,,,,,,,,,,,,,,,,,,,,436888,001,2024-12-01_17h20.24.010,Test,2024.2.1,59.31481412925579,2024-12-01 17h20.40.193476 +0100,
13,150,60,11,None,13,13,0,,,,,,,,0,13,13,12,,,,,,,,,,,,,42.47248027599926,,,,,,,,,,,,,,,,,,,,,,,42.4628291959998,42.47248027599926,42.67296022499795,42.67296022499795,42.67296022499795,44.357917571000144,44.37342386299861,44.37342386299861,,,,,,,,,,,,,,,,,,,,,,,,,,,,,,,,,,,,,,,,,,,,,,,,,,,,,,,,,,,,,,,436888,001,2024-12-01_17h20.24.010,Test,2024.2.1,59.31481412925579,2024-12-01 17h20.40.193476 +0100,
22,150,120,36,None,14,14,0,,,,,,,,0,14,14,21,,,,,,,,,,,,,44.37342386299861,,,,,,,,,,,,,,,,,,,,,,,44.365581553000084,44.37342386299861,44.57299000099738,44.57299000099738,44.57299000099738,46.257421412999975,46.27335297999889,46.27335297999889,,,,,,,,,,,,,,,,,,,,,,,,,,,,,,,,,,,,,,,,,,,,,,,,,,,,,,,,,,,,,,,436888,001,2024-12-01_17h20.24.010,Test,2024.2.1,59.31481412925579,2024-12-01 17h20.40.193476 +0100,
1,150,0,18,None,15,15,0,,,,,,,,0,15,15,0,,,,,,,,,,,,,46.27335297999889,,,,,,,,,,,,,,,,,,,,,,,46.263663289999386,46.27335297999889,46.47337838299791,46.47337838299791,46.47337838299791,48.1576615749982,48.1729475760003,48.1729475760003,,,,,,,,,,,,,,,,,,,,,,,,,,,,,,,,,,,,,,,,,,,,,,,,,,,,,,,,,,,,,,,436888,001,2024-12-01_17h20.24.010,Test,2024.2.1,59.31481412925579,2024-12-01 17h20.40.193476 +0100,
34,150,180,20,None,16,16,0,,,,,,,,0,16,16,33,,,,,,,,,,,,,48.1729475760003,,,,,,,,,,,,,,,,,,,,,,,48.16355407499941,48.1729475760003,48.37333018999925,48.37333018999925,48.37333018999925,50.05805176099966,50.07388863599772,50.07388863599772,,,,,,,,,,,,,,,,,,,,,,,,,,,,,,,,,,,,,,,,,,,,,,,,,,,,,,,,,,,,,,,436888,001,2024-12-01_17h20.24.010,Test,2024.2.1,59.31481412925579,2024-12-01 17h20.40.193476 +0100,
3,150,0,44,None,17,17,0,,,,,,,,0,17,17,2,,,,,,,,,,,,,50.07388863599772,,,,,,,,,,,,,,,,,,,,,,,50.06378538199715,50.07388863599772,50.27412362299947,50.27412362299947,50.27412362299947,51.96299925999847,51.979615902997466,51.979615902997466,,,,,,,,,,,,,,,,,,,,,,,,,,,,,,,,,,,,,,,,,,,,,,,,,,,,,,,,,,,,,,,436888,001,2024-12-01_17h20.24.010,Test,2024.2.1,59.31481412925579,2024-12-01 17h20.40.193476 +0100,
7,150,30,25,None,18,18,0,,,,,,,,0,18,18,6,,,,,,,,,,,,,51.979615902997466,,,,,,,,,,,,,,,,,,,,,,,51.96922446299868,51.979615902997466,52.17430011099714,52.190296923999995,52.17430011099714,53.85892992399749,53.87747160700019,53.87747160700019,,,,,,,,,,,,,,,,,,,,,,,,,,,,,,,,,,,,,,,,,,,,,,,,,,,,,,,,,,,,,,,436888,001,2024-12-01_17h20.24.010,Test,2024.2.1,59.31481412925579,2024-12-01 17h20.40.193476 +0100,
28,150,150,37,None,19,19,0,,,,,,,,0,19,19,27,,,,,,,,,,,,,53.87747160700019,,,,,,,,,,,,,,,,,,,,,,,53.86920032600028,53.87747160700019,54.073873047000234,54.090519271998346,54.073873047000234,55.75778247099879,55.77366019100009,55.77366019100009,,,,,,,,,,,,,,,,,,,,,,,,,,,,,,,,,,,,,,,,,,,,,,,,,,,,,,,,,,,,,,,436888,001,2024-12-01_17h20.24.010,Test,2024.2.1,59.31481412925579,2024-12-01 17h20.40.193476 +0100,
24,150,120,22,None,20,20,0,,,,,,,,0,20,20,23,,,,,,,,,,,,,55.77366019100009,,,,,,,,,,,,,,,,,,,,,,,55.763609411998914,55.77366019100009,55.97438043699731,55.97438043699731,55.97438043699731,57.65820471199913,57.674156729997776,57.674156729997776,,,,,,,,,,,,,,,,,,,,,,,,,,,,,,,,,,,,,,,,,,,,,,,,,,,,,,,,,,,,,,,436888,001,2024-12-01_17h20.24.010,Test,2024.2.1,59.31481412925579,2024-12-01 17h20.40.193476 +0100,
25,150,120,50,None,21,21,0,,,,,,,,0,21,21,24,,,,,,,,,,,,,57.674156729997776,,,,,,,,,,,,,,,,,,,,,,,57.6653592579969,57.674156729997776,57.874172571999225,57.874172571999225,57.874172571999225,59.55846090900013,59.57430427500003,59.57430427500003,,,,,,,,,,,,,,,,,,,,,,,,,,,,,,,,,,,,,,,,,,,,,,,,,,,,,,,,,,,,,,,436888,001,2024-12-01_17h20.24.010,Test,2024.2.1,59.31481412925579,2024-12-01 17h20.40.193476 +0100,
12,150,60,17,None,22,22,0,,,,,,,,0,22,22,11,,,,,,,,,,,,,59.57430427500003,,,,,,,,,,,,,,,,,,,,,,,59.56592885399732,59.57430427500003,59.774136919997545,59.774136919997545,59.774136919997545,61.45817780299694,61.474216968999826,61.474216968999826,,,,,,,,,,,,,,,,,,,,,,,,,,,,,,,,,,,,,,,,,,,,,,,,,,,,,,,,,,,,,,,436888,001,2024-12-01_17h20.24.010,Test,2024.2.1,59.31481412925579,2024-12-01 17h20.40.193476 +0100,
10,150,30,49,None,23,23,0,,,,,,,,0,23,23,9,,,,,,,,,,,,,61.474216968999826,,,,,,,,,,,,,,,,,,,,,,,61.46406914799809,61.474216968999826,61.67567541399694,61.67567541399694,61.67567541399694,63.374728098999185,,,,,,,,,,,,,,,,,,,,,,,,,,,,,,,,,,,,,,,,,,,,,,,,,,,,,,,,,,,,,,,,,436888,001,2024-12-01_17h20.24.010,Test,2024.2.1,59.31481412925579,2024-12-01 17h20.40.193476 +0100,
20,150,90,30,None,24,24,0,,,,,,,,0,24,24,19,,,,,,,,,,,,,63.390753372998006,,,,,,,,,,,,,,,,,,,,,,,63.381762267999875,63.390753372998006,63.57542779799769,63.591887204998784,63.57542779799769,65.25853706699854,65.274209469997,65.274209469997,,,,,,,,,,,,,,,,,,,,,,,,,,,,,,,,,,,,,,,,,,,,,,,,,,,,,,,,,,,,,,,436888,001,2024-12-01_17h20.24.010,Test,2024.2.1,59.31481412925579,2024-12-01 17h20.40.193476 +0100,
6,150,30,62,None,25,25,0,,,,,,,,0,25,25,5,,,,,,,,,,,,,65.274209469997,,,,,,,,,,,,,,,,,,,,,,,65.26349770999877,65.274209469997,65.47493973599921,65.47493973599921,65.47493973599921,67.1587747679987,67.17722351999691,67.17722351999691,,,,,,,,,,,,,,,,,,,,,,,,,,,,,,,,,,,,,,,,,,,,,,,,,,,,,,,,,,,,,,,436888,001,2024-12-01_17h20.24.010,Test,2024.2.1,59.31481412925579,2024-12-01 17h20.40.193476 +0100,
17,150,90,34,None,26,26,0,,,,,,,,0,26,26,16,,,,,,,,,,,,,67.17722351999691,,,,,,,,,,,,,,,,,,,,,,,67.16880377999769,67.17722351999691,67.37473122799929,67.39201273099752,67.37473122799929,69.05901961599739,69.07504473399968,69.07504473399968,,,,,,,,,,,,,,,,,,,,,,,,,,,,,,,,,,,,,,,,,,,,,,,,,,,,,,,,,,,,,,,436888,001,2024-12-01_17h20.24.010,Test,2024.2.1,59.31481412925579,2024-12-01 17h20.40.193476 +0100,
31,150,180,13,None,27,27,0,,,,,,,,0,27,27,30,,,,,,,,,,,,,69.07504473399968,,,,,,,,,,,,,,,,,,,,,,,69.06651042500016,69.07504473399968,69.2751379509973,69.2751379509973,69.2751379509973,70.95908659899942,70.97514988799958,70.97514988799958,,,,,,,,,,,,,,,,,,,,,,,,,,,,,,,,,,,,,,,,,,,,,,,,,,,,,,,,,,,,,,,436888,001,2024-12-01_17h20.24.010,Test,2024.2.1,59.31481412925579,2024-12-01 17h20.40.193476 +0100,
26,150,150,38,None,28,28,0,,,,,,,,0,28,28,25,,,,,,,,,,,,,70.97514988799958,,,,,,,,,,,,,,,,,,,,,,,70.96639588799735,70.97514988799958,71.17471074599962,71.17471074599962,71.17471074599962,72.85956489899763,72.87458427299862,72.87458427299862,,,,,,,,,,,,,,,,,,,,,,,,,,,,,,,,,,,,,,,,,,,,,,,,,,,,,,,,,,,,,,,436888,001,2024-12-01_17h20.24.010,Test,2024.2.1,59.31481412925579,2024-12-01 17h20.40.193476 +0100,
11,150,60,58,None,29,29,0,,,,,,,,0,29,29,10,,,,,,,,,,,,,72.87458427299862,,,,,,,,,,,,,,,,,,,,,,,72.86550971599718,72.87458427299862,73.07622075399922,73.07622075399922,73.07622075399922,74.75971368499813,74.7751972599981,74.7751972599981,,,,,,,,,,,,,,,,,,,,,,,,,,,,,,,,,,,,,,,,,,,,,,,,,,,,,,,,,,,,,,,436888,001,2024-12-01_17h20.24.010,Test,2024.2.1,59.31481412925579,2024-12-01 17h20.40.193476 +0100,
23,150,120,53,None,30,30,0,,,,,,,,0,30,30,22,,,,,,,,,,,,,74.7751972599981,,,,,,,,,,,,,,,,,,,,,,,74.76542659400002,74.7751972599981,74.97505407199787,74.97505407199787,74.97505407199787,76.65932294199956,76.67516502199942,76.67516502199942,,,,,,,,,,,,,,,,,,,,,,,,,,,,,,,,,,,,,,,,,,,,,,,,,,,,,,,,,,,,,,,436888,001,2024-12-01_17h20.24.010,Test,2024.2.1,59.31481412925579,2024-12-01 17h20.40.193476 +0100,
16,150,90,5,None,31,31,0,,,,,,,,0,31,31,15,,,,,,,,,,,,,76.67516502199942,,,,,,,,,,,,,,,,,,,,,,,76.66571318199931,76.67516502199942,76.87532868999915,76.87532868999915,76.87532868999915,78.55945145499936,78.57494120800038,78.57494120800038,,,,,,,,,,,,,,,,,,,,,,,,,,,,,,,,,,,,,,,,,,,,,,,,,,,,,,,,,,,,,,,436888,001,2024-12-01_17h20.24.010,Test,2024.2.1,59.31481412925579,2024-12-01 17h20.40.193476 +0100,
29,150,150,8,None,32,32,0,,,,,,,,0,32,32,28,,,,,,,,,,,,,78.57494120800038,,,,,,,,,,,,,,,,,,,,,,,78.56647564199739,78.57494120800038,78.77545849200033,78.77545849200033,78.77545849200033,80.46006891799698,80.47566899699814,80.47566899699814,,,,,,,,,,,,,,,,,,,,,,,,,,,,,,,,,,,,,,,,,,,,,,,,,,,,,,,,,,,,,,,436888,001,2024-12-01_17h20.24.010,Test,2024.2.1,59.31481412925579,2024-12-01 17h20.40.193476 +0100,
19,150,90,1,None,33,33,0,,,,,,,,0,33,33,18,,,,,,,,,,,,,80.47566899699814,,,,,,,,,,,,,,,,,,,,,,,80.46567776599841,80.47566899699814,80.67588561299999,80.67588561299999,80.67588561299999,82.3596359109979,82.37522976999753,82.37522976999753,,,,,,,,,,,,,,,,,,,,,,,,,,,,,,,,,,,,,,,,,,,,,,,,,,,,,,,,,,,,,,,436888,001,2024-12-01_17h20.24.010,Test,2024.2.1,59.31481412925579,2024-12-01 17h20.40.193476 +0100,
33,150,180,69,None,34,34,0,,,,,,,,0,34,34,32,,,,,,,,,,,,,82.37522976999753,,,,,,,,,,,,,,,,,,,,,,,82.3655141579984,82.37522976999753,82.57557403499959,82.57557403499959,82.57557403499959,84.26011382599972,84.27560877499855,84.27560877499855,,,,,,,,,,,,,,,,,,,,,,,,,,,,,,,,,,,,,,,,,,,,,,,,,,,,,,,,,,,,,,,436888,001,2024-12-01_17h20.24.010,Test,2024.2.1,59.31481412925579,2024-12-01 17h20.40.193476 +0100,
,,,,,,,,,,,,,,,,,,,,,,,,,,,,,,,,,,,,,,,,,,,,,,,,,,,,,,,,,,,,,,84.26026085099875,84.27560877499855,84.27560877499855,93.1121017589976,space,8.832662630000414,None,,,,,,,,,,,,,,,,,,,,,,,,,,,,,,,,,,,,,,,,,,,,,,,,,,,,,,,,436888,001,2024-12-01_17h20.24.010,Test,2024.2.1,59.31481412925579,2024-12-01 17h20.40.193476 +0100,
19,150,90,1,None,0,0,0,False,left,10.560465074002423,None,,,,,,,,0,0,0,0,,,,,,,,,93.13628427399817,,,,,,,,,,,,,,,,,,,,,,,,,,,,,,,,,,,,,,93.12697044999732,93.13628427399817,94.1432885869981,95.12645331399835,95.12645331399835,95.12645331399835,98.12701772199944,98.12701772199944,98.12701772199944,105.69580785699873,left,10.560465074002423,None,,,,,,,,,,,,,,,,,,,,,,,,,,,,,,,,,,,,,,,,,,,436888,001,2024-12-01_17h20.24.010,Test,2024.2.1,59.31481412925579,2024-12-01 17h20.40.193476 +0100,
9,150,30,12,None,1,1,0,False,right,1.1310060469986638,None,,,,,,,,0,1,1,1,,,,,,,,,105.72946788899935,,,,,,,,,,,,,,,,,,,,,,,,,,,,,,,,,,,,,,105.70171006899909,105.72946788899935,106.744228542997,107.71088577199771,107.71088577199771,107.71088577199771,,,,108.84701814499931,right,1.1310060469986638,None,,,,,,,,,,,,,,,,,,,,,,,,,,,,,,,,,,,,,,,,,,,436888,001,2024-12-01_17h20.24.010,Test,2024.2.1,59.31481412925579,2024-12-01 17h20.40.193476 +0100,
21,150,120,15,None,2,2,0,False,right,0.9010686709989386,None,,,,,,,,0,2,2,2,,,,,,,,,108.86148451099871,,,,,,,,,,,,,,,,,,,,,,,,,,,,,,,,,,,,,,108.85285805599779,108.86148451099871,109.86202087299898,110.8611609489999,110.8611609489999,110.8611609489999,,,,111.7786181099982,right,0.9010686709989386,None,,,,,,,,,,,,,,,,,,,,,,,,,,,,,,,,,,,,,,,,,,,436888,001,2024-12-01_17h20.24.010,Test,2024.2.1,59.31481412925579,2024-12-01 17h20.40.193476 +0100,
51,150,90,4,None,3,3,0,True,left,1.2836486180021893,None,,,,,,,,0,3,3,3,,,,,,,,,111.7940958069994,,,,,,,,,,,,,,,,,,,,,,,,,,,,,,,,,,,,,,111.78450563200022,111.7940958069994,112.7947539759989,113.778348601998,113.778348601998,113.778348601998,,,,115.07902488800028,left,1.2836486180021893,None,,,,,,,,,,,,,,,,,,,,,,,,,,,,,,,,,,,,,,,,,,,436888,001,2024-12-01_17h20.24.010,Test,2024.2.1,59.31481412925579,2024-12-01 17h20.40.193476 +0100,
46,150,60,42,None,4,4,0,True,left,1.3971236129982572,None,,,,,,,,0,4,4,4,,,,,,,,,115.09460426199803,,,,,,,,,,,,,,,,,,,,,,,,,,,,,,,,,,,,,,115.08524058100011,115.09460426199803,116.09468652599753,117.07847006299926,117.07847006299926,117.07847006299926,,,,118.48272005099716,left,1.3971236129982572,None,,,,,,,,,,,,,,,,,,,,,,,,,,,,,,,,,,,,,,,,,,,436888,001,2024-12-01_17h20.24.010,Test,2024.2.1,59.31481412925579,2024-12-01 17h20.40.193476 +0100,
16,150,90,5,None,5,5,0,False,left,1.8554168209993804,None,,,,,,,,0,5,5,5,,,,,,,,,118.49614469500011,,,,,,,,,,,,,,,,,,,,,,,,,,,,,,,,,,,,,,118.48685126800046,118.49614469500011,119.51169715799915,120.495695237998,120.495695237998,120.495695237998,,,,122.36346892700021,left,1.8554168209993804,None,,,,,,,,,,,,,,,,,,,,,,,,,,,,,,,,,,,,,,,,,,,436888,001,2024-12-01_17h20.24.010,Test,2024.2.1,59.31481412925579,2024-12-01 17h20.40.193476 +0100,
43,150,30,46,None,6,6,0,True,left,0.9848822479980299,None,,,,,,,,0,6,6,6,,,,,,,,,122.37844467600007,,,,,,,,,,,,,,,,,,,,,,,,,,,,,,,,,,,,,,122.36866265099889,122.37844467600007,123.37843475599948,124.3788425879975,124.3788425879975,124.3788425879975,,,,125.36709118699946,left,0.9848822479980299,None,,,,,,,,,,,,,,,,,,,,,,,,,,,,,,,,,,,,,,,,,,,436888,001,2024-12-01_17h20.24.010,Test,2024.2.1,59.31481412925579,2024-12-01 17h20.40.193476 +0100,
36,150,0,61,None,7,7,0,True,left,0.9267913629992108,None,,,,,,,,0,7,7,7,,,,,,,,,125.38342034199741,,,,,,,,,,,,,,,,,,,,,,,,,,,,,,,,,,,,,,125.374146397,125.38342034199741,126.39632559599704,127.37901707399942,127.37901707399942,127.37901707399942,,,,128.31402069199976,left,0.9267913629992108,None,,,,,,,,,,,,,,,,,,,,,,,,,,,,,,,,,,,,,,,,,,,436888,001,2024-12-01_17h20.24.010,Test,2024.2.1,59.31481412925579,2024-12-01 17h20.40.193476 +0100,
65,150,150,47,None,8,8,0,True,right,0.9521413900001789,None,,,,,,,,0,8,8,8,,,,,,,,,128.32927535899944,,,,,,,,,,,,,,,,,,,,,,,,,,,,,,,,,,,,,,128.3196146099981,128.32927535899944,129.32949561699934,130.32919065500028,130.32919065500028,130.32919065500028,,,,131.2976824239995,right,0.9521413900001789,None,,,,,,,,,,,,,,,,,,,,,,,,,,,,,,,,,,,,,,,,,,,436888,001,2024-12-01_17h20.24.010,Test,2024.2.1,59.31481412925579,2024-12-01 17h20.40.193476 +0100,
62,150,150,56,None,9,9,0,True,right,1.0315604860006715,None,,,,,,,,0,9,9,9,,,,,,,,,131.3128713499973,,,,,,,,,,,,,,,,,,,,,,,,,,,,,,,,,,,,,,131.30317026400007,131.3128713499973,132.31249192199903,133.31309942000007,133.31309942000007,133.31309942000007,,,,134.34897902999728,right,1.0315604860006715,None,,,,,,,,,,,,,,,,,,,,,,,,,,,,,,,,,,,,,,,,,,,436888,001,2024-12-01_17h20.24.010,Test,2024.2.1,59.31481412925579,2024-12-01 17h20.40.193476 +0100,
4,150,0,68,None,10,10,0,False,right,0.9179954589999397,None,,,,,,,,0,10,10,10,,,,,,,,,134.3651193839978,,,,,,,,,,,,,,,,,,,,,,,,,,,,,,,,,,,,,,134.35559094899872,134.3651193839978,135.3792253779975,136.36268379099783,136.36268379099783,136.36268379099783,,,,137.29791841299811,right,0.9179954589999397,None,,,,,,,,,,,,,,,,,,,,,,,,,,,,,,,,,,,,,,,,,,,436888,001,2024-12-01_17h20.24.010,Test,2024.2.1,59.31481412925579,2024-12-01 17h20.40.193476 +0100,
17,150,90,34,None,11,11,0,False,left,1.6234685210001771,None,,,,,,,,0,11,11,11,,,,,,,,,137.31951051599754,,,,,,,,,,,,,,,,,,,,,,,,,,,,,,,,,,,,,,137.3105085770003,137.31951051599754,138.32946334999724,139.31311781299883,139.31311781299883,139.31311781299883,,,,140.9487522950003,left,1.6234685210001771,None,,,,,,,,,,,,,,,,,,,,,,,,,,,,,,,,,,,,,,,,,,,436888,001,2024-12-01_17h20.24.010,Test,2024.2.1,59.31481412925579,2024-12-01 17h20.40.193476 +0100,
27,150,150,40,None,12,12,0,False,right,1.0038746819991502,None,,,,,,,,0,12,12,12,,,,,,,,,140.96694181599742,,,,,,,,,,,,,,,,,,,,,,,,,,,,,,,,,,,,,,140.9576338299994,140.96694181599742,141.98091693300012,142.96321013499983,142.96321013499983,142.96321013499983,,,,143.97903495999708,right,1.0038746819991502,None,,,,,,,,,,,,,,,,,,,,,,,,,,,,,,,,,,,,,,,,,,,436888,001,2024-12-01_17h20.24.010,Test,2024.2.1,59.31481412925579,2024-12-01 17h20.40.193476 +0100,
54,150,90,45,None,13,13,0,True,left,2.2295306749983865,None,,,,,,,,0,13,13,13,,,,,,,,,143.99342689699915,,,,,,,,,,,,,,,,,,,,,,,,,,,,,,,,,,,,,,143.98487113800002,143.99342689699915,144.9963403499969,145.9830779240001,145.9830779240001,145.9830779240001,,,,148.2170806590002,left,2.2295306749983865,None,,,,,,,,,,,,,,,,,,,,,,,,,,,,,,,,,,,,,,,,,,,436888,001,2024-12-01_17h20.24.010,Test,2024.2.1,59.31481412925579,2024-12-01 17h20.40.193476 +0100,
1,150,0,18,None,14,14,0,False,right,0.8271293569996487,None,,,,,,,,0,14,14,14,,,,,,,,,148.23752452999906,,,,,,,,,,,,,,,,,,,,,,,,,,,,,,,,,,,,,,148.23012035200009,148.23752452999906,149.24716208899918,150.2299116409995,150.2299116409995,150.2299116409995,,,,151.0654580019982,right,0.8271293569996487,None,,,,,,,,,,,,,,,,,,,,,,,,,,,,,,,,,,,,,,,,,,,436888,001,2024-12-01_17h20.24.010,Test,2024.2.1,59.31481412925579,2024-12-01 17h20.40.193476 +0100,
58,150,120,31,None,15,15,0,True,left,1.226222751000023,None,,,,,,,,0,15,15,15,,,,,,,,,151.07988019299955,,,,,,,,,,,,,,,,,,,,,,,,,,,,,,,,,,,,,,151.07028873299714,151.07988019299955,152.0799720469986,153.08051613299904,153.08051613299904,153.08051613299904,,,,154.31580074799786,left,1.226222751000023,None,,,,,,,,,,,,,,,,,,,,,,,,,,,,,,,,,,,,,,,,,,,436888,001,2024-12-01_17h20.24.010,Test,2024.2.1,59.31481412925579,2024-12-01 17h20.40.193476 +0100,
59,150,120,32,None,16,16,0,True,left,1.9642319099984888,None,,,,,,,,0,16,16,16,,,,,,,,,154.33112907999748,,,,,,,,,,,,,,,,,,,,,,,,,,,,,,,,,,,,,,154.3214050539973,154.33112907999748,155.33078053200006,156.3307127909975,156.3307127909975,156.3307127909975,,,,158.30040647999704,left,1.9642319099984888,None,,,,,,,,,,,,,,,,,,,,,,,,,,,,,,,,,,,,,,,,,,,436888,001,2024-12-01_17h20.24.010,Test,2024.2.1,59.31481412925579,2024-12-01 17h20.40.193476 +0100,
13,150,60,11,None,17,17,0,False,right,2.5483405199993285,None,,,,,,,,0,17,17,17,,,,,,,,,158.32956376899892,,,,,,,,,,,,,,,,,,,,,,,,,,,,,,,,,,,,,,158.30654606999815,158.32956376899892,159.33088354999927,160.31416315399838,160.31416315399838,160.31416315399838,,,,162.86644761799835,right,2.5483405199993285,None,,,,,,,,,,,,,,,,,,,,,,,,,,,,,,,,,,,,,,,,,,,436888,001,2024-12-01_17h20.24.010,Test,2024.2.1,59.31481412925579,2024-12-01 17h20.40.193476 +0100,
67,150,180,10,None,18,18,0,True,left,1.5189721599999757,None,,,,,,,,0,18,18,18,,,,,,,,,162.88161890399715,,,,,,,,,,,,,,,,,,,,,,,,,,,,,,,,,,,,,,162.87160583399964,162.88161890399715,163.8814252919983,164.88148797399845,164.88148797399845,164.88148797399845,,,,166.4165022519992,left,1.5189721599999757,None,,,,,,,,,,,,,,,,,,,,,,,,,,,,,,,,,,,,,,,,,,,436888,001,2024-12-01_17h20.24.010,Test,2024.2.1,59.31481412925579,2024-12-01 17h20.40.193476 +0100,
24,150,120,22,None,19,19,0,False,right,1.5357679959997768,None,,,,,,,,0,19,19,19,,,,,,,,,166.43128869899738,,,,,,,,,,,,,,,,,,,,,,,,,,,,,,,,,,,,,,166.42236055399917,166.43128869899738,167.43149759699736,168.43162730800032,168.43162730800032,168.43162730800032,,,,169.98002251199796,right,1.5357679959997768,None,,,,,,,,,,,,,,,,,,,,,,,,,,,,,,,,,,,,,,,,,,,436888,001,2024-12-01_17h20.24.010,Test,2024.2.1,59.31481412925579,2024-12-01 17h20.40.193476 +0100,
30,150,150,52,None,20,20,0,False,right,1.2683716450010252,None,,,,,,,,0,20,20,20,,,,,,,,,169.9920891289985,,,,,,,,,,,,,,,,,,,,,,,,,,,,,,,,,,,,,,169.9852924079969,169.9920891289985,170.99874658499903,171.98163127299995,171.98163127299995,171.98163127299995,,,,173.26709559499795,right,1.2683716450010252,None,,,,,,,,,,,,,,,,,,,,,,,,,,,,,,,,,,,,,,,,,,,436888,001,2024-12-01_17h20.24.010,Test,2024.2.1,59.31481412925579,2024-12-01 17h20.40.193476 +0100,
7,150,30,25,None,21,21,0,False,right,0.7716649329995562,None,,,,,,,,0,21,21,21,,,,,,,,,173.28241085599802,,,,,,,,,,,,,,,,,,,,,,,,,,,,,,,,,,,,,,173.2731689539978,173.28241085599802,174.28252277099818,175.28201598099986,175.28201598099986,175.28201598099986,,,,176.06709640799818,right,0.7716649329995562,None,,,,,,,,,,,,,,,,,,,,,,,,,,,,,,,,,,,,,,,,,,,436888,001,2024-12-01_17h20.24.010,Test,2024.2.1,59.31481412925579,2024-12-01 17h20.40.193476 +0100,
3,150,0,44,None,22,22,0,False,left,1.3115539139980683,None,,,,,,,,0,22,22,22,,,,,,,,,176.0835018359976,,,,,,,,,,,,,,,,,,,,,,,,,,,,,,,,,,,,,,176.07464620099927,176.0835018359976,177.08245916599844,178.08229052800016,178.08229052800016,178.08229052800016,,,,179.4009192279991,left,1.3115539139980683,None,,,,,,,,,,,,,,,,,,,,,,,,,,,,,,,,,,,,,,,,,,,436888,001,2024-12-01_17h20.24.010,Test,2024.2.1,59.31481412925579,2024-12-01 17h20.40.193476 +0100,
11,150,60,58,None,23,23,0,False,left,2.44277865299955,None,,,,,,,,0,23,23,23,,,,,,,,,179.4160231809983,,,,,,,,,,,,,,,,,,,,,,,,,,,,,,,,,,,,,,179.40660758399827,179.4160231809983,180.41676039499725,181.41578371099968,181.41578371099968,181.41578371099968,,,,183.86777377999897,left,2.44277865299955,None,,,,,,,,,,,,,,,,,,,,,,,,,,,,,,,,,,,,,,,,,,,436888,001,2024-12-01_17h20.24.010,Test,2024.2.1,59.31481412925579,2024-12-01 17h20.40.193476 +0100,
28,150,150,37,None,24,24,0,False,left,1.0657734649976192,None,,,,,,,,0,24,24,24,,,,,,,,,183.88265192999825,,,,,,,,,,,,,,,,,,,,,,,,,,,,,,,,,,,,,,183.87364448099834,183.88265192999825,184.88270110899975,185.88336841199998,185.88336841199998,185.88336841199998,,,,186.95223401899784,left,1.0657734649976192,None,,,,,,,,,,,,,,,,,,,,,,,,,,,,,,,,,,,,,,,,,,,436888,001,2024-12-01_17h20.24.010,Test,2024.2.1,59.31481412925579,2024-12-01 17h20.40.193476 +0100,
6,150,30,62,None,25,25,0,False,left,1.5205522230025963,None,,,,,,,,0,25,25,25,,,,,,,,,186.9672051389971,,,,,,,,,,,,,,,,,,,,,,,,,,,,,,,,,,,,,,186.95822235800006,186.9672051389971,187.96853649499826,188.96725072799745,188.96725072799745,188.96725072799745,,,,190.50124235600015,left,1.5205522230025963,None,,,,,,,,,,,,,,,,,,,,,,,,,,,,,,,,,,,,,,,,,,,436888,001,2024-12-01_17h20.24.010,Test,2024.2.1,59.31481412925579,2024-12-01 17h20.40.193476 +0100,
44,150,30,2,None,26,26,0,True,left,3.2097333749989048,None,,,,,,,,0,26,26,26,,,,,,,,,190.516250228,,,,,,,,,,,,,,,,,,,,,,,,,,,,,,,,,,,,,,190.50731925499713,190.516250228,191.51682290499957,192.5170765160001,192.5170765160001,192.5170765160001,195.51673700599713,195.51673700599713,195.51673700599713,195.73466536499836,left,3.2097333749989048,None,,,,,,,,,,,,,,,,,,,,,,,,,,,,,,,,,,,,,,,,,,,436888,001,2024-12-01_17h20.24.010,Test,2024.2.1,59.31481412925579,2024-12-01 17h20.40.193476 +0100,
14,150,60,3,None,27,27,0,False,left,1.0254139520002354,None,,,,,,,,0,27,27,27,,,,,,,,,195.75048798100033,,,,,,,,,,,,,,,,,,,,,,,,,,,,,,,,,,,,,,195.74038261199894,195.75048798100033,196.74976193199836,197.75022456700026,197.75022456700026,197.75022456700026,,,,198.78516094099905,left,1.0254139520002354,None,,,,,,,,,,,,,,,,,,,,,,,,,,,,,,,,,,,,,,,,,,,436888,001,2024-12-01_17h20.24.010,Test,2024.2.1,59.31481412925579,2024-12-01 17h20.40.193476 +0100,
29,150,150,8,None,28,28,0,False,right,0.8773057549988152,None,,,,,,,,0,28,28,28,,,,,,,,,198.80009161099952,,,,,,,,,,,,,,,,,,,,,,,,,,,,,,,,,,,,,,198.79130070399697,198.80009161099952,199.80124173199874,200.78448258499702,200.78448258499702,200.78448258499702,,,,201.66909471299732,right,0.8773057549988152,None,,,,,,,,,,,,,,,,,,,,,,,,,,,,,,,,,,,,,,,,,,,436888,001,2024-12-01_17h20.24.010,Test,2024.2.1,59.31481412925579,2024-12-01 17h20.40.193476 +0100,
39,150,0,35,None,29,29,0,True,left,0.9880614129979222,None,,,,,,,,0,29,29,29,,,,,,,,,201.6845356470003,,,,,,,,,,,,,,,,,,,,,,,,,,,,,,,,,,,,,,201.67492783799753,201.6845356470003,202.68491482899844,203.68442099700042,203.68442099700042,203.68442099700042,,,,204.68604826299998,left,0.9880614129979222,None,,,,,,,,,,,,,,,,,,,,,,,,,,,,,,,,,,,,,,,,,,,436888,001,2024-12-01_17h20.24.010,Test,2024.2.1,59.31481412925579,2024-12-01 17h20.40.193476 +0100,
10,150,30,49,None,30,30,0,False,right,0.9846402990006027,None,,,,,,,,0,30,30,30,,,,,,,,,204.70086220699886,,,,,,,,,,,,,,,,,,,,,,,,,,,,,,,,,,,,,,204.691717073998,204.70086220699886,205.70085285999812,206.70106060299804,206.70106060299804,206.70106060299804,,,,207.70252307199917,right,0.9846402990006027,None,,,,,,,,,,,,,,,,,,,,,,,,,,,,,,,,,,,,,,,,,,,436888,001,2024-12-01_17h20.24.010,Test,2024.2.1,59.31481412925579,2024-12-01 17h20.40.193476 +0100,
5,150,0,41,None,31,31,0,False,left,0.9554409510019468,None,,,,,,,,0,31,31,31,,,,,,,,,207.7172330029971,,,,,,,,,,,,,,,,,,,,,,,,,,,,,,,,,,,,,,207.70768848899752,207.7172330029971,208.71786742699987,209.71845355999903,209.71845355999903,209.71845355999903,,,,210.68557696399876,left,0.9554409510019468,None,,,,,,,,,,,,,,,,,,,,,,,,,,,,,,,,,,,,,,,,,,,436888,001,2024-12-01_17h20.24.010,Test,2024.2.1,59.31481412925579,2024-12-01 17h20.40.193476 +0100,
8,150,30,51,None,32,32,0,False,right,0.7609088019999035,None,,,,,,,,0,32,32,32,,,,,,,,,210.70128458399995,,,,,,,,,,,,,,,,,,,,,,,,,,,,,,,,,,,,,,210.69109270599802,210.70128458399995,211.7012833839981,212.6853346479984,212.6853346479984,212.6853346479984,,,,213.45333593800024,right,0.7609088019999035,None,,,,,,,,,,,,,,,,,,,,,,,,,,,,,,,,,,,,,,,,,,,436888,001,2024-12-01_17h20.24.010,Test,2024.2.1,59.31481412925579,2024-12-01 17h20.40.193476 +0100,
31,150,180,13,None,33,33,0,False,left,0.8888785950002784,None,,,,,,,,0,33,33,33,,,,,,,,,213.46794996300014,,,,,,,,,,,,,,,,,,,,,,,,,,,,,,,,,,,,,,213.45878061099938,213.46794996300014,214.46823667599892,215.4517979969969,215.4517979969969,215.4517979969969,,,,216.3539766899994,left,0.8888785950002784,None,,,,,,,,,,,,,,,,,,,,,,,,,,,,,,,,,,,,,,,,,,,436888,001,2024-12-01_17h20.24.010,Test,2024.2.1,59.31481412925579,2024-12-01 17h20.40.193476 +0100,
34,150,180,20,None,34,34,0,False,right,0.8168346970014682,None,,,,,,,,0,34,34,34,,,,,,,,,216.36887268099963,,,,,,,,,,,,,,,,,,,,,,,,,,,,,,,,,,,,,,216.35910281599718,216.36887268099963,217.36893817599776,218.36839826899813,218.36839826899813,218.36839826899813,,,,219.1899111189996,right,0.8168346970014682,None,,,,,,,,,,,,,,,,,,,,,,,,,,,,,,,,,,,,,,,,,,,436888,001,2024-12-01_17h20.24.010,Test,2024.2.1,59.31481412925579,2024-12-01 17h20.40.193476 +0100,
32,150,180,24,None,35,35,0,False,left,0.8532428670005174,None,,,,,,,,0,35,35,35,,,,,,,,,219.20525858999827,,,,,,,,,,,,,,,,,,,,,,,,,,,,,,,,,,,,,,219.19626189299743,219.20525858999827,220.21864488199935,221.20207023900002,221.20207023900002,221.20207023900002,,,,222.07092235299933,left,0.8532428670005174,None,,,,,,,,,,,,,,,,,,,,,,,,,,,,,,,,,,,,,,,,,,,436888,001,2024-12-01_17h20.24.010,Test,2024.2.1,59.31481412925579,2024-12-01 17h20.40.193476 +0100,
57,150,120,43,None,36,36,0,True,left,1.3022580029974051,None,,,,,,,,0,36,36,36,,,,,,,,,222.08606905099805,,,,,,,,,,,,,,,,,,,,,,,,,,,,,,,,,,,,,,222.07701384399843,222.08606905099805,223.1016785469983,224.0854992679997,224.0854992679997,224.0854992679997,,,,225.40414621799937,left,1.3022580029974051,None,,,,,,,,,,,,,,,,,,,,,,,,,,,,,,,,,,,,,,,,,,,436888,001,2024-12-01_17h20.24.010,Test,2024.2.1,59.31481412925579,2024-12-01 17h20.40.193476 +0100,
63,150,150,70,None,37,37,0,True,left,1.0508610629985924,None,,,,,,,,0,37,37,37,,,,,,,,,225.41922880799757,,,,,,,,,,,,,,,,,,,,,,,,,,,,,,,,,,,,,,225.4099626529969,225.41922880799757,226.41883832099847,227.41934737799966,227.41934737799966,227.41934737799966,,,,228.4866991639974,left,1.0508610629985924,None,,,,,,,,,,,,,,,,,,,,,,,,,,,,,,,,,,,,,,,,,,,436888,001,2024-12-01_17h20.24.010,Test,2024.2.1,59.31481412925579,2024-12-01 17h20.40.193476 +0100,
60,150,120,63,None,38,38,0,True,right,0.8919856379980047,None,,,,,,,,0,38,38,38,,,,,,,,,228.50200524200045,,,,,,,,,,,,,,,,,,,,,,,,,,,,,,,,,,,,,,228.49243446099717,228.50200524200045,229.50241682100022,230.48612087599759,230.48612087599759,230.48612087599759,,,,231.38750454899855,right,0.8919856379980047,None,,,,,,,,,,,,,,,,,,,,,,,,,,,,,,,,,,,,,,,,,,,436888,001,2024-12-01_17h20.24.010,Test,2024.2.1,59.31481412925579,2024-12-01 17h20.40.193476 +0100,
22,150,120,36,None,39,39,0,False,right,1.4343249289995583,None,,,,,,,,0,39,39,39,,,,,,,,,231.40232800599915,,,,,,,,,,,,,,,,,,,,,,,,,,,,,,,,,,,,,,231.39306921899697,231.40232800599915,232.40332148099696,233.40328253599728,233.40328253599728,233.40328253599728,,,,234.85412926599747,right,1.4343249289995583,None,,,,,,,,,,,,,,,,,,,,,,,,,,,,,,,,,,,,,,,,,,,436888,001,2024-12-01_17h20.24.010,Test,2024.2.1,59.31481412925579,2024-12-01 17h20.40.193476 +0100,
38,150,0,64,None,40,40,0,True,left,1.1398421649973898,None,,,,,,,,0,40,40,40,,,,,,,,,234.86999764199936,,,,,,,,,,,,,,,,,,,,,,,,,,,,,,,,,,,,,,234.8600678269977,234.86999764199936,235.88577744499707,236.8699078039972,236.8699078039972,236.8699078039972,,,,238.01215098600005,left,1.1398421649973898,None,,,,,,,,,,,,,,,,,,,,,,,,,,,,,,,,,,,,,,,,,,,436888,001,2024-12-01_17h20.24.010,Test,2024.2.1,59.31481412925579,2024-12-01 17h20.40.193476 +0100,
48,150,60,14,None,41,41,0,True,left,1.3710998830028984,None,,,,,,,,0,41,41,41,,,,,,,,,238.02638633199967,,,,,,,,,,,,,,,,,,,,,,,,,,,,,,,,,,,,,,238.01894058199832,238.02638633199967,239.03653786499854,240.02047184500043,240.02047184500043,240.02047184500043,,,,241.4054753149976,left,1.3710998830028984,None,,,,,,,,,,,,,,,,,,,,,,,,,,,,,,,,,,,,,,,,,,,436888,001,2024-12-01_17h20.24.010,Test,2024.2.1,59.31481412925579,2024-12-01 17h20.40.193476 +0100,
61,150,150,65,None,42,42,0,True,left,1.3174422290030634,None,,,,,,,,0,42,42,42,,,,,,,,,241.4207029379977,,,,,,,,,,,,,,,,,,,,,,,,,,,,,,,,,,,,,,241.41080910599703,241.4207029379977,242.42043346199716,243.4205668709983,243.4205668709983,243.4205668709983,,,,244.7549665539991,left,1.3174422290030634,None,,,,,,,,,,,,,,,,,,,,,,,,,,,,,,,,,,,,,,,,,,,436888,001,2024-12-01_17h20.24.010,Test,2024.2.1,59.31481412925579,2024-12-01 17h20.40.193476 +0100,
64,150,150,26,None,43,43,0,True,left,1.1588881770003354,None,,,,,,,,0,43,43,43,,,,,,,,,244.77038468599858,,,,,,,,,,,,,,,,,,,,,,,,,,,,,,,,,,,,,,244.76071917999798,244.77038468599858,245.77051052599927,246.7704686759971,246.7704686759971,246.7704686759971,,,,247.93885800499993,left,1.1588881770003354,None,,,,,,,,,,,,,,,,,,,,,,,,,,,,,,,,,,,,,,,,,,,436888,001,2024-12-01_17h20.24.010,Test,2024.2.1,59.31481412925579,2024-12-01 17h20.40.193476 +0100,
45,150,30,60,None,44,44,0,True,left,0.918390188999183,None,,,,,,,,0,44,44,44,,,,,,,,,247.96814190799705,,,,,,,,,,,,,,,,,,,,,,,,,,,,,,,,,,,,,,247.94566062599915,247.96814190799705,248.9703520339972,249.95407406899903,249.95407406899903,249.95407406899903,,,,250.88986332199784,left,0.918390188999183,None,,,,,,,,,,,,,,,,,,,,,,,,,,,,,,,,,,,,,,,,,,,436888,001,2024-12-01_17h20.24.010,Test,2024.2.1,59.31481412925579,2024-12-01 17h20.40.193476 +0100,
26,150,150,38,None,45,45,0,False,right,2.26805382800012,None,,,,,,,,0,45,45,45,,,,,,,,,250.90574273899983,,,,,,,,,,,,,,,,,,,,,,,,,,,,,,,,,,,,,,250.89713019199917,250.90574273899983,251.92111072399712,252.90537507000045,252.90537507000045,252.90537507000045,,,,255.19000026999856,right,2.26805382800012,None,,,,,,,,,,,,,,,,,,,,,,,,,,,,,,,,,,,,,,,,,,,436888,001,2024-12-01_17h20.24.010,Test,2024.2.1,59.31481412925579,2024-12-01 17h20.40.193476 +0100,
12,150,60,17,None,46,46,0,False,right,2.9975314019975485,None,,,,,,,,0,46,46,46,,,,,,,,,255.2047810139993,,,,,,,,,,,,,,,,,,,,,,,,,,,,,,,,,,,,,,255.1955132519979,255.2047810139993,256.2039005259976,257.2044373209974,257.2044373209974,257.2044373209974,260.2049424379984,260.2049424379984,260.2049424379984,260.20701479799754,right,2.9975314019975485,None,,,,,,,,,,,,,,,,,,,,,,,,,,,,,,,,,,,,,,,,,,,436888,001,2024-12-01_17h20.24.010,Test,2024.2.1,59.31481412925579,2024-12-01 17h20.40.193476 +0100,
15,150,60,57,None,47,47,0,False,right,1.1726892780025082,None,,,,,,,,0,47,47,47,,,,,,,,,260.22229970699846,,,,,,,,,,,,,,,,,,,,,,,,,,,,,,,,,,,,,,260.2127046539972,260.22229970699846,261.2215949700003,262.22144970299996,262.22144970299996,262.22144970299996,,,,263.40637582699856,right,1.1726892780025082,None,,,,,,,,,,,,,,,,,,,,,,,,,,,,,,,,,,,,,,,,,,,436888,001,2024-12-01_17h20.24.010,Test,2024.2.1,59.31481412925579,2024-12-01 17h20.40.193476 +0100,
70,150,180,66,None,48,48,0,True,right,1.8088027720004902,None,,,,,,,,0,48,48,48,,,,,,,,,263.42240712499915,,,,,,,,,,,,,,,,,,,,,,,,,,,,,,,,,,,,,,263.4139319149981,263.42240712499915,264.4216576729996,265.4216287709969,265.4216287709969,265.4216287709969,,,,267.23945525399904,right,1.8088027720004902,None,,,,,,,,,,,,,,,,,,,,,,,,,,,,,,,,,,,,,,,,,,,436888,001,2024-12-01_17h20.24.010,Test,2024.2.1,59.31481412925579,2024-12-01 17h20.40.193476 +0100,
37,150,0,6,None,49,49,0,True,right,3.6677941939997254,None,,,,,,,,0,49,49,49,,,,,,,,,267.25584916799926,,,,,,,,,,,,,,,,,,,,,,,,,,,,,,,,,,,,,,267.2463818119977,267.25584916799926,268.25559779099785,269.255438543998,269.255438543998,269.255438543998,272.255379299997,272.23850405699704,272.255379299997,272.939274731998,right,3.6677941939997254,None,,,,,,,,,,,,,,,,,,,,,,,,,,,,,,,,,,,,,,,,,,,436888,001,2024-12-01_17h20.24.010,Test,2024.2.1,59.31481412925579,2024-12-01 17h20.40.193476 +0100,
41,150,30,48,None,50,50,0,True,left,1.304505235999386,None,,,,,,,,0,50,50,50,,,,,,,,,272.9558728150005,,,,,,,,,,,,,,,,,,,,,,,,,,,,,,,,,,,,,,272.9453587659991,272.9558728150005,273.9556208899994,274.9402813839988,274.9402813839988,274.9402813839988,,,,276.2572873689969,left,1.304505235999386,None,,,,,,,,,,,,,,,,,,,,,,,,,,,,,,,,,,,,,,,,,,,436888,001,2024-12-01_17h20.24.010,Test,2024.2.1,59.31481412925579,2024-12-01 17h20.40.193476 +0100,
2,150,0,23,None,51,51,0,False,left,1.3390015279983345,None,,,,,,,,0,51,51,51,,,,,,,,,276.2722653799974,,,,,,,,,,,,,,,,,,,,,,,,,,,,,,,,,,,,,,276.26320629899783,276.2722653799974,277.2725130969993,278.272449246997,278.272449246997,278.272449246997,,,,279.62464671899943,left,1.3390015279983345,None,,,,,,,,,,,,,,,,,,,,,,,,,,,,,,,,,,,,,,,,,,,436888,001,2024-12-01_17h20.24.010,Test,2024.2.1,59.31481412925579,2024-12-01 17h20.40.193476 +0100,
68,150,180,29,None,52,52,0,True,left,1.4724233390006702,None,,,,,,,,0,52,52,52,,,,,,,,,279.63988166099807,,,,,,,,,,,,,,,,,,,,,,,,,,,,,,,,,,,,,,279.63082396000027,279.63988166099807,280.6395615129986,281.63974006999706,281.63974006999706,281.63974006999706,,,,283.12388254100006,left,1.4724233390006702,None,,,,,,,,,,,,,,,,,,,,,,,,,,,,,,,,,,,,,,,,,,,436888,001,2024-12-01_17h20.24.010,Test,2024.2.1,59.31481412925579,2024-12-01 17h20.40.193476 +0100,
23,150,120,53,None,53,53,0,False,left,1.850250343002699,None,,,,,,,,0,53,53,53,,,,,,,,,283.13975781899717,,,,,,,,,,,,,,,,,,,,,,,,,,,,,,,,,,,,,,283.12938238399875,283.13975781899717,284.1395846380001,285.12349974899917,285.12349974899917,285.12349974899917,,,,286.97626541299906,left,1.850250343002699,None,,,,,,,,,,,,,,,,,,,,,,,,,,,,,,,,,,,,,,,,,,,436888,001,2024-12-01_17h20.24.010,Test,2024.2.1,59.31481412925579,2024-12-01 17h20.40.193476 +0100,
33,150,180,69,None,54,54,0,False,right,1.3815671499978635,None,,,,,,,,0,54,54,54,,,,,,,,,286.992423888998,,,,,,,,,,,,,,,,,,,,,,,,,,,,,,,,,,,,,,286.98346359899733,286.992423888998,288.00699804399846,288.98997486900043,288.98997486900043,288.98997486900043,,,,290.3756516829999,right,1.3815671499978635,None,,,,,,,,,,,,,,,,,,,,,,,,,,,,,,,,,,,,,,,,,,,436888,001,2024-12-01_17h20.24.010,Test,2024.2.1,59.31481412925579,2024-12-01 17h20.40.193476 +0100,
20,150,90,30,None,55,55,0,False,left,1.8916583049976907,None,,,,,,,,0,55,55,55,,,,,,,,,290.3918534410004,,,,,,,,,,,,,,,,,,,,,,,,,,,,,,,,,,,,,,290.38312908700027,290.3918534410004,291.4067327499979,292.3901669650004,292.3901669650004,292.3901669650004,,,,294.29152595599953,left,1.8916583049976907,None,,,,,,,,,,,,,,,,,,,,,,,,,,,,,,,,,,,,,,,,,,,436888,001,2024-12-01_17h20.24.010,Test,2024.2.1,59.31481412925579,2024-12-01 17h20.40.193476 +0100,
69,150,180,9,None,56,56,0,True,right,1.359701542998664,None,,,,,,,,0,56,56,56,,,,,,,,,294.30719691599734,,,,,,,,,,,,,,,,,,,,,,,,,,,,,,,,,,,,,,294.2975061219986,294.30719691599734,295.30757245199857,296.29074069499984,296.29074069499984,296.29074069499984,,,,297.6593489129991,right,1.359701542998664,None,,,,,,,,,,,,,,,,,,,,,,,,,,,,,,,,,,,,,,,,,,,436888,001,2024-12-01_17h20.24.010,Test,2024.2.1,59.31481412925579,2024-12-01 17h20.40.193476 +0100,
35,150,180,59,None,57,57,0,False,right,1.4900390149996383,None,,,,,,,,0,57,57,57,,,,,,,,,297.6743569649989,,,,,,,,,,,,,,,,,,,,,,,,,,,,,,,,,,,,,,297.6653743959978,297.6743569649989,298.6739468960004,299.6740107980004,299.6740107980004,299.6740107980004,,,,301.17569259899756,right,1.4900390149996383,None,,,,,,,,,,,,,,,,,,,,,,,,,,,,,,,,,,,,,,,,,,,436888,001,2024-12-01_17h20.24.010,Test,2024.2.1,59.31481412925579,2024-12-01 17h20.40.193476 +0100,
42,150,30,27,None,58,58,0,True,left,1.1878562220008462,None,,,,,,,,0,58,58,58,,,,,,,,,301.1906062179987,,,,,,,,,,,,,,,,,,,,,,,,,,,,,,,,,,,,,,301.18133228199804,301.1906062179987,302.19165404399973,303.1753927789978,303.1753927789978,303.1753927789978,,,,304.3757304409992,left,1.1878562220008462,None,,,,,,,,,,,,,,,,,,,,,,,,,,,,,,,,,,,,,,,,,,,436888,001,2024-12-01_17h20.24.010,Test,2024.2.1,59.31481412925579,2024-12-01 17h20.40.193476 +0100,
50,150,60,28,None,59,59,0,True,left,1.0556939719972434,None,,,,,,,,0,59,59,59,,,,,,,,,304.39069812899834,,,,,,,,,,,,,,,,,,,,,,,,,,,,,,,,,,,,,,304.38156051199985,304.39069812899834,305.3910182109976,306.37531762199797,306.37531762199797,306.37531762199797,,,,307.44278003999716,left,1.0556939719972434,None,,,,,,,,,,,,,,,,,,,,,,,,,,,,,,,,,,,,,,,,,,,436888,001,2024-12-01_17h20.24.010,Test,2024.2.1,59.31481412925579,2024-12-01 17h20.40.193476 +0100,
18,150,90,19,None,60,60,0,False,left,1.6561437870004738,None,,,,,,,,0,60,60,60,,,,,,,,,307.45806913499837,,,,,,,,,,,,,,,,,,,,,,,,,,,,,,,,,,,,,,307.4485578999993,307.45806913499837,308.4579375439971,309.4413555379979,309.4413555379979,309.4413555379979,,,,311.1095165480001,left,1.6561437870004738,None,,,,,,,,,,,,,,,,,,,,,,,,,,,,,,,,,,,,,,,,,,,436888,001,2024-12-01_17h20.24.010,Test,2024.2.1,59.31481412925579,2024-12-01 17h20.40.193476 +0100,
25,150,120,50,None,61,61,0,False,left,1.8341223099996569,None,,,,,,,,0,61,61,61,,,,,,,,,311.1338252120004,,,,,,,,,,,,,,,,,,,,,,,,,,,,,,,,,,,,,,311.1257796129976,311.1338252120004,312.14199652000025,313.10835093999776,313.10835093999776,313.10835093999776,,,,314.9450386009994,left,1.8341223099996569,None,,,,,,,,,,,,,,,,,,,,,,,,,,,,,,,,,,,,,,,,,,,436888,001,2024-12-01_17h20.24.010,Test,2024.2.1,59.31481412925579,2024-12-01 17h20.40.193476 +0100,
49,150,60,21,None,62,62,0,True,left,1.4743401699997776,None,,,,,,,,0,62,62,62,,,,,,,,,314.95898206799757,,,,,,,,,,,,,,,,,,,,,,,,,,,,,,,,,,,,,,314.95110387599925,314.95898206799757,315.9586791779984,316.959409709998,316.959409709998,316.959409709998,,,,318.4438009730002,left,1.4743401699997776,None,,,,,,,,,,,,,,,,,,,,,,,,,,,,,,,,,,,,,,,,,,,436888,001,2024-12-01_17h20.24.010,Test,2024.2.1,59.31481412925579,2024-12-01 17h20.40.193476 +0100,
52,150,90,55,None,63,63,0,True,left,3.767168839000078,None,,,,,,,,0,63,63,63,,,,,,,,,318.4588122569985,,,,,,,,,,,,,,,,,,,,,,,,,,,,,,,,,,,,,,318.44999107900003,318.4588122569985,319.4587414889975,320.459065068997,320.459065068997,320.459065068997,323.45919041699744,323.44247033399733,323.45919041699744,324.2292230899984,left,3.767168839000078,None,,,,,,,,,,,,,,,,,,,,,,,,,,,,,,,,,,,,,,,,,,,436888,001,2024-12-01_17h20.24.010,Test,2024.2.1,59.31481412925579,2024-12-01 17h20.40.193476 +0100,
53,150,90,39,None,64,64,0,True,right,1.1097502129996428,None,,,,,,,,0,64,64,64,,,,,,,,,324.2435092409978,,,,,,,,,,,,,,,,,,,,,,,,,,,,,,,,,,,,,,324.23481032999916,324.2435092409978,325.242924078997,326.2428594489975,326.2428594489975,326.2428594489975,,,,327.36128968199773,right,1.1097502129996428,None,,,,,,,,,,,,,,,,,,,,,,,,,,,,,,,,,,,,,,,,,,,436888,001,2024-12-01_17h20.24.010,Test,2024.2.1,59.31481412925579,2024-12-01 17h20.40.193476 +0100,
56,150,120,16,None,65,65,0,True,left,2.090682015001221,None,,,,,,,,0,65,65,65,,,,,,,,,327.37577253699783,,,,,,,,,,,,,,,,,,,,,,,,,,,,,,,,,,,,,,327.36641317799877,327.37577253699783,328.3761592159972,329.37664868499996,329.37664868499996,329.37664868499996,,,,331.47729120299846,left,2.090682015001221,None,,,,,,,,,,,,,,,,,,,,,,,,,,,,,,,,,,,,,,,,,,,436888,001,2024-12-01_17h20.24.010,Test,2024.2.1,59.31481412925579,2024-12-01 17h20.40.193476 +0100,
55,150,90,67,None,66,66,0,True,left,1.9275760280033865,None,,,,,,,,0,66,66,66,,,,,,,,,331.4929385359974,,,,,,,,,,,,,,,,,,,,,,,,,,,,,,,,,,,,,,331.48288103899904,331.4929385359974,332.49302118599735,333.4759423260002,333.4759423260002,333.4759423260002,,,,335.4114221899981,left,1.9275760280033865,None,,,,,,,,,,,,,,,,,,,,,,,,,,,,,,,,,,,,,,,,,,,436888,001,2024-12-01_17h20.24.010,Test,2024.2.1,59.31481412925579,2024-12-01 17h20.40.193476 +0100,
47,150,60,7,None,67,67,0,True,left,1.5932245279982453,None,,,,,,,,0,67,67,67,,,,,,,,,335.42677620799805,,,,,,,,,,,,,,,,,,,,,,,,,,,,,,,,,,,,,,335.4172856059995,335.42677620799805,336.4272872779984,337.42709733099764,337.42709733099764,337.42709733099764,,,,339.02862206200007,left,1.5932245279982453,None,,,,,,,,,,,,,,,,,,,,,,,,,,,,,,,,,,,,,,,,,,,436888,001,2024-12-01_17h20.24.010,Test,2024.2.1,59.31481412925579,2024-12-01 17h20.40.193476 +0100,
66,150,180,33,None,68,68,0,True,left,1.802820969001914,None,,,,,,,,0,68,68,68,,,,,,,,,339.0438536679976,,,,,,,,,,,,,,,,,,,,,,,,,,,,,,,,,,,,,,339.03469340099764,339.0438536679976,340.0438716509998,341.04383243699704,341.04383243699704,341.04383243699704,,,,342.8621441469986,left,1.802820969001914,None,,,,,,,,,,,,,,,,,,,,,,,,,,,,,,,,,,,,,,,,,,,436888,001,2024-12-01_17h20.24.010,Test,2024.2.1,59.31481412925579,2024-12-01 17h20.40.193476 +0100,
40,150,0,54,None,69,69,0,True,left,1.3591150369975367,None,,,,,,,,0,69,69,69,,,,,,,,,342.8775724039988,,,,,,,,,,,,,,,,,,,,,,,,,,,,,,,,,,,,,,342.8688746689986,342.8775724039988,343.877555441999,344.8772408719997,344.8772408719997,344.8772408719997,,,,346.24531291499807,left,1.3591150369975367,None,,,,,,,,,,,,,,,,,,,,,,,,,,,,,,,,,,,,,,,,,,,436888,001,2024-12-01_17h20.24.010,Test,2024.2.1,59.31481412925579,2024-12-01 17h20.40.193476 +0100,
,,,,,,,,,,,,,,,,,,,,,,,,,,,,,,,,,,,,,,,,,,,,,,,,,,,,,,,,,,,,,,,,,,,,,,,,,,,,,,,,,,346.24552328499703,346.2607641689974,346.2607641689974,351.1794168029992,space,4.907581494000624,None,,,,,,,,,,,,,,,,,,,,,,,,,,,,,,,,,,,,436888,001,2024-12-01_17h20.24.010,Test,2024.2.1,59.31481412925579,2024-12-01 17h20.40.193476 +0100,
13,150,60,11,None,0,0,0,,,,,,,,,,,,,,,,0,0,0,12,,,,,351.2039020529992,,,,,,,,,,,,,,,,,,,,,,,,,,,,,,,,,,,,,,,,,,,,,,,,,,,,,,,,,,351.19382974399923,351.2039020529992,351.3948856329989,351.3948856329989,351.41113744299946,353.0975551179981,353.0975551179981,353.07852018999984,,,,,,,,,,,,,,,,,,,,,,,,,,,,436888,001,2024-12-01_17h20.24.010,Test,2024.2.1,59.31481412925579,2024-12-01 17h20.40.193476 +0100,
29,150,150,8,None,1,1,0,,,,,,,,,,,,,,,,0,1,1,28,,,,,353.0975551179981,,,,,,,,,,,,,,,,,,,,,,,,,,,,,,,,,,,,,,,,,,,,,,,,,,,,,,,,,,353.0880555119984,353.0975551179981,353.2946628179998,353.2946628179998,353.31107278299896,354.9939851119998,354.9939851119998,354.9790881339977,,,,,,,,,,,,,,,,,,,,,,,,,,,,436888,001,2024-12-01_17h20.24.010,Test,2024.2.1,59.31481412925579,2024-12-01 17h20.40.193476 +0100,
20,150,90,30,None,2,2,0,,,,,,,,,,,,,,,,0,2,2,19,,,,,354.9939851119998,,,,,,,,,,,,,,,,,,,,,,,,,,,,,,,,,,,,,,,,,,,,,,,,,,,,,,,,,,354.985249379999,354.9939851119998,355.1952351309992,355.1952351309992,355.1952351309992,356.8945497929999,356.8945497929999,356.87840211399816,,,,,,,,,,,,,,,,,,,,,,,,,,,,436888,001,2024-12-01_17h20.24.010,Test,2024.2.1,59.31481412925579,2024-12-01 17h20.40.193476 +0100,
2,150,0,23,None,3,3,0,,,,,,,,,,,,,,,,0,3,3,1,,,,,356.8945497929999,,,,,,,,,,,,,,,,,,,,,,,,,,,,,,,,,,,,,,,,,,,,,,,,,,,,,,,,,,356.8841047249989,356.8945497929999,357.09517175899964,357.09517175899964,357.09517175899964,358.7946834109971,358.7946834109971,358.7790299829976,,,,,,,,,,,,,,,,,,,,,,,,,,,,436888,001,2024-12-01_17h20.24.010,Test,2024.2.1,59.31481412925579,2024-12-01 17h20.40.193476 +0100,
7,150,30,25,None,4,4,0,,,,,,,,,,,,,,,,0,4,4,6,,,,,358.7946834109971,,,,,,,,,,,,,,,,,,,,,,,,,,,,,,,,,,,,,,,,,,,,,,,,,,,,,,,,,,358.7855221409991,358.7946834109971,358.99481386099797,358.99481386099797,358.99481386099797,360.6948425219998,360.6948425219998,360.6794294520005,,,,,,,,,,,,,,,,,,,,,,,,,,,,436888,001,2024-12-01_17h20.24.010,Test,2024.2.1,59.31481412925579,2024-12-01 17h20.40.193476 +0100,
3,150,0,44,None,5,5,0,,,,,,,,,,,,,,,,0,5,5,2,,,,,360.6948425219998,,,,,,,,,,,,,,,,,,,,,,,,,,,,,,,,,,,,,,,,,,,,,,,,,,,,,,,,,,360.68557024799884,360.6948425219998,360.8949060899977,360.8949060899977,360.8949060899977,362.59460688000036,362.59460688000036,362.579336863997,,,,,,,,,,,,,,,,,,,,,,,,,,,,436888,001,2024-12-01_17h20.24.010,Test,2024.2.1,59.31481412925579,2024-12-01 17h20.40.193476 +0100,
15,150,60,57,None,6,6,0,,,,,,,,,,,,,,,,0,6,6,14,,,,,362.59460688000036,,,,,,,,,,,,,,,,,,,,,,,,,,,,,,,,,,,,,,,,,,,,,,,,,,,,,,,,,,362.58501961199727,362.59460688000036,362.79504148999695,362.79504148999695,362.79504148999695,,,364.47962066699984,,,,,,,,,,,,,,,,,,,,,,,,,,,,436888,001,2024-12-01_17h20.24.010,Test,2024.2.1,59.31481412925579,2024-12-01 17h20.40.193476 +0100,
21,150,120,15,None,7,7,0,,,,,,,,,,,,,,,,0,7,7,20,,,,,364.4977201699985,,,,,,,,,,,,,,,,,,,,,,,,,,,,,,,,,,,,,,,,,,,,,,,,,,,,,,,,,,364.48898818199814,364.4977201699985,364.678714185,364.678714185,364.712100337998,366.3785127659976,366.3785127659976,366.36313544699806,,,,,,,,,,,,,,,,,,,,,,,,,,,,436888,001,2024-12-01_17h20.24.010,Test,2024.2.1,59.31481412925579,2024-12-01 17h20.40.193476 +0100,
10,150,30,49,None,8,8,0,,,,,,,,,,,,,,,,0,8,8,9,,,,,366.3785127659976,,,,,,,,,,,,,,,,,,,,,,,,,,,,,,,,,,,,,,,,,,,,,,,,,,,,,,,,,,366.3690698809987,366.3785127659976,366.5790780649986,366.5790780649986,366.5790780649986,368.27846681299707,368.27846681299707,368.262205220999,,,,,,,,,,,,,,,,,,,,,,,,,,,,436888,001,2024-12-01_17h20.24.010,Test,2024.2.1,59.31481412925579,2024-12-01 17h20.40.193476 +0100,
24,150,120,22,None,9,9,0,,,,,,,,,,,,,,,,0,9,9,23,,,,,368.27846681299707,,,,,,,,,,,,,,,,,,,,,,,,,,,,,,,,,,,,,,,,,,,,,,,,,,,,,,,,,,368.26903554599994,368.2949503889977,368.4789001299978,368.4789001299978,368.4957880189977,370.1790625979993,370.1790625979993,370.16294261799703,,,,,,,,,,,,,,,,,,,,,,,,,,,,436888,001,2024-12-01_17h20.24.010,Test,2024.2.1,59.31481412925579,2024-12-01 17h20.40.193476 +0100,
18,150,90,19,None,10,10,0,,,,,,,,,,,,,,,,0,10,10,17,,,,,370.1790625979993,,,,,,,,,,,,,,,,,,,,,,,,,,,,,,,,,,,,,,,,,,,,,,,,,,,,,,,,,,370.1688748839988,370.1790625979993,370.3789510099996,370.3789510099996,370.3789510099996,372.08020562399906,372.08020562399906,372.0633518609975,,,,,,,,,,,,,,,,,,,,,,,,,,,,436888,001,2024-12-01_17h20.24.010,Test,2024.2.1,59.31481412925579,2024-12-01 17h20.40.193476 +0100,
6,150,30,62,None,11,11,0,,,,,,,,,,,,,,,,0,11,11,5,,,,,372.08020562399906,,,,,,,,,,,,,,,,,,,,,,,,,,,,,,,,,,,,,,,,,,,,,,,,,,,,,,,,,,372.0710154929984,372.08020562399906,372.2792907719995,372.2792907719995,372.2963899539973,373.98489764699843,373.98489764699843,373.96957855899745,,,,,,,,,,,,,,,,,,,,,,,,,,,,436888,001,2024-12-01_17h20.24.010,Test,2024.2.1,59.31481412925579,2024-12-01 17h20.40.193476 +0100,
27,150,150,40,None,12,12,0,,,,,,,,,,,,,,,,0,12,12,26,,,,,373.98489764699843,,,,,,,,,,,,,,,,,,,,,,,,,,,,,,,,,,,,,,,,,,,,,,,,,,,,,,,,,,373.9778618069977,373.98489764699843,374.1796351060002,374.1796351060002,374.19582887399883,375.8789587989995,375.8789587989995,375.8633497139999,,,,,,,,,,,,,,,,,,,,,,,,,,,,436888,001,2024-12-01_17h20.24.010,Test,2024.2.1,59.31481412925579,2024-12-01 17h20.40.193476 +0100,
12,150,60,17,None,13,13,0,,,,,,,,,,,,,,,,0,13,13,11,,,,,375.8789587989995,,,,,,,,,,,,,,,,,,,,,,,,,,,,,,,,,,,,,,,,,,,,,,,,,,,,,,,,,,375.86990066699946,375.8789587989995,376.0798064399969,376.0798064399969,376.0798064399969,377.77884909899876,377.77884909899876,377.7634490370001,,,,,,,,,,,,,,,,,,,,,,,,,,,,436888,001,2024-12-01_17h20.24.010,Test,2024.2.1,59.31481412925579,2024-12-01 17h20.40.193476 +0100,
22,150,120,36,None,14,14,0,,,,,,,,,,,,,,,,0,14,14,21,,,,,377.77884909899876,,,,,,,,,,,,,,,,,,,,,,,,,,,,,,,,,,,,,,,,,,,,,,,,,,,,,,,,,,377.7689021549995,377.77884909899876,377.97927733100005,377.97927733100005,377.97927733100005,379.6840205970002,379.6840205970002,379.664961956998,,,,,,,,,,,,,,,,,,,,,,,,,,,,436888,001,2024-12-01_17h20.24.010,Test,2024.2.1,59.31481412925579,2024-12-01 17h20.40.193476 +0100,
19,150,90,1,None,15,15,0,,,,,,,,,,,,,,,,0,15,15,18,,,,,379.6840205970002,,,,,,,,,,,,,,,,,,,,,,,,,,,,,,,,,,,,,,,,,,,,,,,,,,,,,,,,,,379.67523727299704,379.6840205970002,379.8818945940002,379.8818945940002,379.8964863439978,,,381.57993440899736,,,,,,,,,,,,,,,,,,,,,,,,,,,,436888,001,2024-12-01_17h20.24.010,Test,2024.2.1,59.31481412925579,2024-12-01 17h20.40.193476 +0100,
34,150,180,20,None,16,16,0,,,,,,,,,,,,,,,,0,16,16,33,,,,,381.5958155469998,,,,,,,,,,,,,,,,,,,,,,,,,,,,,,,,,,,,,,,,,,,,,,,,,,,,,,,,,,381.58572525499767,381.5958155469998,381.7801042989995,381.7801042989995,381.7964121389996,383.48013723999975,383.48013723999975,383.46387286299796,,,,,,,,,,,,,,,,,,,,,,,,,,,,436888,001,2024-12-01_17h20.24.010,Test,2024.2.1,59.31481412925579,2024-12-01 17h20.40.193476 +0100,
16,150,90,5,None,17,17,0,,,,,,,,,,,,,,,,0,17,17,15,,,,,383.48013723999975,,,,,,,,,,,,,,,,,,,,,,,,,,,,,,,,,,,,,,,,,,,,,,,,,,,,,,,,,,383.4694343029987,383.48013723999975,383.68010244999823,383.68010244999823,383.68010244999823,385.37945561499873,385.37945561499873,385.3639580579984,,,,,,,,,,,,,,,,,,,,,,,,,,,,436888,001,2024-12-01_17h20.24.010,Test,2024.2.1,59.31481412925579,2024-12-01 17h20.40.193476 +0100,
1,150,0,18,None,18,18,0,,,,,,,,,,,,,,,,0,18,18,0,,,,,385.37945561499873,,,,,,,,,,,,,,,,,,,,,,,,,,,,,,,,,,,,,,,,,,,,,,,,,,,,,,,,,,385.36968123099723,385.37945561499873,385.580992485,385.580992485,385.580992485,387.2800145000001,387.2800145000001,387.26454992899744,,,,,,,,,,,,,,,,,,,,,,,,,,,,436888,001,2024-12-01_17h20.24.010,Test,2024.2.1,59.31481412925579,2024-12-01 17h20.40.193476 +0100,
35,150,180,59,None,19,19,0,,,,,,,,,,,,,,,,0,19,19,34,,,,,387.2800145000001,,,,,,,,,,,,,,,,,,,,,,,,,,,,,,,,,,,,,,,,,,,,,,,,,,,,,,,,,,387.27120280099916,387.2800145000001,387.47994164099873,387.47994164099873,387.47994164099873,389.180212477997,389.180212477997,389.1646890359989,,,,,,,,,,,,,,,,,,,,,,,,,,,,436888,001,2024-12-01_17h20.24.010,Test,2024.2.1,59.31481412925579,2024-12-01 17h20.40.193476 +0100,
9,150,30,12,None,20,20,0,,,,,,,,,,,,,,,,0,20,20,8,,,,,389.180212477997,,,,,,,,,,,,,,,,,,,,,,,,,,,,,,,,,,,,,,,,,,,,,,,,,,,,,,,,,,389.17062869299843,389.180212477997,389.38059759599855,389.38059759599855,389.38059759599855,391.0800235389979,391.0800235389979,391.06469455299884,,,,,,,,,,,,,,,,,,,,,,,,,,,,436888,001,2024-12-01_17h20.24.010,Test,2024.2.1,59.31481412925579,2024-12-01 17h20.40.193476 +0100,
30,150,150,52,None,21,21,0,,,,,,,,,,,,,,,,0,21,21,29,,,,,391.0800235389979,,,,,,,,,,,,,,,,,,,,,,,,,,,,,,,,,,,,,,,,,,,,,,,,,,,,,,,,,,391.0712763219999,391.0800235389979,391.2806497780002,391.2806497780002,391.2806497780002,392.98041036799987,392.98041036799987,392.96519327299757,,,,,,,,,,,,,,,,,,,,,,,,,,,,436888,001,2024-12-01_17h20.24.010,Test,2024.2.1,59.31481412925579,2024-12-01 17h20.40.193476 +0100,
32,150,180,24,None,22,22,0,,,,,,,,,,,,,,,,0,22,22,31,,,,,392.98041036799987,,,,,,,,,,,,,,,,,,,,,,,,,,,,,,,,,,,,,,,,,,,,,,,,,,,,,,,,,,392.971114295,392.98041036799987,393.18072902199856,393.18072902199856,393.18072902199856,394.8808972400002,394.8808972400002,394.8656179319987,,,,,,,,,,,,,,,,,,,,,,,,,,,,436888,001,2024-12-01_17h20.24.010,Test,2024.2.1,59.31481412925579,2024-12-01 17h20.40.193476 +0100,
28,150,150,37,None,23,23,0,,,,,,,,,,,,,,,,0,23,23,27,,,,,394.8808972400002,,,,,,,,,,,,,,,,,,,,,,,,,,,,,,,,,,,,,,,,,,,,,,,,,,,,,,,,,,394.87262773899783,394.8808972400002,395.0806804809981,395.0806804809981,395.0806804809981,396.7804138020001,396.7804138020001,396.76508782999736,,,,,,,,,,,,,,,,,,,,,,,,,,,,436888,001,2024-12-01_17h20.24.010,Test,2024.2.1,59.31481412925579,2024-12-01 17h20.40.193476 +0100,
25,150,120,50,None,24,24,0,,,,,,,,,,,,,,,,0,24,24,24,,,,,396.7804138020001,,,,,,,,,,,,,,,,,,,,,,,,,,,,,,,,,,,,,,,,,,,,,,,,,,,,,,,,,,396.77097045199844,396.7804138020001,396.98102711200045,396.98102711200045,396.98102711200045,398.695886841997,398.695886841997,398.6651993799969,,,,,,,,,,,,,,,,,,,,,,,,,,,,436888,001,2024-12-01_17h20.24.010,Test,2024.2.1,59.31481412925579,2024-12-01 17h20.40.193476 +0100,
17,150,90,34,None,25,25,0,,,,,,,,,,,,,,,,0,25,25,16,,,,,398.695886841997,,,,,,,,,,,,,,,,,,,,,,,,,,,,,,,,,,,,,,,,,,,,,,,,,,,,,,,,,,398.6704983029995,398.695886841997,398.8811178369979,398.8811178369979,398.8979283849985,400.58051717799754,400.58051717799754,400.5655549169969,,,,,,,,,,,,,,,,,,,,,,,,,,,,436888,001,2024-12-01_17h20.24.010,Test,2024.2.1,59.31481412925579,2024-12-01 17h20.40.193476 +0100,
31,150,180,13,None,26,26,0,,,,,,,,,,,,,,,,0,26,26,30,,,,,400.58051717799754,,,,,,,,,,,,,,,,,,,,,,,,,,,,,,,,,,,,,,,,,,,,,,,,,,,,,,,,,,400.5713089669989,400.58051717799754,400.7810103899974,400.7810103899974,400.7810103899974,402.48191479699744,402.48191479699744,402.465802671999,,,,,,,,,,,,,,,,,,,,,,,,,,,,436888,001,2024-12-01_17h20.24.010,Test,2024.2.1,59.31481412925579,2024-12-01 17h20.40.193476 +0100,
23,150,120,53,None,27,27,0,,,,,,,,,,,,,,,,0,27,27,22,,,,,402.48191479699744,,,,,,,,,,,,,,,,,,,,,,,,,,,,,,,,,,,,,,,,,,,,,,,,,,,,,,,,,,402.4735532800005,402.48191479699744,402.68157734299893,402.68157734299893,402.68157734299893,404.38080760999947,404.38080760999947,404.3647966440003,,,,,,,,,,,,,,,,,,,,,,,,,,,,436888,001,2024-12-01_17h20.24.010,Test,2024.2.1,59.31481412925579,2024-12-01 17h20.40.193476 +0100,
5,150,0,41,None,28,28,0,,,,,,,,,,,,,,,,0,28,28,4,,,,,404.38080760999947,,,,,,,,,,,,,,,,,,,,,,,,,,,,,,,,,,,,,,,,,,,,,,,,,,,,,,,,,,404.3706687390004,404.38080760999947,404.58107854899936,404.58107854899936,404.58107854899936,406.2813052299971,406.2813052299971,406.2658051010003,,,,,,,,,,,,,,,,,,,,,,,,,,,,436888,001,2024-12-01_17h20.24.010,Test,2024.2.1,59.31481412925579,2024-12-01 17h20.40.193476 +0100,
8,150,30,51,None,29,29,0,,,,,,,,,,,,,,,,0,29,29,7,,,,,406.2813052299971,,,,,,,,,,,,,,,,,,,,,,,,,,,,,,,,,,,,,,,,,,,,,,,,,,,,,,,,,,406.2718099099984,406.2813052299971,406.4817508679989,406.4817508679989,406.4817508679989,408.1813448719986,408.1813448719986,408.16614917900006,,,,,,,,,,,,,,,,,,,,,,,,,,,,436888,001,2024-12-01_17h20.24.010,Test,2024.2.1,59.31481412925579,2024-12-01 17h20.40.193476 +0100,
11,150,60,58,None,30,30,0,,,,,,,,,,,,,,,,0,30,30,10,,,,,408.1813448719986,,,,,,,,,,,,,,,,,,,,,,,,,,,,,,,,,,,,,,,,,,,,,,,,,,,,,,,,,,408.1716613989993,408.1813448719986,408.3820939139987,408.3820939139987,408.3820939139987,410.08130199399966,410.08130199399966,410.0660901049996,,,,,,,,,,,,,,,,,,,,,,,,,,,,436888,001,2024-12-01_17h20.24.010,Test,2024.2.1,59.31481412925579,2024-12-01 17h20.40.193476 +0100,
33,150,180,69,None,31,31,0,,,,,,,,,,,,,,,,0,31,31,32,,,,,410.08130199399966,,,,,,,,,,,,,,,,,,,,,,,,,,,,,,,,,,,,,,,,,,,,,,,,,,,,,,,,,,410.071834872997,410.08130199399966,410.28161034799996,410.28161034799996,410.28161034799996,411.98338875899935,411.98338875899935,411.96969538199846,,,,,,,,,,,,,,,,,,,,,,,,,,,,436888,001,2024-12-01_17h20.24.010,Test,2024.2.1,59.31481412925579,2024-12-01 17h20.40.193476 +0100,
4,150,0,68,None,32,32,0,,,,,,,,,,,,,,,,0,32,32,3,,,,,411.98338875899935,,,,,,,,,,,,,,,,,,,,,,,,,,,,,,,,,,,,,,,,,,,,,,,,,,,,,,,,,,411.9751032899985,411.98338875899935,412.1817211489979,412.1817211489979,412.1984799739985,413.8818743539996,413.8818743539996,413.8661328149974,,,,,,,,,,,,,,,,,,,,,,,,,,,,436888,001,2024-12-01_17h20.24.010,Test,2024.2.1,59.31481412925579,2024-12-01 17h20.40.193476 +0100,
26,150,150,38,None,33,33,0,,,,,,,,,,,,,,,,0,33,33,25,,,,,413.8818743539996,,,,,,,,,,,,,,,,,,,,,,,,,,,,,,,,,,,,,,,,,,,,,,,,,,,,,,,,,,413.8712684780003,413.8818743539996,414.0825476289974,414.0825476289974,414.0825476289974,415.7814969249994,415.7814969249994,415.76611717599735,,,,,,,,,,,,,,,,,,,,,,,,,,,,436888,001,2024-12-01_17h20.24.010,Test,2024.2.1,59.31481412925579,2024-12-01 17h20.40.193476 +0100,
14,150,60,3,None,34,34,0,,,,,,,,,,,,,,,,0,34,34,13,,,,,415.7814969249994,,,,,,,,,,,,,,,,,,,,,,,,,,,,,,,,,,,,,,,,,,,,,,,,,,,,,,,,,,415.77154070899996,415.7814969249994,415.98216757000046,415.98216757000046,415.98216757000046,417.68219451999903,417.68219451999903,417.66653907,,,,,,,,,,,,,,,,,,,,,,,,,,,,436888,001,2024-12-01_17h20.24.010,Test,2024.2.1,59.31481412925579,2024-12-01 17h20.40.193476 +0100,
,,,,,,,,,,,,,,,,,,,,,,,,,,,,,,,,,,,,,,,,,,,,,,,,,,,,,,,,,,,,,,,,,,,,,,,,,,,,,,,,,,,,,,,,,,,,,,,,,417.6666897139985,417.68219451999903,417.68219451999903,431.41806693000035,space,13.725169295998057,None,,,,,,,,,,,,,,,,,,,,,436888,001,2024-12-01_17h20.24.010,Test,2024.2.1,59.31481412925579,2024-12-01 17h20.40.193476 +0100,
19,150,90,1,None,0,0,0,False,,,,right,1.4936296939995373,None,,,,,,,,,,,,,0,0,0,0,431.4426419889969,,,,,,,,,,,,,,,,,,,,,,,,,,,,,,,,,,,,,,,,,,,,,,,,,,,,,,,,,,,,,,,,,,,,,,,,,431.4330096720005,431.4426419889969,432.4499551989975,433.41660533699905,433.41660533699905,433.41660533699905,434.91896704899773,right,1.4936296939995373,None,,,,,,,,,,,436888,001,2024-12-01_17h20.24.010,Test,2024.2.1,59.31481412925579,2024-12-01 17h20.40.193476 +0100,
9,150,30,12,None,1,1,0,False,,,,right,1.0399001859987038,None,,,,,,,,,,,,,0,1,1,1,434.9330506769984,,,,,,,,,,,,,,,,,,,,,,,,,,,,,,,,,,,,,,,,,,,,,,,,,,,,,,,,,,,,,,,,,,,,,,,,,434.9224028139979,434.9330506769984,435.9334617739987,436.9333270529969,436.9333270529969,436.9333270529969,437.98579629699816,right,1.0399001859987038,None,,,,,,,,,,,436888,001,2024-12-01_17h20.24.010,Test,2024.2.1,59.31481412925579,2024-12-01 17h20.40.193476 +0100,
21,150,120,15,None,2,2,0,False,,,,right,1.0229396370014001,None,,,,,,,,,,,,,0,2,2,2,437.99986991900005,,,,,,,,,,,,,,,,,,,,,,,,,,,,,,,,,,,,,,,,,,,,,,,,,,,,,,,,,,,,,,,,,,,,,,,,,437.98942705899753,437.99986991900005,439.00062820499807,439.99991899499946,439.99991899499946,439.99991899499946,441.0319867469989,right,1.0229396370014001,None,,,,,,,,,,,436888,001,2024-12-01_17h20.24.010,Test,2024.2.1,59.31481412925579,2024-12-01 17h20.40.193476 +0100,
51,150,90,4,None,3,3,0,True,,,,left,0.9510019269982877,None,,,,,,,,,,,,,0,3,3,3,441.04771827699733,,,,,,,,,,,,,,,,,,,,,,,,,,,,,,,,,,,,,,,,,,,,,,,,,,,,,,,,,,,,,,,,,,,,,,,,,441.0393381069989,441.04771827699733,442.0505609979991,443.0338709059979,443.0338709059979,443.0338709059979,444.0027041279973,left,0.9510019269982877,None,,,,,,,,,,,436888,001,2024-12-01_17h20.24.010,Test,2024.2.1,59.31481412925579,2024-12-01 17h20.40.193476 +0100,
46,150,60,42,None,4,4,0,True,,,,left,0.9703024079972238,None,,,,,,,,,,,,,0,4,4,4,444.03263278099985,,,,,,,,,,,,,,,,,,,,,,,,,,,,,,,,,,,,,,,,,,,,,,,,,,,,,,,,,,,,,,,,,,,,,,,,,444.01082559399947,444.03263278099985,445.0351609829995,446.0586048829973,446.0586048829973,446.0586048829973,447.03600244399786,left,0.9703024079972238,None,,,,,,,,,,,436888,001,2024-12-01_17h20.24.010,Test,2024.2.1,59.31481412925579,2024-12-01 17h20.40.193476 +0100,
16,150,90,5,None,5,5,0,False,,,,right,0.7997118400016916,None,,,,,,,,,,,,,0,5,5,5,447.05072432999805,,,,,,,,,,,,,,,,,,,,,,,,,,,,,,,,,,,,,,,,,,,,,,,,,,,,,,,,,,,,,,,,,,,,,,,,,447.0397168299969,447.05072432999805,448.05153531199903,449.0514164239976,449.0514164239976,449.0514164239976,449.8540106759974,right,0.7997118400016916,None,,,,,,,,,,,436888,001,2024-12-01_17h20.24.010,Test,2024.2.1,59.31481412925579,2024-12-01 17h20.40.193476 +0100,
43,150,30,46,None,6,6,0,True,,,,left,0.9885704429980251,None,,,,,,,,,,,,,0,6,6,6,449.86910860199714,,,,,,,,,,,,,,,,,,,,,,,,,,,,,,,,,,,,,,,,,,,,,,,,,,,,,,,,,,,,,,,,,,,,,,,,,449.8600419510003,449.86910860199714,450.86848859999736,451.868878366,451.868878366,451.868878366,452.86985427499894,left,0.9885704429980251,None,,,,,,,,,,,436888,001,2024-12-01_17h20.24.010,Test,2024.2.1,59.31481412925579,2024-12-01 17h20.40.193476 +0100,
36,150,0,61,None,7,7,0,True,,,,left,1.0445974680005747,None,,,,,,,,,,,,,0,7,7,7,452.8854180599992,,,,,,,,,,,,,,,,,,,,,,,,,,,,,,,,,,,,,,,,,,,,,,,,,,,,,,,,,,,,,,,,,,,,,,,,,452.8762276289999,452.8854180599992,453.88503468499766,454.88520972199694,454.88520972199694,454.88520972199694,455.94028952699955,left,1.0445974680005747,None,,,,,,,,,,,436888,001,2024-12-01_17h20.24.010,Test,2024.2.1,59.31481412925579,2024-12-01 17h20.40.193476 +0100,
65,150,150,47,None,8,8,0,True,,,,right,1.106454003998806,None,,,,,,,,,,,,,0,8,8,8,455.9711346059994,,,,,,,,,,,,,,,,,,,,,,,,,,,,,,,,,,,,,,,,,,,,,,,,,,,,,,,,,,,,,,,,,,,,,,,,,455.9471340309974,455.9711346059994,456.9859728279989,457.95162620299743,457.95162620299743,457.95162620299743,459.0694486909997,right,1.106454003998806,None,,,,,,,,,,,436888,001,2024-12-01_17h20.24.010,Test,2024.2.1,59.31481412925579,2024-12-01 17h20.40.193476 +0100,
62,150,150,56,None,9,9,0,True,,,,right,1.0653977880028833,None,,,,,,,,,,,,,0,9,9,9,459.0854026179986,,,,,,,,,,,,,,,,,,,,,,,,,,,,,,,,,,,,,,,,,,,,,,,,,,,,,,,,,,,,,,,,,,,,,,,,,459.07671586599827,459.0854026179986,460.0850414409979,461.0685710609978,461.0685710609978,461.0685710609978,462.1382172639969,right,1.0653977880028833,None,,,,,,,,,,,436888,001,2024-12-01_17h20.24.010,Test,2024.2.1,59.31481412925579,2024-12-01 17h20.40.193476 +0100,
4,150,0,68,None,10,10,0,False,,,,left,1.6837711480002326,None,,,,,,,,,,,,,0,10,10,10,462.15230814299866,,,,,,,,,,,,,,,,,,,,,,,,,,,,,,,,,,,,,,,,,,,,,,,,,,,,,,,,,,,,,,,,,,,,,,,,,462.1417432540002,462.15230814299866,463.1531319789974,464.1520293959984,464.1520293959984,464.1520293959984,465.83851514199705,left,1.6837711480002326,None,,,,,,,,,,,436888,001,2024-12-01_17h20.24.010,Test,2024.2.1,59.31481412925579,2024-12-01 17h20.40.193476 +0100,
17,150,90,34,None,11,11,0,False,,,,right,2.9197705860024143,None,,,,,,,,,,,,,0,11,11,11,465.85191715399924,,,,,,,,,,,,,,,,,,,,,,,,,,,,,,,,,,,,,,,,,,,,,,,,,,,,,,,,,,,,,,,,,,,,,,,,,465.8421629559998,465.85191715399924,466.85235001399997,467.8528922359983,467.8528922359983,467.8528922359983,470.7876269849985,right,2.9197705860024143,None,,,,,,,,,,,436888,001,2024-12-01_17h20.24.010,Test,2024.2.1,59.31481412925579,2024-12-01 17h20.40.193476 +0100,
27,150,150,40,None,12,12,0,False,,,,right,0.933931974999723,None,,,,,,,,,,,,,0,12,12,12,470.8024810269999,,,,,,,,,,,,,,,,,,,,,,,,,,,,,,,,,,,,,,,,,,,,,,,,,,,,,,,,,,,,,,,,,,,,,,,,,470.79114235499947,470.8024810269999,471.8025140919999,472.7871619910002,472.7871619910002,472.7871619910002,473.73818499799745,right,0.933931974999723,None,,,,,,,,,,,436888,001,2024-12-01_17h20.24.010,Test,2024.2.1,59.31481412925579,2024-12-01 17h20.40.193476 +0100,
54,150,90,45,None,13,13,0,True,,,,right,0.966775911001605,None,,,,,,,,,,,,,0,13,13,13,473.75477893199786,,,,,,,,,,,,,,,,,,,,,,,,,,,,,,,,,,,,,,,,,,,,,,,,,,,,,,,,,,,,,,,,,,,,,,,,,473.74577147499804,473.75477893199786,474.7693549479991,475.73737459699987,475.73737459699987,475.73737459699987,476.72126772499905,right,0.966775911001605,None,,,,,,,,,,,436888,001,2024-12-01_17h20.24.010,Test,2024.2.1,59.31481412925579,2024-12-01 17h20.40.193476 +0100,
1,150,0,18,None,14,14,0,False,,,,right,0.7559706850006478,None,,,,,,,,,,,,,0,14,14,14,476.73632778299725,,,,,,,,,,,,,,,,,,,,,,,,,,,,,,,,,,,,,,,,,,,,,,,,,,,,,,,,,,,,,,,,,,,,,,,,,476.7246470539976,476.73632778299725,477.7366471309979,478.7367703329983,478.7367703329983,478.7367703329983,479.50533581299896,right,0.7559706850006478,None,,,,,,,,,,,436888,001,2024-12-01_17h20.24.010,Test,2024.2.1,59.31481412925579,2024-12-01 17h20.40.193476 +0100,
58,150,120,31,None,15,15,0,True,,,,right,1.1639609159974498,None,,,,,,,,,,,,,0,15,15,15,479.52010863099713,,,,,,,,,,,,,,,,,,,,,,,,,,,,,,,,,,,,,,,,,,,,,,,,,,,,,,,,,,,,,,,,,,,,,,,,,479.511354252998,479.52010863099713,480.5200840139987,481.51975940400007,481.51975940400007,481.51975940400007,482.68902704399807,right,1.1639609159974498,None,,,,,,,,,,,436888,001,2024-12-01_17h20.24.010,Test,2024.2.1,59.31481412925579,2024-12-01 17h20.40.193476 +0100,
59,150,120,32,None,16,16,0,True,,,,right,0.7338530739980342,None,,,,,,,,,,,,,0,16,16,16,482.7054541639991,,,,,,,,,,,,,,,,,,,,,,,,,,,,,,,,,,,,,,,,,,,,,,,,,,,,,,,,,,,,,,,,,,,,,,,,,482.6964741599986,482.7054541639991,483.7199929399976,484.70377638900027,484.70377638900027,484.70377638900027,485.4542859489993,right,0.7338530739980342,None,,,,,,,,,,,436888,001,2024-12-01_17h20.24.010,Test,2024.2.1,59.31481412925579,2024-12-01 17h20.40.193476 +0100,
13,150,60,11,None,17,17,0,False,,,,left,0.8175408880015311,None,,,,,,,,,,,,,0,17,17,17,485.4699439340002,,,,,,,,,,,,,,,,,,,,,,,,,,,,,,,,,,,,,,,,,,,,,,,,,,,,,,,,,,,,,,,,,,,,,,,,,485.4589103759972,485.4699439340002,486.47151992699946,487.45398434899835,487.45398434899835,487.45398434899835,488.28849830000036,left,0.8175408880015311,None,,,,,,,,,,,436888,001,2024-12-01_17h20.24.010,Test,2024.2.1,59.31481412925579,2024-12-01 17h20.40.193476 +0100,
67,150,180,10,None,18,18,0,True,,,,left,2.121638635999261,None,,,,,,,,,,,,,0,18,18,18,488.30411744999947,,,,,,,,,,,,,,,,,,,,,,,,,,,,,,,,,,,,,,,,,,,,,,,,,,,,,,,,,,,,,,,,,,,,,,,,,488.29505443000016,488.30411744999947,489.30417413399846,490.30410903899974,490.30410903899974,490.30410903899974,492.43952181299755,left,2.121638635999261,None,,,,,,,,,,,436888,001,2024-12-01_17h20.24.010,Test,2024.2.1,59.31481412925579,2024-12-01 17h20.40.193476 +0100,
24,150,120,22,None,19,19,0,False,,,,right,1.0133239940005296,None,,,,,,,,,,,,,0,19,19,19,492.4535286809987,,,,,,,,,,,,,,,,,,,,,,,,,,,,,,,,,,,,,,,,,,,,,,,,,,,,,,,,,,,,,,,,,,,,,,,,,492.4432043409979,492.4535286809987,493.45446339099726,494.4546849929975,494.4546849929975,494.4546849929975,495.4732535589974,right,1.0133239940005296,None,,,,,,,,,,,436888,001,2024-12-01_17h20.24.010,Test,2024.2.1,59.31481412925579,2024-12-01 17h20.40.193476 +0100,
30,150,150,52,None,20,20,0,False,,,,right,0.8165576700012025,None,,,,,,,,,,,,,0,20,20,20,495.487388128,,,,,,,,,,,,,,,,,,,,,,,,,,,,,,,,,,,,,,,,,,,,,,,,,,,,,,,,,,,,,,,,,,,,,,,,,495.4770317509974,495.487388128,496.4876103429997,497.4882789689982,497.4882789689982,497.4882789689982,498.3070110619992,right,0.8165576700012025,None,,,,,,,,,,,436888,001,2024-12-01_17h20.24.010,Test,2024.2.1,59.31481412925579,2024-12-01 17h20.40.193476 +0100,
7,150,30,25,None,21,21,0,False,,,,right,0.7683183440021821,None,,,,,,,,,,,,,0,21,21,21,498.32095079899955,,,,,,,,,,,,,,,,,,,,,,,,,,,,,,,,,,,,,,,,,,,,,,,,,,,,,,,,,,,,,,,,,,,,,,,,,498.310834918997,498.32095079899955,499.32153367299907,500.32093893099955,500.32093893099955,500.32093893099955,501.10704627499945,right,0.7683183440021821,None,,,,,,,,,,,436888,001,2024-12-01_17h20.24.010,Test,2024.2.1,59.31481412925579,2024-12-01 17h20.40.193476 +0100,
3,150,0,44,None,22,22,0,False,,,,right,0.7208669329993427,None,,,,,,,,,,,,,0,22,22,22,501.12092642599964,,,,,,,,,,,,,,,,,,,,,,,,,,,,,,,,,,,,,,,,,,,,,,,,,,,,,,,,,,,,,,,,,,,,,,,,,501.1106342619969,501.12092642599964,502.1217912359971,503.12135544699777,503.12135544699777,503.12135544699777,503.8570647989982,right,0.7208669329993427,None,,,,,,,,,,,436888,001,2024-12-01_17h20.24.010,Test,2024.2.1,59.31481412925579,2024-12-01 17h20.40.193476 +0100,
11,150,60,58,None,23,23,0,False,,,,right,0.7224396640012856,None,,,,,,,,,,,,,0,23,23,23,503.87098583699844,,,,,,,,,,,,,,,,,,,,,,,,,,,,,,,,,,,,,,,,,,,,,,,,,,,,,,,,,,,,,,,,,,,,,,,,,503.8608675519972,503.87098583699844,504.87152861699724,505.87219232999996,505.87219232999996,505.87219232999996,506.60755848999906,right,0.7224396640012856,None,,,,,,,,,,,436888,001,2024-12-01_17h20.24.010,Test,2024.2.1,59.31481412925579,2024-12-01 17h20.40.193476 +0100,
28,150,150,37,None,24,24,0,False,,,,left,0.7506616749997193,None,,,,,,,,,,,,,0,24,24,24,506.62306925699886,,,,,,,,,,,,,,,,,,,,,,,,,,,,,,,,,,,,,,,,,,,,,,,,,,,,,,,,,,,,,,,,,,,,,,,,,506.61309962299856,506.62306925699886,507.63834748299996,508.6224975900004,508.6224975900004,508.6224975900004,509.3899459259992,left,0.7506616749997193,None,,,,,,,,,,,436888,001,2024-12-01_17h20.24.010,Test,2024.2.1,59.31481412925579,2024-12-01 17h20.40.193476 +0100,
6,150,30,62,None,25,25,0,False,,,,right,1.217240646998107,None,,,,,,,,,,,,,0,25,25,25,509.4055184289973,,,,,,,,,,,,,,,,,,,,,,,,,,,,,,,,,,,,,,,,,,,,,,,,,,,,,,,,,,,,,,,,,,,,,,,,,509.3952306179999,509.4055184289973,510.4051673929971,511.4050170269984,511.4050170269984,511.4050170269984,512.6252433359987,right,1.217240646998107,None,,,,,,,,,,,436888,001,2024-12-01_17h20.24.010,Test,2024.2.1,59.31481412925579,2024-12-01 17h20.40.193476 +0100,
44,150,30,2,None,26,26,0,True,,,,left,0.9879589150004904,None,,,,,,,,,,,,,0,26,26,26,512.6406464719985,,,,,,,,,,,,,,,,,,,,,,,,,,,,,,,,,,,,,,,,,,,,,,,,,,,,,,,,,,,,,,,,,,,,,,,,,512.6324853609985,512.6406464719985,513.6552703220004,514.6383926169983,514.6383926169983,514.6383926169983,515.6403773889979,left,0.9879589150004904,None,,,,,,,,,,,436888,001,2024-12-01_17h20.24.010,Test,2024.2.1,59.31481412925579,2024-12-01 17h20.40.193476 +0100,
14,150,60,3,None,27,27,0,False,,,,left,1.1688622770016082,None,,,,,,,,,,,,,0,27,27,27,515.6565875909982,,,,,,,,,,,,,,,,,,,,,,,,,,,,,,,,,,,,,,,,,,,,,,,,,,,,,,,,,,,,,,,,,,,,,,,,,515.6480730160001,515.6565875909982,516.6727872869997,517.6558866960004,517.6558866960004,517.6558866960004,518.8408325519995,left,1.1688622770016082,None,,,,,,,,,,,436888,001,2024-12-01_17h20.24.010,Test,2024.2.1,59.31481412925579,2024-12-01 17h20.40.193476 +0100,
29,150,150,8,None,28,28,0,False,,,,right,1.224971698000445,None,,,,,,,,,,,,,0,28,28,28,518.8562337209987,,,,,,,,,,,,,,,,,,,,,,,,,,,,,,,,,,,,,,,,,,,,,,,,,,,,,,,,,,,,,,,,,,,,,,,,,518.8461080109992,518.8562337209987,519.8560793069992,520.855733133998,520.855733133998,520.855733133998,522.0921061589979,right,1.224971698000445,None,,,,,,,,,,,436888,001,2024-12-01_17h20.24.010,Test,2024.2.1,59.31481412925579,2024-12-01 17h20.40.193476 +0100,
39,150,0,35,None,29,29,0,True,,,,left,1.0862328930015792,None,,,,,,,,,,,,,0,29,29,29,522.1122854749992,,,,,,,,,,,,,,,,,,,,,,,,,,,,,,,,,,,,,,,,,,,,,,,,,,,,,,,,,,,,,,,,,,,,,,,,,522.0987095219971,522.1122854749992,523.122368049997,524.1062752580001,524.1062752580001,524.1062752580001,525.208201098998,left,1.0862328930015792,None,,,,,,,,,,,436888,001,2024-12-01_17h20.24.010,Test,2024.2.1,59.31481412925579,2024-12-01 17h20.40.193476 +0100,
10,150,30,49,None,30,30,0,False,,,,left,0.7805377420008881,None,,,,,,,,,,,,,0,30,30,30,525.2244404989979,,,,,,,,,,,,,,,,,,,,,,,,,,,,,,,,,,,,,,,,,,,,,,,,,,,,,,,,,,,,,,,,,,,,,,,,,525.2139658089982,525.2244404989979,526.2390836710001,527.2229553039979,527.2229553039979,527.2229553039979,528.0086050339996,left,0.7805377420008881,None,,,,,,,,,,,436888,001,2024-12-01_17h20.24.010,Test,2024.2.1,59.31481412925579,2024-12-01 17h20.40.193476 +0100,
5,150,0,41,None,31,31,0,False,,,,left,1.0516699190011423,None,,,,,,,,,,,,,0,31,31,31,528.0224322679969,,,,,,,,,,,,,,,,,,,,,,,,,,,,,,,,,,,,,,,,,,,,,,,,,,,,,,,,,,,,,,,,,,,,,,,,,528.0131753189999,528.0224322679969,529.0232777479978,530.0230804319981,530.0230804319981,530.0230804319981,531.0914773589975,left,1.0516699190011423,None,,,,,,,,,,,436888,001,2024-12-01_17h20.24.010,Test,2024.2.1,59.31481412925579,2024-12-01 17h20.40.193476 +0100,
8,150,30,51,None,32,32,0,False,,,,right,1.316142697000032,None,,,,,,,,,,,,,0,32,32,32,531.1066722309988,,,,,,,,,,,,,,,,,,,,,,,,,,,,,,,,,,,,,,,,,,,,,,,,,,,,,,,,,,,,,,,,,,,,,,,,,531.095670065999,531.1066722309988,532.1072274839971,533.1075807239977,533.1075807239977,533.1075807239977,534.4262873679982,right,1.316142697000032,None,,,,,,,,,,,436888,001,2024-12-01_17h20.24.010,Test,2024.2.1,59.31481412925579,2024-12-01 17h20.40.193476 +0100,
31,150,180,13,None,33,33,0,False,,,,right,1.2147647379970294,None,,,,,,,,,,,,,0,33,33,33,534.4408051379978,,,,,,,,,,,,,,,,,,,,,,,,,,,,,,,,,,,,,,,,,,,,,,,,,,,,,,,,,,,,,,,,,,,,,,,,,534.4319804989973,534.4408051379978,535.440412603999,536.4403338899974,536.4403338899974,536.4403338899974,537.6595706349981,right,1.2147647379970294,None,,,,,,,,,,,436888,001,2024-12-01_17h20.24.010,Test,2024.2.1,59.31481412925579,2024-12-01 17h20.40.193476 +0100,
34,150,180,20,None,34,34,0,False,,,,right,0.871971205000591,None,,,,,,,,,,,,,0,34,34,34,537.6762527689971,,,,,,,,,,,,,,,,,,,,,,,,,,,,,,,,,,,,,,,,,,,,,,,,,,,,,,,,,,,,,,,,,,,,,,,,,537.6668406549979,537.6762527689971,538.6903891820002,539.6742482619993,539.6742482619993,539.6742482619993,540.5586773029972,right,0.871971205000591,None,,,,,,,,,,,436888,001,2024-12-01_17h20.24.010,Test,2024.2.1,59.31481412925579,2024-12-01 17h20.40.193476 +0100,
32,150,180,24,None,35,35,0,False,,,,right,1.0142752880019543,None,,,,,,,,,,,,,0,35,35,35,540.5737440099983,,,,,,,,,,,,,,,,,,,,,,,,,,,,,,,,,,,,,,,,,,,,,,,,,,,,,,,,,,,,,,,,,,,,,,,,,540.5633701749975,540.5737440099983,541.5736935009991,542.5739200899989,542.5739200899989,542.5739200899989,543.5933756969971,right,1.0142752880019543,None,,,,,,,,,,,436888,001,2024-12-01_17h20.24.010,Test,2024.2.1,59.31481412925579,2024-12-01 17h20.40.193476 +0100,
57,150,120,43,None,36,36,0,True,,,,right,1.0056196919977083,None,,,,,,,,,,,,,0,36,36,36,543.6082783409984,,,,,,,,,,,,,,,,,,,,,,,,,,,,,,,,,,,,,,,,,,,,,,,,,,,,,,,,,,,,,,,,,,,,,,,,,543.5993383479981,543.6082783409984,544.6072252929989,545.6077992229984,545.6077992229984,545.6077992229984,546.6256910419979,right,1.0056196919977083,None,,,,,,,,,,,436888,001,2024-12-01_17h20.24.010,Test,2024.2.1,59.31481412925579,2024-12-01 17h20.40.193476 +0100,
63,150,150,70,None,37,37,0,True,,,,left,1.755504029999429,None,,,,,,,,,,,,,0,37,37,37,546.641009404997,,,,,,,,,,,,,,,,,,,,,,,,,,,,,,,,,,,,,,,,,,,,,,,,,,,,,,,,,,,,,,,,,,,,,,,,,546.6311248719976,546.641009404997,547.6411088809982,548.6247414379977,548.6247414379977,548.6247414379977,550.393746382997,left,1.755504029999429,None,,,,,,,,,,,436888,001,2024-12-01_17h20.24.010,Test,2024.2.1,59.31481412925579,2024-12-01 17h20.40.193476 +0100,
60,150,120,63,None,38,38,0,True,,,,left,0.9669404630003555,None,,,,,,,,,,,,,0,38,38,38,550.4100241589986,,,,,,,,,,,,,,,,,,,,,,,,,,,,,,,,,,,,,,,,,,,,,,,,,,,,,,,,,,,,,,,,,,,,,,,,,550.4010097459977,550.4100241589986,551.4251661509988,552.4083373609974,552.4083373609974,552.4083373609974,553.3777139220001,left,0.9669404630003555,None,,,,,,,,,,,436888,001,2024-12-01_17h20.24.010,Test,2024.2.1,59.31481412925579,2024-12-01 17h20.40.193476 +0100,
22,150,120,36,None,39,39,0,False,,,,left,0.8978786289990239,None,,,,,,,,,,,,,0,39,39,39,553.3922814109974,,,,,,,,,,,,,,,,,,,,,,,,,,,,,,,,,,,,,,,,,,,,,,,,,,,,,,,,,,,,,,,,,,,,,,,,,553.3827923219978,553.3922814109974,554.392752290998,555.3923567210004,555.3923567210004,555.3923567210004,556.2949139470002,left,0.8978786289990239,None,,,,,,,,,,,436888,001,2024-12-01_17h20.24.010,Test,2024.2.1,59.31481412925579,2024-12-01 17h20.40.193476 +0100,
38,150,0,64,None,40,40,0,True,,,,left,0.9590565920007066,None,,,,,,,,,,,,,0,40,40,40,556.3097708369969,,,,,,,,,,,,,,,,,,,,,,,,,,,,,,,,,,,,,,,,,,,,,,,,,,,,,,,,,,,,,,,,,,,,,,,,,556.3005831339979,556.3097708369969,557.3090703509988,558.3085662239973,558.3085662239973,558.3085662239973,559.2770512939969,left,0.9590565920007066,None,,,,,,,,,,,436888,001,2024-12-01_17h20.24.010,Test,2024.2.1,59.31481412925579,2024-12-01 17h20.40.193476 +0100,
48,150,60,14,None,41,41,0,True,,,,left,0.9487311029988632,None,,,,,,,,,,,,,0,41,41,41,559.2917515629997,,,,,,,,,,,,,,,,,,,,,,,,,,,,,,,,,,,,,,,,,,,,,,,,,,,,,,,,,,,,,,,,,,,,,,,,,559.2827645189973,559.2917515629997,560.2920592899973,561.291611548997,561.291611548997,561.291611548997,562.2448477979997,left,0.9487311029988632,None,,,,,,,,,,,436888,001,2024-12-01_17h20.24.010,Test,2024.2.1,59.31481412925579,2024-12-01 17h20.40.193476 +0100,
61,150,150,65,None,42,42,0,True,,,,left,1.3437392160012678,None,,,,,,,,,,,,,0,42,42,42,562.2593561199974,,,,,,,,,,,,,,,,,,,,,,,,,,,,,,,,,,,,,,,,,,,,,,,,,,,,,,,,,,,,,,,,,,,,,,,,,562.2506021089976,562.2593561199974,563.2594375799999,564.258818413,564.258818413,564.258818413,565.611196480997,left,1.3437392160012678,None,,,,,,,,,,,436888,001,2024-12-01_17h20.24.010,Test,2024.2.1,59.31481412925579,2024-12-01 17h20.40.193476 +0100,
64,150,150,26,None,43,43,0,True,,,,right,0.9712936690011702,None,,,,,,,,,,,,,0,43,43,43,565.6263588689981,,,,,,,,,,,,,,,,,,,,,,,,,,,,,,,,,,,,,,,,,,,,,,,,,,,,,,,,,,,,,,,,,,,,,,,,,565.6174474809995,565.6263588689981,566.6268587859995,567.6092888860003,567.6092888860003,567.6092888860003,568.5949723769991,right,0.9712936690011702,None,,,,,,,,,,,436888,001,2024-12-01_17h20.24.010,Test,2024.2.1,59.31481412925579,2024-12-01 17h20.40.193476 +0100,
45,150,30,60,None,44,44,0,True,,,,right,0.9675245979997271,None,,,,,,,,,,,,,0,44,44,44,568.6148386159985,,,,,,,,,,,,,,,,,,,,,,,,,,,,,,,,,,,,,,,,,,,,,,,,,,,,,,,,,,,,,,,,,,,,,,,,,568.601157314999,568.6148386159985,569.6257497240003,570.6092804239997,570.6092804239997,570.6092804239997,571.594851075999,right,0.9675245979997271,None,,,,,,,,,,,436888,001,2024-12-01_17h20.24.010,Test,2024.2.1,59.31481412925579,2024-12-01 17h20.40.193476 +0100,
26,150,150,38,None,45,45,0,False,,,,right,2.6806086220021825,None,,,,,,,,,,,,,0,45,45,45,571.6116062479996,,,,,,,,,,,,,,,,,,,,,,,,,,,,,,,,,,,,,,,,,,,,,,,,,,,,,,,,,,,,,,,,,,,,,,,,,571.6026729080004,571.6116062479996,572.627316266,573.6098235709978,573.6098235709978,573.6098235709978,576.2954457669985,right,2.6806086220021825,None,,,,,,,,,,,436888,001,2024-12-01_17h20.24.010,Test,2024.2.1,59.31481412925579,2024-12-01 17h20.40.193476 +0100,
12,150,60,17,None,46,46,0,False,,,,left,1.3733059610021883,None,,,,,,,,,,,,,0,46,46,46,576.3104651089998,,,,,,,,,,,,,,,,,,,,,,,,,,,,,,,,,,,,,,,,,,,,,,,,,,,,,,,,,,,,,,,,,,,,,,,,,576.3009829869989,576.3104651089998,577.3101444089989,578.309744754999,578.309744754999,578.309744754999,579.6952502219974,left,1.3733059610021883,None,,,,,,,,,,,436888,001,2024-12-01_17h20.24.010,Test,2024.2.1,59.31481412925579,2024-12-01 17h20.40.193476 +0100,
15,150,60,57,None,47,47,0,False,,,,left,1.0445589869996184,None,,,,,,,,,,,,,0,47,47,47,579.7106576669976,,,,,,,,,,,,,,,,,,,,,,,,,,,,,,,,,,,,,,,,,,,,,,,,,,,,,,,,,,,,,,,,,,,,,,,,,579.7010223149991,579.7106576669976,580.7109060149996,581.7099939250002,581.7099939250002,581.7099939250002,582.7622798949997,left,1.0445589869996184,None,,,,,,,,,,,436888,001,2024-12-01_17h20.24.010,Test,2024.2.1,59.31481412925579,2024-12-01 17h20.40.193476 +0100,
70,150,180,66,None,48,48,0,True,,,,left,1.0880524649983272,None,,,,,,,,,,,,,0,48,48,48,582.7770570239991,,,,,,,,,,,,,,,,,,,,,,,,,,,,,,,,,,,,,,,,,,,,,,,,,,,,,,,,,,,,,,,,,,,,,,,,,582.7682890649994,582.7770570239991,583.7772181699984,584.7770030879983,584.7770030879983,584.7770030879983,585.879259688998,left,1.0880524649983272,None,,,,,,,,,,,436888,001,2024-12-01_17h20.24.010,Test,2024.2.1,59.31481412925579,2024-12-01 17h20.40.193476 +0100,
37,150,0,6,None,49,49,0,True,,,,left,1.1009015960007673,None,,,,,,,,,,,,,0,49,49,49,585.8946640579998,,,,,,,,,,,,,,,,,,,,,,,,,,,,,,,,,,,,,,,,,,,,,,,,,,,,,,,,,,,,,,,,,,,,,,,,,585.8853118949992,585.8946640579998,586.8939974889981,587.8782775839973,587.8782775839973,587.8782775839973,588.995577619,left,1.1009015960007673,None,,,,,,,,,,,436888,001,2024-12-01_17h20.24.010,Test,2024.2.1,59.31481412925579,2024-12-01 17h20.40.193476 +0100,
41,150,30,48,None,50,50,0,True,,,,left,1.684817227000167,None,,,,,,,,,,,,,0,50,50,50,589.0115417639972,,,,,,,,,,,,,,,,,,,,,,,,,,,,,,,,,,,,,,,,,,,,,,,,,,,,,,,,,,,,,,,,,,,,,,,,,589.0016866449987,589.0115417639972,590.0106153339984,590.9945546589988,590.9945546589988,590.9945546589988,592.6960434590001,left,1.684817227000167,None,,,,,,,,,,,436888,001,2024-12-01_17h20.24.010,Test,2024.2.1,59.31481412925579,2024-12-01 17h20.40.193476 +0100,
2,150,0,23,None,51,51,0,False,,,,right,1.3358386930012784,None,,,,,,,,,,,,,0,51,51,51,592.7122385459988,,,,,,,,,,,,,,,,,,,,,,,,,,,,,,,,,,,,,,,,,,,,,,,,,,,,,,,,,,,,,,,,,,,,,,,,,592.7029299869973,592.7122385459988,593.7113455439976,594.6953884079994,594.6953884079994,594.6953884079994,596.0470349499992,right,1.3358386930012784,None,,,,,,,,,,,436888,001,2024-12-01_17h20.24.010,Test,2024.2.1,59.31481412925579,2024-12-01 17h20.40.193476 +0100,
68,150,180,29,None,52,52,0,True,,,,right,7.207867731998704,None,,,,,,,,,,,,,0,52,52,52,596.0634695599983,,,,,,,,,,,,,,,,,,,,,,,,,,,,,,,,,,,,,,,,,,,,,,,,,,,,,,,,,,,,,,,,,,,,,,,,,596.0542736289972,596.0634695599983,597.0784134239984,598.0616974509976,598.0616974509976,598.0616974509976,605.2800134369973,right,7.207867731998704,None,601.0617666809994,601.0617666809994,601.0617666809994,,,,,,,,436888,001,2024-12-01_17h20.24.010,Test,2024.2.1,59.31481412925579,2024-12-01 17h20.40.193476 +0100,
23,150,120,53,None,53,53,0,False,,,,right,1.0010387799993623,None,,,,,,,,,,,,,0,53,53,53,605.2955909979974,,,,,,,,,,,,,,,,,,,,,,,,,,,,,,,,,,,,,,,,,,,,,,,,,,,,,,,,,,,,,,,,,,,,,,,,,605.2867779039989,605.2955909979974,606.2958075589995,607.2788156679999,607.2788156679999,607.2788156679999,608.2970381209998,right,1.0010387799993623,None,,,,,,,,,,,436888,001,2024-12-01_17h20.24.010,Test,2024.2.1,59.31481412925579,2024-12-01 17h20.40.193476 +0100,
33,150,180,69,None,54,54,0,False,,,,right,1.2094793120013492,None,,,,,,,,,,,,,0,54,54,54,608.3118635889987,,,,,,,,,,,,,,,,,,,,,,,,,,,,,,,,,,,,,,,,,,,,,,,,,,,,,,,,,,,,,,,,,,,,,,,,,608.3024813569973,608.3118635889987,609.3116806279977,610.3124162819986,610.3124162819986,610.3124162819986,611.5301158849979,right,1.2094793120013492,None,,,,,,,,,,,436888,001,2024-12-01_17h20.24.010,Test,2024.2.1,59.31481412925579,2024-12-01 17h20.40.193476 +0100,
20,150,90,30,None,55,55,0,False,,,,right,1.183886879000056,None,,,,,,,,,,,,,0,55,55,55,611.5453019889974,,,,,,,,,,,,,,,,,,,,,,,,,,,,,,,,,,,,,,,,,,,,,,,,,,,,,,,,,,,,,,,,,,,,,,,,,611.5359610739979,611.5453019889974,612.5460128119994,613.546624757997,613.546624757997,613.546624757997,614.7473742099974,right,1.183886879000056,None,,,,,,,,,,,436888,001,2024-12-01_17h20.24.010,Test,2024.2.1,59.31481412925579,2024-12-01 17h20.40.193476 +0100,
69,150,180,9,None,56,56,0,True,,,,right,1.007060926000122,None,,,,,,,,,,,,,0,56,56,56,614.7626321709977,,,,,,,,,,,,,,,,,,,,,,,,,,,,,,,,,,,,,,,,,,,,,,,,,,,,,,,,,,,,,,,,,,,,,,,,,614.7536070869974,614.7626321709977,615.762884664,616.7629454999988,616.7629454999988,616.7629454999988,617.7805780059971,right,1.007060926000122,None,,,,,,,,,,,436888,001,2024-12-01_17h20.24.010,Test,2024.2.1,59.31481412925579,2024-12-01 17h20.40.193476 +0100,
35,150,180,59,None,57,57,0,False,,,,left,1.0970463680023386,None,,,,,,,,,,,,,0,57,57,57,617.7963775379976,,,,,,,,,,,,,,,,,,,,,,,,,,,,,,,,,,,,,,,,,,,,,,,,,,,,,,,,,,,,,,,,,,,,,,,,,617.7873451300002,617.7963775379976,618.7963564759993,619.779559655999,619.779559655999,619.779559655999,620.8823115209998,left,1.0970463680023386,None,,,,,,,,,,,436888,001,2024-12-01_17h20.24.010,Test,2024.2.1,59.31481412925579,2024-12-01 17h20.40.193476 +0100,
42,150,30,27,None,58,58,0,True,,,,left,1.5138721399998758,None,,,,,,,,,,,,,0,58,58,58,620.8975138759997,,,,,,,,,,,,,,,,,,,,,,,,,,,,,,,,,,,,,,,,,,,,,,,,,,,,,,,,,,,,,,,,,,,,,,,,,620.8877436080002,620.8975138759997,621.9126045259982,622.8967214129989,622.8967214129989,622.8967214129989,624.4157784149975,left,1.5138721399998758,None,,,,,,,,,,,436888,001,2024-12-01_17h20.24.010,Test,2024.2.1,59.31481412925579,2024-12-01 17h20.40.193476 +0100,
50,150,60,28,None,59,59,0,True,,,,right,1.37270786499721,None,,,,,,,,,,,,,0,59,59,59,624.430289912998,,,,,,,,,,,,,,,,,,,,,,,,,,,,,,,,,,,,,,,,,,,,,,,,,,,,,,,,,,,,,,,,,,,,,,,,,624.4209723549975,624.430289912998,625.4305066839988,626.4299488010001,626.4299488010001,626.4299488010001,627.8149767859977,right,1.37270786499721,None,,,,,,,,,,,436888,001,2024-12-01_17h20.24.010,Test,2024.2.1,59.31481412925579,2024-12-01 17h20.40.193476 +0100,
18,150,90,19,None,60,60,0,False,,,,left,1.072674987000937,None,,,,,,,,,,,,,0,60,60,60,627.8298456319972,,,,,,,,,,,,,,,,,,,,,,,,,,,,,,,,,,,,,,,,,,,,,,,,,,,,,,,,,,,,,,,,,,,,,,,,,627.8207456669988,627.8298456319972,628.8300232889997,629.814563574997,629.814563574997,629.814563574997,630.8987176249975,left,1.072674987000937,None,,,,,,,,,,,436888,001,2024-12-01_17h20.24.010,Test,2024.2.1,59.31481412925579,2024-12-01 17h20.40.193476 +0100,
25,150,120,50,None,61,61,0,False,,,,right,2.039949941001396,None,,,,,,,,,,,,,0,61,61,61,630.9134893640003,,,,,,,,,,,,,,,,,,,,,,,,,,,,,,,,,,,,,,,,,,,,,,,,,,,,,,,,,,,,,,,,,,,,,,,,,630.904210384997,630.9134893640003,631.9135321569993,632.8982140139997,632.8982140139997,632.8982140139997,634.9483183669981,right,2.039949941001396,None,,,,,,,,,,,436888,001,2024-12-01_17h20.24.010,Test,2024.2.1,59.31481412925579,2024-12-01 17h20.40.193476 +0100,
49,150,60,21,None,62,62,0,True,,,,left,0.8503590130021621,None,,,,,,,,,,,,,0,62,62,62,634.9633696499986,,,,,,,,,,,,,,,,,,,,,,,,,,,,,,,,,,,,,,,,,,,,,,,,,,,,,,,,,,,,,,,,,,,,,,,,,634.954286840999,634.9633696499986,635.9652843969998,636.9641330249979,636.9641330249979,636.9641330249979,637.8182975849995,left,0.8503590130021621,None,,,,,,,,,,,436888,001,2024-12-01_17h20.24.010,Test,2024.2.1,59.31481412925579,2024-12-01 17h20.40.193476 +0100,
52,150,90,55,None,63,63,0,True,,,,left,1.0836513050016947,None,,,,,,,,,,,,,0,63,63,63,637.8341154089976,,,,,,,,,,,,,,,,,,,,,,,,,,,,,,,,,,,,,,,,,,,,,,,,,,,,,,,,,,,,,,,,,,,,,,,,,637.8260374719976,637.8341154089976,638.8473720330003,639.8311776979972,639.8311776979972,639.8311776979972,640.9171204419981,left,1.0836513050016947,None,,,,,,,,,,,436888,001,2024-12-01_17h20.24.010,Test,2024.2.1,59.31481412925579,2024-12-01 17h20.40.193476 +0100,
53,150,90,39,None,64,64,0,True,,,,right,1.3171740129982936,None,,,,,,,,,,,,,0,64,64,64,640.9318521419991,,,,,,,,,,,,,,,,,,,,,,,,,,,,,,,,,,,,,,,,,,,,,,,,,,,,,,,,,,,,,,,,,,,,,,,,,640.9229322989995,640.9318521419991,641.9314089679974,642.9309983239982,642.9309983239982,642.9309983239982,644.2502029879979,right,1.3171740129982936,None,,,,,,,,,,,436888,001,2024-12-01_17h20.24.010,Test,2024.2.1,59.31481412925579,2024-12-01 17h20.40.193476 +0100,
56,150,120,16,None,65,65,0,True,,,,left,1.2475182529997255,None,,,,,,,,,,,,,0,65,65,65,644.2664924059973,,,,,,,,,,,,,,,,,,,,,,,,,,,,,,,,,,,,,,,,,,,,,,,,,,,,,,,,,,,,,,,,,,,,,,,,,644.2571566509978,644.2664924059973,645.2816400019983,646.2645309289983,646.2645309289983,646.2645309289983,647.5168320979974,left,1.2475182529997255,None,,,,,,,,,,,436888,001,2024-12-01_17h20.24.010,Test,2024.2.1,59.31481412925579,2024-12-01 17h20.40.193476 +0100,
55,150,90,67,None,66,66,0,True,,,,left,0.855655151000974,None,,,,,,,,,,,,,0,66,66,66,647.5320079369994,,,,,,,,,,,,,,,,,,,,,,,,,,,,,,,,,,,,,,,,,,,,,,,,,,,,,,,,,,,,,,,,,,,,,,,,,647.5229452079984,647.5320079369994,648.5319355499996,649.5313088149996,649.5313088149996,649.5313088149996,650.3994229809978,left,0.855655151000974,None,,,,,,,,,,,436888,001,2024-12-01_17h20.24.010,Test,2024.2.1,59.31481412925579,2024-12-01 17h20.40.193476 +0100,
47,150,60,7,None,67,67,0,True,,,,left,1.0349537639995106,None,,,,,,,,,,,,,0,67,67,67,650.4147813169984,,,,,,,,,,,,,,,,,,,,,,,,,,,,,,,,,,,,,,,,,,,,,,,,,,,,,,,,,,,,,,,,,,,,,,,,,650.4056138409978,650.4147813169984,651.4158959790002,652.415220871997,652.415220871997,652.415220871997,653.4661931839983,left,1.0349537639995106,None,,,,,,,,,,,436888,001,2024-12-01_17h20.24.010,Test,2024.2.1,59.31481412925579,2024-12-01 17h20.40.193476 +0100,
66,150,180,33,None,68,68,0,True,,,,left,1.0508464859995001,None,,,,,,,,,,,,,0,68,68,68,653.4811913989979,,,,,,,,,,,,,,,,,,,,,,,,,,,,,,,,,,,,,,,,,,,,,,,,,,,,,,,,,,,,,,,,,,,,,,,,,653.4716918669983,653.4811913989979,654.4816839300001,655.4655551949982,655.4655551949982,655.4655551949982,656.5334870650004,left,1.0508464859995001,None,,,,,,,,,,,436888,001,2024-12-01_17h20.24.010,Test,2024.2.1,59.31481412925579,2024-12-01 17h20.40.193476 +0100,
40,150,0,54,None,69,69,0,True,,,,left,0.7658703930028423,None,,,,,,,,,,,,,0,69,69,69,656.5489441459977,,,,,,,,,,,,,,,,,,,,,,,,,,,,,,,,,,,,,,,,,,,,,,,,,,,,,,,,,,,,,,,,,,,,,,,,,656.5410358209992,656.5489441459977,657.5496157540001,658.5487956679972,658.5487956679972,658.5487956679972,659.3189098919975,left,0.7658703930028423,None,,,,,,,,,,,436888,001,2024-12-01_17h20.24.010,Test,2024.2.1,59.31481412925579,2024-12-01 17h20.40.193476 +0100,
,,,,,,,,,,,,,,,,,,,,,,,,,,,,,,,,,,,,,,,,,,,,,,,,,,,,,,,,,,,,,,,,,,,,,,,,,,,,,,,,,,,,,,,,,,,,,,,,,,,,,,,,,,,,,,,,,,,,,659.3192467779991,659.3318993239991,659.3318993239991,662.417905893999,space,3.072713716999715,None,436888,001,2024-12-01_17h20.24.010,Test,2024.2.1,59.31481412925579,2024-12-01 17h20.40.193476 +0100,
