Trial_Number,Exposure_Duration,Displacement_Angle,Stimulus,Response,thisN,thisTrialN,thisRepN,Is_Distractor,key_resp_3.keys,key_resp_3.rt,key_resp_3.duration,key_resp_7.keys,key_resp_7.rt,key_resp_7.duration,trials.thisRepN,trials.thisTrialN,trials.thisN,trials.thisIndex,trials_2.thisRepN,trials_2.thisTrialN,trials_2.thisN,trials_2.thisIndex,trials_3.thisRepN,trials_3.thisTrialN,trials_3.thisN,trials_3.thisIndex,trials_4.thisRepN,trials_4.thisTrialN,trials_4.thisN,trials_4.thisIndex,thisRow.t,notes,Intro_to_experiment.started,important1_2.started,key_resp_8.started,Intro_to_experiment.stopped,key_resp_8.keys,key_resp_8.rt,key_resp_8.duration,important.started,important1.started,key_resp_4.started,important.stopped,key_resp_4.keys,key_resp_4.rt,key_resp_4.duration,training_instruction.started,key_resp_9.started,important1_3.started,training_instruction.stopped,key_resp_9.keys,key_resp_9.rt,key_resp_9.duration,training_trial.started,cross.started,image.started,aperture.started,cross.stopped,image.stopped,aperture.stopped,training_trial.stopped,New_instruction.started,text.started,key_resp_2.started,New_instruction.stopped,key_resp_2.keys,key_resp_2.rt,key_resp_2.duration,test_trial.started,cross2.started,cross2.stopped,image_2.started,key_resp_3.started,aperture_2.started,test_trial.stopped,trials_2.key_resp_3.keys,trials_2.key_resp_3.rt,trials_2.key_resp_3.duration,start_blok_2.started,key_resp_5.started,text_4.started,start_blok_2.stopped,key_resp_5.keys,key_resp_5.rt,key_resp_5.duration,training_2.started,cross_2.started,image_3.started,aperture_3.started,cross_2.stopped,image_3.stopped,aperture_3.stopped,training_2.stopped,nyeste_instruks.started,text_5.started,key_resp_6.started,nyeste_instruks.stopped,key_resp_6.keys,key_resp_6.rt,key_resp_6.duration,test_2.started,cross2_2.started,cross2_2.stopped,image_4.started,key_resp_7.started,aperture_4.started,test_2.stopped,trials_4.key_resp_7.keys,trials_4.key_resp_7.rt,trials_4.key_resp_7.duration,image_4.stopped,text_6.started,aperture_4.stopped,Instruction.started,Instruktion.started,key_resp.started,Instruction.stopped,key_resp.keys,key_resp.rt,key_resp.duration,participant,session,date,expName,psychopyVersion,frameRate,expStart,
,,,,,,,,,,,,,,,,,,,,,,,,,,,,,,,,,0.006753917026799172,0.01985575002618134,0.01985575002618134,69.8358585840324,space,69.81178220798029,None,,,,,,,,,,,,,,,,,,,,,,,,,,,,,,,,,,,,,,,,,,,,,,,,,,,,,,,,,,,,,,,,,,,,,,,,,,,,,,,,,,455631,001,2024-12-05_12h22.47.234,Test,2024.2.4,None,2024-12-05 12h22.56.208615 +0100,
,,,,,,,,,,,,,,,,,,,,,,,,,,,,,,,,,,,,,,,,69.83627354202326,69.89160745899426,69.89160745899426,82.53381429199362,space,12.626059333968442,None,,,,,,,,,,,,,,,,,,,,,,,,,,,,,,,,,,,,,,,,,,,,,,,,,,,,,,,,,,,,,,,,,,,,,,,,,,,455631,001,2024-12-05_12h22.47.234,Test,2024.2.4,None,2024-12-05 12h22.56.208615 +0100,
,,,,,,,,,,,,,,,,,,,,,,,,,,,,,,,,,,,,,,,,,,,,,,,82.5338882500073,82.54212662501959,82.54212662501959,92.17954345903127,space,9.635166249994654,None,,,,,,,,,,,,,,,,,,,,,,,,,,,,,,,,,,,,,,,,,,,,,,,,,,,,,,,,,,,,,,,,,,,,455631,001,2024-12-05_12h22.47.234,Test,2024.2.4,None,2024-12-05 12h22.56.208615 +0100,
7,150,30,46,None,0,0,0,,,,,,,,0,0,0,6,,,,,,,,,,,,,92.23524141701637,,,,,,,,,,,,,,,,,,,,,,,92.22893520904472,92.23524141701637,92.37634262500796,92.37634262500796,92.43023245903896,94.0759348749998,94.0759348749998,94.06137100001797,,,,,,,,,,,,,,,,,,,,,,,,,,,,,,,,,,,,,,,,,,,,,,,,,,,,,,,,,,,,455631,001,2024-12-05_12h22.47.234,Test,2024.2.4,None,2024-12-05 12h22.56.208615 +0100,
1,150,0,52,None,1,1,0,,,,,,,,0,1,1,0,,,,,,,,,,,,,94.0759348749998,,,,,,,,,,,,,,,,,,,,,,,94.07148233399494,94.07968304201495,94.27726883400464,94.27726883400464,94.27726883400464,95.97605862503406,95.97605862503406,95.9612997090444,,,,,,,,,,,,,,,,,,,,,,,,,,,,,,,,,,,,,,,,,,,,,,,,,,,,,,,,,,,,455631,001,2024-12-05_12h22.47.234,Test,2024.2.4,None,2024-12-05 12h22.56.208615 +0100,
30,150,150,65,None,2,2,0,,,,,,,,0,2,2,29,,,,,,,,,,,,,95.97605862503406,,,,,,,,,,,,,,,,,,,,,,,95.97097825002857,95.98076779203257,96.17710170900682,96.17710170900682,96.17710170900682,97.87627433403395,97.87627433403395,97.86141354200663,,,,,,,,,,,,,,,,,,,,,,,,,,,,,,,,,,,,,,,,,,,,,,,,,,,,,,,,,,,,455631,001,2024-12-05_12h22.47.234,Test,2024.2.4,None,2024-12-05 12h22.56.208615 +0100,
31,150,180,5,None,3,3,0,,,,,,,,0,3,3,30,,,,,,,,,,,,,97.87627433403395,,,,,,,,,,,,,,,,,,,,,,,97.8716867500334,97.88028074998874,98.07719325000653,98.07719325000653,98.07719325000653,99.77595237502828,99.77595237502828,99.76150075002806,,,,,,,,,,,,,,,,,,,,,,,,,,,,,,,,,,,,,,,,,,,,,,,,,,,,,,,,,,,,455631,001,2024-12-05_12h22.47.234,Test,2024.2.4,None,2024-12-05 12h22.56.208615 +0100,
28,150,150,30,None,4,4,0,,,,,,,,0,4,4,27,,,,,,,,,,,,,99.77595237502828,,,,,,,,,,,,,,,,,,,,,,,99.77096554200398,99.78019579203101,99.97711224999512,99.97711224999512,99.97711224999512,101.67681354202796,101.67681354202796,101.66144620900741,,,,,,,,,,,,,,,,,,,,,,,,,,,,,,,,,,,,,,,,,,,,,,,,,,,,,,,,,,,,455631,001,2024-12-05_12h22.47.234,Test,2024.2.4,None,2024-12-05 12h22.56.208615 +0100,
24,150,120,40,None,5,5,0,,,,,,,,0,5,5,23,,,,,,,,,,,,,101.67681354202796,,,,,,,,,,,,,,,,,,,,,,,101.67183379200287,101.68092770903604,101.87717362499097,101.87717362499097,101.87717362499097,103.57659079204313,103.57659079204313,103.56155229202705,,,,,,,,,,,,,,,,,,,,,,,,,,,,,,,,,,,,,,,,,,,,,,,,,,,,,,,,,,,,455631,001,2024-12-05_12h22.47.234,Test,2024.2.4,None,2024-12-05 12h22.56.208615 +0100,
6,150,30,57,None,6,6,0,,,,,,,,0,6,6,5,,,,,,,,,,,,,103.57659079204313,,,,,,,,,,,,,,,,,,,,,,,103.57162512501236,103.5806295000366,103.77719270903617,103.77719270903617,103.77719270903617,105.47537141700741,105.47537141700741,105.461434249999,,,,,,,,,,,,,,,,,,,,,,,,,,,,,,,,,,,,,,,,,,,,,,,,,,,,,,,,,,,,455631,001,2024-12-05_12h22.47.234,Test,2024.2.4,None,2024-12-05 12h22.56.208615 +0100,
5,150,0,49,None,7,7,0,,,,,,,,0,7,7,4,,,,,,,,,,,,,105.47537141700741,,,,,,,,,,,,,,,,,,,,,,,105.47029529203428,105.4796432920266,105.67707450001035,105.67707450001035,105.67707450001035,107.37635216698982,107.37635216698982,107.36137279198738,,,,,,,,,,,,,,,,,,,,,,,,,,,,,,,,,,,,,,,,,,,,,,,,,,,,,,,,,,,,455631,001,2024-12-05_12h22.47.234,Test,2024.2.4,None,2024-12-05 12h22.56.208615 +0100,
11,150,60,64,None,8,8,0,,,,,,,,0,8,8,10,,,,,,,,,,,,,107.37635216698982,,,,,,,,,,,,,,,,,,,,,,,107.3710148340324,107.38004391704453,107.5772018340067,107.5772018340067,107.5772018340067,109.276650084008,109.276650084008,109.26163262501359,,,,,,,,,,,,,,,,,,,,,,,,,,,,,,,,,,,,,,,,,,,,,,,,,,,,,,,,,,,,455631,001,2024-12-05_12h22.47.234,Test,2024.2.4,None,2024-12-05 12h22.56.208615 +0100,
19,150,90,45,None,9,9,0,,,,,,,,0,9,9,18,,,,,,,,,,,,,109.276650084008,,,,,,,,,,,,,,,,,,,,,,,109.2713474589982,109.28040337504353,109.47727208404103,109.47727208404103,109.47727208404103,111.17516791704111,111.17516791704111,111.16136333398754,,,,,,,,,,,,,,,,,,,,,,,,,,,,,,,,,,,,,,,,,,,,,,,,,,,,,,,,,,,,455631,001,2024-12-05_12h22.47.234,Test,2024.2.4,None,2024-12-05 12h22.56.208615 +0100,
15,150,60,20,None,10,10,0,,,,,,,,0,10,10,14,,,,,,,,,,,,,111.17516791704111,,,,,,,,,,,,,,,,,,,,,,,111.17019379202975,111.17911129200365,111.37715545902029,111.37715545902029,111.37715545902029,113.07588862499688,113.07588862499688,113.06143995904131,,,,,,,,,,,,,,,,,,,,,,,,,,,,,,,,,,,,,,,,,,,,,,,,,,,,,,,,,,,,455631,001,2024-12-05_12h22.47.234,Test,2024.2.4,None,2024-12-05 12h22.56.208615 +0100,
26,150,150,17,None,11,11,0,,,,,,,,0,11,11,25,,,,,,,,,,,,,113.07588862499688,,,,,,,,,,,,,,,,,,,,,,,113.07086670899298,113.08010416699108,113.27720558398869,113.27720558398869,113.27720558398869,114.97508779203054,114.97508779203054,114.96119466703385,,,,,,,,,,,,,,,,,,,,,,,,,,,,,,,,,,,,,,,,,,,,,,,,,,,,,,,,,,,,455631,001,2024-12-05_12h22.47.234,Test,2024.2.4,None,2024-12-05 12h22.56.208615 +0100,
27,150,150,44,None,12,12,0,,,,,,,,0,12,12,26,,,,,,,,,,,,,114.97508779203054,,,,,,,,,,,,,,,,,,,,,,,114.97005662502488,114.97987350000767,115.17722608399345,115.17722608399345,115.17722608399345,116.87471129203914,116.87471129203914,116.8614224169869,,,,,,,,,,,,,,,,,,,,,,,,,,,,,,,,,,,,,,,,,,,,,,,,,,,,,,,,,,,,455631,001,2024-12-05_12h22.47.234,Test,2024.2.4,None,2024-12-05 12h22.56.208615 +0100,
17,150,90,50,None,13,13,0,,,,,,,,0,13,13,16,,,,,,,,,,,,,116.87471129203914,,,,,,,,,,,,,,,,,,,,,,,116.86977200000547,116.87950929201907,117.0771314590238,117.0771314590238,117.0771314590238,118.77565770898946,118.77565770898946,118.76147295901319,,,,,,,,,,,,,,,,,,,,,,,,,,,,,,,,,,,,,,,,,,,,,,,,,,,,,,,,,,,,455631,001,2024-12-05_12h22.47.234,Test,2024.2.4,None,2024-12-05 12h22.56.208615 +0100,
18,150,90,43,None,14,14,0,,,,,,,,0,14,14,17,,,,,,,,,,,,,118.77565770898946,,,,,,,,,,,,,,,,,,,,,,,118.77061383402906,118.78065212501679,118.97723129199585,118.97723129199585,118.97723129199585,120.67486483399989,120.67486483399989,120.66157329198904,,,,,,,,,,,,,,,,,,,,,,,,,,,,,,,,,,,,,,,,,,,,,,,,,,,,,,,,,,,,455631,001,2024-12-05_12h22.47.234,Test,2024.2.4,None,2024-12-05 12h22.56.208615 +0100,
3,150,0,11,None,15,15,0,,,,,,,,0,15,15,2,,,,,,,,,,,,,120.67486483399989,,,,,,,,,,,,,,,,,,,,,,,120.66992704203585,120.6797462500399,120.87720062502194,120.87720062502194,120.87720062502194,122.57748545904178,122.57748545904178,122.5618806250277,,,,,,,,,,,,,,,,,,,,,,,,,,,,,,,,,,,,,,,,,,,,,,,,,,,,,,,,,,,,455631,001,2024-12-05_12h22.47.234,Test,2024.2.4,None,2024-12-05 12h22.56.208615 +0100,
33,150,180,27,None,16,16,0,,,,,,,,0,16,16,32,,,,,,,,,,,,,122.57748545904178,,,,,,,,,,,,,,,,,,,,,,,122.57158925000113,122.59368387499126,122.77704320900375,122.77704320900375,122.78318320901599,124.47597583400784,124.47597583400784,124.46135616704123,,,,,,,,,,,,,,,,,,,,,,,,,,,,,,,,,,,,,,,,,,,,,,,,,,,,,,,,,,,,455631,001,2024-12-05_12h22.47.234,Test,2024.2.4,None,2024-12-05 12h22.56.208615 +0100,
10,150,30,29,None,17,17,0,,,,,,,,0,17,17,9,,,,,,,,,,,,,124.47597583400784,,,,,,,,,,,,,,,,,,,,,,,124.47085491701728,124.4802643750445,124.67712883400964,124.67712883400964,124.67712883400964,126.37855287501588,126.37855287501588,126.36585154203931,,,,,,,,,,,,,,,,,,,,,,,,,,,,,,,,,,,,,,,,,,,,,,,,,,,,,,,,,,,,455631,001,2024-12-05_12h22.47.234,Test,2024.2.4,None,2024-12-05 12h22.56.208615 +0100,
9,150,30,62,None,18,18,0,,,,,,,,0,18,18,8,,,,,,,,,,,,,126.37855287501588,,,,,,,,,,,,,,,,,,,,,,,126.37245429202449,126.37855287501588,126.582927459036,126.582927459036,126.582927459036,128.2809914170066,128.2809914170066,128.26741833402775,,,,,,,,,,,,,,,,,,,,,,,,,,,,,,,,,,,,,,,,,,,,,,,,,,,,,,,,,,,,455631,001,2024-12-05_12h22.47.234,Test,2024.2.4,None,2024-12-05 12h22.56.208615 +0100,
22,150,120,37,None,19,19,0,,,,,,,,0,19,19,21,,,,,,,,,,,,,128.2809914170066,,,,,,,,,,,,,,,,,,,,,,,128.27577666699653,128.2809914170066,128.477325749991,128.477325749991,128.477325749991,130.17759704199852,130.17759704199852,130.16166254202835,,,,,,,,,,,,,,,,,,,,,,,,,,,,,,,,,,,,,,,,,,,,,,,,,,,,,,,,,,,,455631,001,2024-12-05_12h22.47.234,Test,2024.2.4,None,2024-12-05 12h22.56.208615 +0100,
23,150,120,14,None,20,20,0,,,,,,,,0,20,20,22,,,,,,,,,,,,,130.17759704199852,,,,,,,,,,,,,,,,,,,,,,,130.1722026669886,130.1937583340332,130.37585675000446,130.37585675000446,130.3925386670162,132.07607429201016,132.07607429201016,132.061528249993,,,,,,,,,,,,,,,,,,,,,,,,,,,,,,,,,,,,,,,,,,,,,,,,,,,,,,,,,,,,455631,001,2024-12-05_12h22.47.234,Test,2024.2.4,None,2024-12-05 12h22.56.208615 +0100,
21,150,120,60,None,21,21,0,,,,,,,,0,21,21,20,,,,,,,,,,,,,132.07607429201016,,,,,,,,,,,,,,,,,,,,,,,132.07052691699937,132.08045083400793,132.27724637504434,132.27724637504434,132.27724637504434,133.9760360000073,133.9760360000073,133.9612332500401,,,,,,,,,,,,,,,,,,,,,,,,,,,,,,,,,,,,,,,,,,,,,,,,,,,,,,,,,,,,455631,001,2024-12-05_12h22.47.234,Test,2024.2.4,None,2024-12-05 12h22.56.208615 +0100,
2,150,0,68,None,22,22,0,,,,,,,,0,22,22,1,,,,,,,,,,,,,133.9760360000073,,,,,,,,,,,,,,,,,,,,,,,133.97092270903522,133.9803470839979,134.17728333402192,134.17728333402192,134.17728333402192,135.87491733400384,135.87491733400384,135.8613309999928,,,,,,,,,,,,,,,,,,,,,,,,,,,,,,,,,,,,,,,,,,,,,,,,,,,,,,,,,,,,455631,001,2024-12-05_12h22.47.234,Test,2024.2.4,None,2024-12-05 12h22.56.208615 +0100,
34,150,180,54,None,23,23,0,,,,,,,,0,23,23,33,,,,,,,,,,,,,135.87491733400384,,,,,,,,,,,,,,,,,,,,,,,135.86994662502548,135.87992841703817,136.07728466700064,136.07728466700064,136.07728466700064,137.7754464999889,137.7754464999889,137.76146033400437,,,,,,,,,,,,,,,,,,,,,,,,,,,,,,,,,,,,,,,,,,,,,,,,,,,,,,,,,,,,455631,001,2024-12-05_12h22.47.234,Test,2024.2.4,None,2024-12-05 12h22.56.208615 +0100,
25,150,120,42,None,24,24,0,,,,,,,,0,24,24,24,,,,,,,,,,,,,137.7754464999889,,,,,,,,,,,,,,,,,,,,,,,137.77035950002028,137.77946883399272,137.97621895902557,137.97621895902557,137.97621895902557,139.67622654204024,139.67622654204024,139.66146854200633,,,,,,,,,,,,,,,,,,,,,,,,,,,,,,,,,,,,,,,,,,,,,,,,,,,,,,,,,,,,455631,001,2024-12-05_12h22.47.234,Test,2024.2.4,None,2024-12-05 12h22.56.208615 +0100,
8,150,30,35,None,25,25,0,,,,,,,,0,25,25,7,,,,,,,,,,,,,139.67622654204024,,,,,,,,,,,,,,,,,,,,,,,139.6711257499992,139.6803736250149,139.87716537504457,139.87716537504457,139.87716537504457,141.57475450000493,141.57475450000493,141.56160379201174,,,,,,,,,,,,,,,,,,,,,,,,,,,,,,,,,,,,,,,,,,,,,,,,,,,,,,,,,,,,455631,001,2024-12-05_12h22.47.234,Test,2024.2.4,None,2024-12-05 12h22.56.208615 +0100,
20,150,90,33,None,26,26,0,,,,,,,,0,26,26,19,,,,,,,,,,,,,141.57475450000493,,,,,,,,,,,,,,,,,,,,,,,141.5698017500108,141.57997945899842,141.77724345901515,141.77724345901515,141.77724345901515,143.4759189170436,143.4759189170436,143.46136316703632,,,,,,,,,,,,,,,,,,,,,,,,,,,,,,,,,,,,,,,,,,,,,,,,,,,,,,,,,,,,455631,001,2024-12-05_12h22.47.234,Test,2024.2.4,None,2024-12-05 12h22.56.208615 +0100,
12,150,60,59,None,27,27,0,,,,,,,,0,27,27,11,,,,,,,,,,,,,143.4759189170436,,,,,,,,,,,,,,,,,,,,,,,143.47099891700782,143.48066262499196,143.67735708400141,143.67735708400141,143.67735708400141,145.375133500027,145.375133500027,145.36146762501448,,,,,,,,,,,,,,,,,,,,,,,,,,,,,,,,,,,,,,,,,,,,,,,,,,,,,,,,,,,,455631,001,2024-12-05_12h22.47.234,Test,2024.2.4,None,2024-12-05 12h22.56.208615 +0100,
32,150,180,3,None,28,28,0,,,,,,,,0,28,28,31,,,,,,,,,,,,,145.375133500027,,,,,,,,,,,,,,,,,,,,,,,145.3703897499945,145.37968841701513,145.57716058404185,145.57716058404185,145.57716058404185,147.2754334170022,147.2754334170022,147.26140245900024,,,,,,,,,,,,,,,,,,,,,,,,,,,,,,,,,,,,,,,,,,,,,,,,,,,,,,,,,,,,455631,001,2024-12-05_12h22.47.234,Test,2024.2.4,None,2024-12-05 12h22.56.208615 +0100,
16,150,90,24,None,29,29,0,,,,,,,,0,29,29,15,,,,,,,,,,,,,147.2754334170022,,,,,,,,,,,,,,,,,,,,,,,147.27041866700165,147.28075450001052,147.4772108750185,147.4772108750185,147.4772108750185,149.17596408398822,149.17596408398822,149.16136054199887,,,,,,,,,,,,,,,,,,,,,,,,,,,,,,,,,,,,,,,,,,,,,,,,,,,,,,,,,,,,455631,001,2024-12-05_12h22.47.234,Test,2024.2.4,None,2024-12-05 12h22.56.208615 +0100,
14,150,60,9,None,30,30,0,,,,,,,,0,30,30,13,,,,,,,,,,,,,149.17596408398822,,,,,,,,,,,,,,,,,,,,,,,149.17104637500597,149.1803953750059,149.3773577500251,149.3773577500251,149.3773577500251,151.07565629202873,151.07565629202873,151.06146987504326,,,,,,,,,,,,,,,,,,,,,,,,,,,,,,,,,,,,,,,,,,,,,,,,,,,,,,,,,,,,455631,001,2024-12-05_12h22.47.234,Test,2024.2.4,None,2024-12-05 12h22.56.208615 +0100,
35,150,180,21,None,31,31,0,,,,,,,,0,31,31,34,,,,,,,,,,,,,151.07565629202873,,,,,,,,,,,,,,,,,,,,,,,151.07067991700023,151.08018679200904,151.27718983404338,151.27718983404338,151.27718983404338,152.97572458401555,152.97572458401555,152.9613628340303,,,,,,,,,,,,,,,,,,,,,,,,,,,,,,,,,,,,,,,,,,,,,,,,,,,,,,,,,,,,455631,001,2024-12-05_12h22.47.234,Test,2024.2.4,None,2024-12-05 12h22.56.208615 +0100,
13,150,60,55,None,32,32,0,,,,,,,,0,32,32,12,,,,,,,,,,,,,152.97572458401555,,,,,,,,,,,,,,,,,,,,,,,152.97064679203322,152.97969883400947,153.17706916702446,153.17706916702446,153.17706916702446,154.87520175002282,154.87520175002282,154.86167458404088,,,,,,,,,,,,,,,,,,,,,,,,,,,,,,,,,,,,,,,,,,,,,,,,,,,,,,,,,,,,455631,001,2024-12-05_12h22.47.234,Test,2024.2.4,None,2024-12-05 12h22.56.208615 +0100,
4,150,0,15,None,33,33,0,,,,,,,,0,33,33,3,,,,,,,,,,,,,154.87520175002282,,,,,,,,,,,,,,,,,,,,,,,154.87061283399817,154.87956945900805,155.07716066698777,155.07716066698777,155.07716066698777,156.77606191701489,156.77606191701489,156.76696325000376,,,,,,,,,,,,,,,,,,,,,,,,,,,,,,,,,,,,,,,,,,,,,,,,,,,,,,,,,,,,455631,001,2024-12-05_12h22.47.234,Test,2024.2.4,None,2024-12-05 12h22.56.208615 +0100,
29,150,150,18,None,34,34,0,,,,,,,,0,34,34,28,,,,,,,,,,,,,156.77606191701489,,,,,,,,,,,,,,,,,,,,,,,156.77257837500656,156.77606191701489,156.97589479200542,156.97589479200542,156.96264454204356,158.66738654201617,158.66738654201617,158.66154266701778,,,,,,,,,,,,,,,,,,,,,,,,,,,,,,,,,,,,,,,,,,,,,,,,,,,,,,,,,,,,455631,001,2024-12-05_12h22.47.234,Test,2024.2.4,None,2024-12-05 12h22.56.208615 +0100,
,,,,,,,,,,,,,,,,,,,,,,,,,,,,,,,,,,,,,,,,,,,,,,,,,,,,,,,,,,,,,,158.66195441700984,158.6760893340106,158.6760893340106,170.23097108403454,space,11.54344174999278,None,,,,,,,,,,,,,,,,,,,,,,,,,,,,,,,,,,,,,,,,,,,,,,,,,,,,,455631,001,2024-12-05_12h22.47.234,Test,2024.2.4,None,2024-12-05 12h22.56.208615 +0100,
22,150,120,37,None,0,0,0,False,left,0.8222703749779612,None,,,,,,,,0,0,0,0,,,,,,,,,170.2676949170418,,,,,,,,,,,,,,,,,,,,,,,,,,,,,,,,,,,,,,170.25955091702053,170.2676949170418,171.26552637503482,172.22709450003458,172.22709450003458,172.22709450003458,173.05423391703516,left,0.8222703749779612,None,,,,,,,,,,,,,,,,,,,,,,,,,,,,,,,,,,,,,,,,,,,455631,001,2024-12-05_12h22.47.234,Test,2024.2.4,None,2024-12-05 12h22.56.208615 +0100,
12,150,60,59,None,1,1,0,False,right,0.7929094589781016,None,,,,,,,,0,1,1,1,,,,,,,,,173.17076908401214,,,,,,,,,,,,,,,,,,,,,,,,,,,,,,,,,,,,,,173.0630925000296,173.17076908401214,174.16579587501474,175.05127483402612,175.05127483402612,175.05127483402612,175.8470958750113,right,0.7929094589781016,None,,,,,,,,,,,,,,,,,,,,,,,,,,,,,,,,,,,,,,,,,,,455631,001,2024-12-05_12h22.47.234,Test,2024.2.4,None,2024-12-05 12h22.56.208615 +0100,
19,150,90,45,None,2,2,0,False,left,0.9270987919881009,None,,,,,,,,0,2,2,2,,,,,,,,,175.86528091703076,,,,,,,,,,,,,,,,,,,,,,,,,,,,,,,,,,,,,,175.85696358402492,175.86528091703076,176.86047350004083,177.84389741701307,177.84389741701307,177.84389741701307,178.77912670903606,left,0.9270987919881009,None,,,,,,,,,,,,,,,,,,,,,,,,,,,,,,,,,,,,,,,,,,,455631,001,2024-12-05_12h22.47.234,Test,2024.2.4,None,2024-12-05 12h22.56.208615 +0100,
65,150,150,58,None,3,3,0,True,right,0.8705286660115235,None,,,,,,,,0,3,3,3,,,,,,,,,178.79593579203356,,,,,,,,,,,,,,,,,,,,,,,,,,,,,,,,,,,,,,178.7896487090038,178.79593579203356,179.7936978749931,180.77726454200456,180.77726454200456,180.77726454200456,181.65185575000942,right,0.8705286660115235,None,,,,,,,,,,,,,,,,,,,,,,,,,,,,,,,,,,,,,,,,,,,455631,001,2024-12-05_12h22.47.234,Test,2024.2.4,None,2024-12-05 12h22.56.208615 +0100,
28,150,150,30,None,4,4,0,False,right,0.760296540975105,None,,,,,,,,0,4,4,4,,,,,,,,,181.66809558402747,,,,,,,,,,,,,,,,,,,,,,,,,,,,,,,,,,,,,,181.66213612502906,181.66809558402747,182.66520604200196,183.6506167090265,183.6506167090265,183.6506167090265,184.41351695900084,right,0.760296540975105,None,,,,,,,,,,,,,,,,,,,,,,,,,,,,,,,,,,,,,,,,,,,455631,001,2024-12-05_12h22.47.234,Test,2024.2.4,None,2024-12-05 12h22.56.208615 +0100,
9,150,30,62,None,5,5,0,False,left,0.8679980000015348,None,,,,,,,,0,5,5,5,,,,,,,,,184.42945475003216,,,,,,,,,,,,,,,,,,,,,,,,,,,,,,,,,,,,,,184.42262950004078,184.42945475003216,185.42705845902674,186.41068437503418,186.41068437503418,186.41068437503418,187.28547708399128,left,0.8679980000015348,None,,,,,,,,,,,,,,,,,,,,,,,,,,,,,,,,,,,,,,,,,,,455631,001,2024-12-05_12h22.47.234,Test,2024.2.4,None,2024-12-05 12h22.56.208615 +0100,
8,150,30,35,None,6,6,0,False,right,0.793659791990649,None,,,,,,,,0,6,6,6,,,,,,,,,187.30125374998897,,,,,,,,,,,,,,,,,,,,,,,,,,,,,,,,,,,,,,187.29493087501032,187.30125374998897,188.29732945899013,189.28432875004364,189.28432875004364,189.28432875004364,190.09071983402828,right,0.793659791990649,None,,,,,,,,,,,,,,,,,,,,,,,,,,,,,,,,,,,,,,,,,,,455631,001,2024-12-05_12h22.47.234,Test,2024.2.4,None,2024-12-05 12h22.56.208615 +0100,
14,150,60,9,None,7,7,0,False,right,0.9733580000465736,None,,,,,,,,0,7,7,7,,,,,,,,,190.10342475003563,,,,,,,,,,,,,,,,,,,,,,,,,,,,,,,,,,,,,,190.09857245901367,190.10342475003563,191.09866145899286,192.08404470898677,192.08404470898677,192.08404470898677,193.06284525000956,right,0.9733580000465736,None,,,,,,,,,,,,,,,,,,,,,,,,,,,,,,,,,,,,,,,,,,,455631,001,2024-12-05_12h22.47.234,Test,2024.2.4,None,2024-12-05 12h22.56.208615 +0100,
44,150,30,39,None,8,8,0,True,left,0.8954525000299327,None,,,,,,,,0,8,8,8,,,,,,,,,193.07886812504148,,,,,,,,,,,,,,,,,,,,,,,,,,,,,,,,,,,,,,193.07211125001777,193.07886812504148,194.0770838750177,195.0604798340355,195.0604798340355,195.0604798340355,195.96251941699302,left,0.8954525000299327,None,,,,,,,,,,,,,,,,,,,,,,,,,,,,,,,,,,,,,,,,,,,455631,001,2024-12-05_12h22.47.234,Test,2024.2.4,None,2024-12-05 12h22.56.208615 +0100,
46,150,60,7,None,9,9,0,True,right,0.8720843329792842,None,,,,,,,,0,9,9,9,,,,,,,,,195.978716542013,,,,,,,,,,,,,,,,,,,,,,,,,,,,,,,,,,,,,,195.9723195420229,195.978716542013,196.97705179202603,197.9604223340284,197.9604223340284,197.9604223340284,198.83547079202253,right,0.8720843329792842,None,,,,,,,,,,,,,,,,,,,,,,,,,,,,,,,,,,,,,,,,,,,455631,001,2024-12-05_12h22.47.234,Test,2024.2.4,None,2024-12-05 12h22.56.208615 +0100,
48,150,60,10,None,10,10,0,True,left,1.0376634580316022,None,,,,,,,,0,10,10,10,,,,,,,,,198.8505960420007,,,,,,,,,,,,,,,,,,,,,,,,,,,,,,,,,,,,,,198.8444155420293,198.8505960420007,199.84858420898672,200.83404395903926,200.83404395903926,200.83404395903926,201.87925141700543,left,1.0376634580316022,None,,,,,,,,,,,,,,,,,,,,,,,,,,,,,,,,,,,,,,,,,,,455631,001,2024-12-05_12h22.47.234,Test,2024.2.4,None,2024-12-05 12h22.56.208615 +0100,
42,150,30,16,None,11,11,0,True,left,1.2012539169518277,None,,,,,,,,0,11,11,11,,,,,,,,,201.89485425001476,,,,,,,,,,,,,,,,,,,,,,,,,,,,,,,,,,,,,,201.88868725002976,201.89485425001476,202.89392362500075,203.8771448340267,203.8771448340267,203.8771448340267,205.08562341699144,left,1.2012539169518277,None,,,,,,,,,,,,,,,,,,,,,,,,,,,,,,,,,,,,,,,,,,,455631,001,2024-12-05_12h22.47.234,Test,2024.2.4,None,2024-12-05 12h22.56.208615 +0100,
33,150,180,27,None,12,12,0,False,right,0.8329123749863356,None,,,,,,,,0,12,12,12,,,,,,,,,205.1002830840298,,,,,,,,,,,,,,,,,,,,,,,,,,,,,,,,,,,,,,205.09434979199432,205.1002830840298,206.0938087500399,207.08400045899907,207.08400045899907,207.08400045899907,207.91947191703366,right,0.8329123749863356,None,,,,,,,,,,,,,,,,,,,,,,,,,,,,,,,,,,,,,,,,,,,455631,001,2024-12-05_12h22.47.234,Test,2024.2.4,None,2024-12-05 12h22.56.208615 +0100,
54,150,90,12,None,13,13,0,True,left,1.2280395830166526,None,,,,,,,,0,13,13,13,,,,,,,,,207.93530166702112,,,,,,,,,,,,,,,,,,,,,,,,,,,,,,,,,,,,,,207.92902104201494,207.93530166702112,208.9317949170363,209.91593770904,209.91593770904,209.91593770904,211.1463953750208,left,1.2280395830166526,None,,,,,,,,,,,,,,,,,,,,,,,,,,,,,,,,,,,,,,,,,,,455631,001,2024-12-05_12h22.47.234,Test,2024.2.4,None,2024-12-05 12h22.56.208615 +0100,
56,150,120,25,None,14,14,0,True,left,1.160200625017751,None,,,,,,,,0,14,14,14,,,,,,,,,211.16080308402888,,,,,,,,,,,,,,,,,,,,,,,,,,,,,,,,,,,,,,211.15431850001914,211.16080308402888,212.14851816702867,213.1599881669972,213.1599881669972,213.1599881669972,214.327947459009,left,1.160200625017751,None,,,,,,,,,,,,,,,,,,,,,,,,,,,,,,,,,,,,,,,,,,,455631,001,2024-12-05_12h22.47.234,Test,2024.2.4,None,2024-12-05 12h22.56.208615 +0100,
30,150,150,65,None,15,15,0,False,right,0.8617759590269998,None,,,,,,,,0,15,15,15,,,,,,,,,214.34054262499558,,,,,,,,,,,,,,,,,,,,,,,,,,,,,,,,,,,,,,214.33505941700423,214.34054262499558,215.32947024999885,216.3188786249957,216.3188786249957,216.3188786249957,217.18552329199156,right,0.8617759590269998,None,,,,,,,,,,,,,,,,,,,,,,,,,,,,,,,,,,,,,,,,,,,455631,001,2024-12-05_12h22.47.234,Test,2024.2.4,None,2024-12-05 12h22.56.208615 +0100,
13,150,60,55,None,16,16,0,False,right,0.8325707080075517,None,,,,,,,,0,16,16,16,,,,,,,,,217.2030054590432,,,,,,,,,,,,,,,,,,,,,,,,,,,,,,,,,,,,,,217.19615525001427,217.2030054590432,218.1984892920009,219.18337404204067,219.18337404204067,219.18337404204067,220.01934170903405,right,0.8325707080075517,None,,,,,,,,,,,,,,,,,,,,,,,,,,,,,,,,,,,,,,,,,,,455631,001,2024-12-05_12h22.47.234,Test,2024.2.4,None,2024-12-05 12h22.56.208615 +0100,
20,150,90,33,None,17,17,0,False,left,1.0161917500081472,None,,,,,,,,0,17,17,17,,,,,,,,,220.03672483400442,,,,,,,,,,,,,,,,,,,,,,,,,,,,,,,,,,,,,,220.02968037500978,220.03672483400442,221.03191150003113,222.01762275001965,222.01762275001965,222.01762275001965,223.0362285420415,left,1.0161917500081472,None,,,,,,,,,,,,,,,,,,,,,,,,,,,,,,,,,,,,,,,,,,,455631,001,2024-12-05_12h22.47.234,Test,2024.2.4,None,2024-12-05 12h22.56.208615 +0100,
60,150,120,67,None,18,18,0,True,right,1.066262792039197,None,,,,,,,,0,18,18,18,,,,,,,,,223.05320529203163,,,,,,,,,,,,,,,,,,,,,,,,,,,,,,,,,,,,,,223.0471506670001,223.05320529203163,224.04910000000382,225.03447116701864,225.03447116701864,225.03447116701864,226.11124575004214,right,1.066262792039197,None,,,,,,,,,,,,,,,,,,,,,,,,,,,,,,,,,,,,,,,,,,,455631,001,2024-12-05_12h22.47.234,Test,2024.2.4,None,2024-12-05 12h22.56.208615 +0100,
18,150,90,43,None,19,19,0,False,right,0.8102362499921583,None,,,,,,,,0,19,19,19,,,,,,,,,226.12296008400153,,,,,,,,,,,,,,,,,,,,,,,,,,,,,,,,,,,,,,226.11829329200555,226.12296008400153,227.1160522500286,228.10114691703347,228.10114691703347,228.10114691703347,228.92316891701194,right,0.8102362499921583,None,,,,,,,,,,,,,,,,,,,,,,,,,,,,,,,,,,,,,,,,,,,455631,001,2024-12-05_12h22.47.234,Test,2024.2.4,None,2024-12-05 12h22.56.208615 +0100,
10,150,30,29,None,20,20,0,False,right,0.8839977090246975,None,,,,,,,,0,20,20,20,,,,,,,,,228.93574450002052,,,,,,,,,,,,,,,,,,,,,,,,,,,,,,,,,,,,,,228.93103395903017,228.93574450002052,229.932468916988,230.91758570901584,230.91758570901584,230.91758570901584,231.81244733399944,right,0.8839977090246975,None,,,,,,,,,,,,,,,,,,,,,,,,,,,,,,,,,,,,,,,,,,,455631,001,2024-12-05_12h22.47.234,Test,2024.2.4,None,2024-12-05 12h22.56.208615 +0100,
39,150,0,19,None,21,21,0,True,left,0.8515175419743173,None,,,,,,,,0,21,21,21,,,,,,,,,231.82757341698743,,,,,,,,,,,,,,,,,,,,,,,,,,,,,,,,,,,,,,231.8210157499998,231.82757341698743,232.82652570900973,233.81051033403492,233.81051033403492,233.81051033403492,234.66927816701354,left,0.8515175419743173,None,,,,,,,,,,,,,,,,,,,,,,,,,,,,,,,,,,,,,,,,,,,455631,001,2024-12-05_12h22.47.234,Test,2024.2.4,None,2024-12-05 12h22.56.208615 +0100,
52,150,90,53,None,22,22,0,True,left,0.8210126669728197,None,,,,,,,,0,22,22,22,,,,,,,,,234.68583683401812,,,,,,,,,,,,,,,,,,,,,,,,,,,,,,,,,,,,,,234.67889070900856,234.68583683401812,235.68236254202202,236.6680231670034,236.6680231670034,236.6680231670034,237.49594154203078,left,0.8210126669728197,None,,,,,,,,,,,,,,,,,,,,,,,,,,,,,,,,,,,,,,,,,,,455631,001,2024-12-05_12h22.47.234,Test,2024.2.4,None,2024-12-05 12h22.56.208615 +0100,
64,150,150,4,None,23,23,0,True,right,1.050310124992393,None,,,,,,,,0,23,23,23,,,,,,,,,237.5112372500007,,,,,,,,,,,,,,,,,,,,,,,,,,,,,,,,,,,,,,237.5044037500047,237.5112372500007,238.49971937498776,239.493921959016,239.493921959016,239.493921959016,240.54700641700765,right,1.050310124992393,None,,,,,,,,,,,,,,,,,,,,,,,,,,,,,,,,,,,,,,,,,,,455631,001,2024-12-05_12h22.47.234,Test,2024.2.4,None,2024-12-05 12h22.56.208615 +0100,
47,150,60,47,None,24,24,0,True,right,1.4070397920440882,None,,,,,,,,0,24,24,24,,,,,,,,,240.562250167015,,,,,,,,,,,,,,,,,,,,,,,,,,,,,,,,,,,,,,240.55640712502645,240.562250167015,241.56048858404392,242.54397620901,242.54397620901,242.54397620901,243.9629806249868,right,1.4070397920440882,None,,,,,,,,,,,,,,,,,,,,,,,,,,,,,,,,,,,,,,,,,,,455631,001,2024-12-05_12h22.47.234,Test,2024.2.4,None,2024-12-05 12h22.56.208615 +0100,
27,150,150,44,None,25,25,0,False,left,0.8554661250091158,None,,,,,,,,0,25,25,25,,,,,,,,,243.97795179201057,,,,,,,,,,,,,,,,,,,,,,,,,,,,,,,,,,,,,,243.9713111250312,243.97795179201057,244.96505749999778,245.9605897500296,245.9605897500296,245.9605897500296,246.81875299999956,left,0.8554661250091158,None,,,,,,,,,,,,,,,,,,,,,,,,,,,,,,,,,,,,,,,,,,,455631,001,2024-12-05_12h22.47.234,Test,2024.2.4,None,2024-12-05 12h22.56.208615 +0100,
24,150,120,40,None,26,26,0,False,right,1.4906754159601405,None,,,,,,,,0,26,26,26,,,,,,,,,246.83410691702738,,,,,,,,,,,,,,,,,,,,,,,,,,,,,,,,,,,,,,246.82800229202257,246.83410691702738,247.83225937501993,248.81777875003172,248.81777875003172,248.81777875003172,250.31335579202278,right,1.4906754159601405,None,,,,,,,,,,,,,,,,,,,,,,,,,,,,,,,,,,,,,,,,,,,455631,001,2024-12-05_12h22.47.234,Test,2024.2.4,None,2024-12-05 12h22.56.208615 +0100,
29,150,150,18,None,27,27,0,False,left,1.9792431659880094,None,,,,,,,,0,27,27,27,,,,,,,,,250.32625733403256,,,,,,,,,,,,,,,,,,,,,,,,,,,,,,,,,,,,,,250.31988070899388,250.32625733403256,251.3150332090445,252.31080891704187,252.31080891704187,252.31080891704187,254.29690183402272,left,1.9792431659880094,None,,,,,,,,,,,,,,,,,,,,,,,,,,,,,,,,,,,,,,,,,,,455631,001,2024-12-05_12h22.47.234,Test,2024.2.4,None,2024-12-05 12h22.56.208615 +0100,
45,150,30,22,None,28,28,0,True,left,0.9395434579928406,None,,,,,,,,0,28,28,28,,,,,,,,,254.31320800003596,,,,,,,,,,,,,,,,,,,,,,,,,,,,,,,,,,,,,,254.30561287503224,254.31320800003596,255.31049570901087,256.2938805000158,256.2938805000158,256.2938805000158,257.2367340840283,left,0.9395434579928406,None,,,,,,,,,,,,,,,,,,,,,,,,,,,,,,,,,,,,,,,,,,,455631,001,2024-12-05_12h22.47.234,Test,2024.2.4,None,2024-12-05 12h22.56.208615 +0100,
67,150,180,70,None,29,29,0,True,right,1.2929329170146957,None,,,,,,,,0,29,29,29,,,,,,,,,257.2525214169873,,,,,,,,,,,,,,,,,,,,,,,,,,,,,,,,,,,,,,257.2462422500248,257.2525214169873,258.2485032500117,259.2346354170004,259.2346354170004,259.2346354170004,260.530656500021,right,1.2929329170146957,None,,,,,,,,,,,,,,,,,,,,,,,,,,,,,,,,,,,,,,,,,,,455631,001,2024-12-05_12h22.47.234,Test,2024.2.4,None,2024-12-05 12h22.56.208615 +0100,
55,150,90,63,None,30,30,0,True,right,1.0372619170229882,None,,,,,,,,0,30,30,30,,,,,,,,,260.5455195840332,,,,,,,,,,,,,,,,,,,,,,,,,,,,,,,,,,,,,,260.5396677920362,260.5455195840332,261.54385737504344,262.5273269999889,262.5273269999889,262.5273269999889,263.568897249992,right,1.0372619170229882,None,,,,,,,,,,,,,,,,,,,,,,,,,,,,,,,,,,,,,,,,,,,455631,001,2024-12-05_12h22.47.234,Test,2024.2.4,None,2024-12-05 12h22.56.208615 +0100,
50,150,60,38,None,31,31,0,True,left,1.0139952920144424,None,,,,,,,,0,31,31,31,,,,,,,,,263.58336099999724,,,,,,,,,,,,,,,,,,,,,,,,,,,,,,,,,,,,,,263.5770557090291,263.58336099999724,264.5771157920244,265.56750337500125,265.56750337500125,265.56750337500125,266.5854285840178,left,1.0139952920144424,None,,,,,,,,,,,,,,,,,,,,,,,,,,,,,,,,,,,,,,,,,,,455631,001,2024-12-05_12h22.47.234,Test,2024.2.4,None,2024-12-05 12h22.56.208615 +0100,
53,150,90,51,None,32,32,0,True,left,1.300726332992781,None,,,,,,,,0,32,32,32,,,,,,,,,266.60114600003,,,,,,,,,,,,,,,,,,,,,,,,,,,,,,,,,,,,,,266.59497575002024,266.60114600003,267.5992812089971,268.58425970899407,268.58425970899407,268.58425970899407,269.89528895902913,left,1.300726332992781,None,,,,,,,,,,,,,,,,,,,,,,,,,,,,,,,,,,,,,,,,,,,455631,001,2024-12-05_12h22.47.234,Test,2024.2.4,None,2024-12-05 12h22.56.208615 +0100,
2,150,0,68,None,33,33,0,False,right,0.910492583992891,None,,,,,,,,0,33,33,33,,,,,,,,,269.90936958399834,,,,,,,,,,,,,,,,,,,,,,,,,,,,,,,,,,,,,,269.9027786250226,269.90936958399834,270.8989799590199,271.8939159589936,271.8939159589936,271.8939159589936,272.8126683750306,right,0.910492583992891,None,,,,,,,,,,,,,,,,,,,,,,,,,,,,,,,,,,,,,,,,,,,455631,001,2024-12-05_12h22.47.234,Test,2024.2.4,None,2024-12-05 12h22.56.208615 +0100,
37,150,0,31,None,34,34,0,True,left,0.9272750830277801,None,,,,,,,,0,34,34,34,,,,,,,,,272.82937920902623,,,,,,,,,,,,,,,,,,,,,,,,,,,,,,,,,,,,,,272.8226326670265,272.82937920902623,273.82695800001966,274.8107445840142,274.8107445840142,274.8107445840142,275.74659250001423,left,0.9272750830277801,None,,,,,,,,,,,,,,,,,,,,,,,,,,,,,,,,,,,,,,,,,,,455631,001,2024-12-05_12h22.47.234,Test,2024.2.4,None,2024-12-05 12h22.56.208615 +0100,
5,150,0,49,None,35,35,0,False,right,0.8461968749761581,None,,,,,,,,0,35,35,35,,,,,,,,,275.7621166250319,,,,,,,,,,,,,,,,,,,,,,,,,,,,,,,,,,,,,,275.75518758402904,275.7621166250319,276.76057275000494,277.7440690420335,277.7440690420335,277.7440690420335,278.5963874590234,right,0.8461968749761581,None,,,,,,,,,,,,,,,,,,,,,,,,,,,,,,,,,,,,,,,,,,,455631,001,2024-12-05_12h22.47.234,Test,2024.2.4,None,2024-12-05 12h22.56.208615 +0100,
31,150,180,5,None,36,36,0,False,right,1.0052130420226604,None,,,,,,,,0,36,36,36,,,,,,,,,278.6130954590044,,,,,,,,,,,,,,,,,,,,,,,,,,,,,,,,,,,,,,278.6068702090415,278.6130954590044,279.6104352090042,280.59390875004465,280.59390875004465,280.59390875004465,281.6024276250391,right,1.0052130420226604,None,,,,,,,,,,,,,,,,,,,,,,,,,,,,,,,,,,,,,,,,,,,455631,001,2024-12-05_12h22.47.234,Test,2024.2.4,None,2024-12-05 12h22.56.208615 +0100,
69,150,180,36,None,37,37,0,True,left,0.8548007080098614,None,,,,,,,,0,37,37,37,,,,,,,,,281.62124616699293,,,,,,,,,,,,,,,,,,,,,,,,,,,,,,,,,,,,,,281.6142587499926,281.62124616699293,282.616174625,283.601559792005,283.601559792005,283.601559792005,284.46342762501445,left,0.8548007080098614,None,,,,,,,,,,,,,,,,,,,,,,,,,,,,,,,,,,,,,,,,,,,455631,001,2024-12-05_12h22.47.234,Test,2024.2.4,None,2024-12-05 12h22.56.208615 +0100,
57,150,120,32,None,38,38,0,True,right,0.9420004580169916,None,,,,,,,,0,38,38,38,,,,,,,,,284.48024483403424,,,,,,,,,,,,,,,,,,,,,,,,,,,,,,,,,,,,,,284.4731546250405,284.48024483403424,285.4770932919928,286.4596895420109,286.4596895420109,286.4596895420109,287.41177404200425,right,0.9420004580169916,None,,,,,,,,,,,,,,,,,,,,,,,,,,,,,,,,,,,,,,,,,,,455631,001,2024-12-05_12h22.47.234,Test,2024.2.4,None,2024-12-05 12h22.56.208615 +0100,
7,150,30,46,None,39,39,0,False,right,1.002133583999239,None,,,,,,,,0,39,39,39,,,,,,,,,287.42917195899645,,,,,,,,,,,,,,,,,,,,,,,,,,,,,,,,,,,,,,287.4224692090065,287.42917195899645,288.4271292500198,289.4107301250333,289.4107301250333,289.4107301250333,290.42001291702036,right,1.002133583999239,None,,,,,,,,,,,,,,,,,,,,,,,,,,,,,,,,,,,,,,,,,,,455631,001,2024-12-05_12h22.47.234,Test,2024.2.4,None,2024-12-05 12h22.56.208615 +0100,
26,150,150,17,None,40,40,0,False,left,1.3613717080443166,None,,,,,,,,0,40,40,40,,,,,,,,,290.437700709037,,,,,,,,,,,,,,,,,,,,,,,,,,,,,,,,,,,,,,290.4303136250237,290.437700709037,291.43200687499484,292.42765920900274,292.42765920900274,292.42765920900274,293.79633266699966,left,1.3613717080443166,None,,,,,,,,,,,,,,,,,,,,,,,,,,,,,,,,,,,,,,,,,,,455631,001,2024-12-05_12h22.47.234,Test,2024.2.4,None,2024-12-05 12h22.56.208615 +0100,
25,150,120,42,None,41,41,0,False,right,1.762641415989492,None,,,,,,,,0,41,41,41,,,,,,,,,293.8137418340193,,,,,,,,,,,,,,,,,,,,,,,,,,,,,,,,,,,,,,293.80705183401005,293.8137418340193,294.81043087498983,295.793695417,295.793695417,295.793695417,297.56259441701695,right,1.762641415989492,None,,,,,,,,,,,,,,,,,,,,,,,,,,,,,,,,,,,,,,,,,,,455631,001,2024-12-05_12h22.47.234,Test,2024.2.4,None,2024-12-05 12h22.56.208615 +0100,
3,150,0,11,None,42,42,0,False,right,1.4136642499943264,None,,,,,,,,0,42,42,42,,,,,,,,,297.57764554204186,,,,,,,,,,,,,,,,,,,,,,,,,,,,,,,,,,,,,,297.5714050839888,297.57764554204186,298.56597341701854,299.5605614170199,299.5605614170199,299.5605614170199,300.9798820000142,right,1.4136642499943264,None,,,,,,,,,,,,,,,,,,,,,,,,,,,,,,,,,,,,,,,,,,,455631,001,2024-12-05_12h22.47.234,Test,2024.2.4,None,2024-12-05 12h22.56.208615 +0100,
61,150,150,61,None,43,43,0,True,left,1.2063455829629675,None,,,,,,,,0,43,43,43,,,,,,,,,300.9969498339924,,,,,,,,,,,,,,,,,,,,,,,,,,,,,,,,,,,,,,300.99093050003285,300.9969498339924,301.9936977920006,302.9761612919974,302.9761612919974,302.9761612919974,304.18574070901377,left,1.2063455829629675,None,,,,,,,,,,,,,,,,,,,,,,,,,,,,,,,,,,,,,,,,,,,455631,001,2024-12-05_12h22.47.234,Test,2024.2.4,None,2024-12-05 12h22.56.208615 +0100,
21,150,120,60,None,44,44,0,False,left,1.8371578329824843,None,,,,,,,,0,44,44,44,,,,,,,,,304.20114800002193,,,,,,,,,,,,,,,,,,,,,,,,,,,,,,,,,,,,,,304.1947187090409,304.20114800002193,305.19923820899567,306.1845889170072,306.1845889170072,306.1845889170072,308.0291225000401,left,1.8371578329824843,None,,,,,,,,,,,,,,,,,,,,,,,,,,,,,,,,,,,,,,,,,,,455631,001,2024-12-05_12h22.47.234,Test,2024.2.4,None,2024-12-05 12h22.56.208615 +0100,
23,150,120,14,None,45,45,0,False,right,2.0087594999931753,None,,,,,,,,0,45,45,45,,,,,,,,,308.04320241702953,,,,,,,,,,,,,,,,,,,,,,,,,,,,,,,,,,,,,,308.0373333750176,308.04320241702953,309.03088391700294,310.0269749170402,310.0269749170402,310.0269749170402,312.0460486669908,right,2.0087594999931753,None,,,,,,,,,,,,,,,,,,,,,,,,,,,,,,,,,,,,,,,,,,,455631,001,2024-12-05_12h22.47.234,Test,2024.2.4,None,2024-12-05 12h22.56.208615 +0100,
38,150,0,34,None,46,46,0,True,right,1.1891468329704367,None,,,,,,,,0,46,46,46,,,,,,,,,312.08083129202714,,,,,,,,,,,,,,,,,,,,,,,,,,,,,,,,,,,,,,312.07446741702734,312.08083129202714,313.0771293340367,314.0466145420214,314.0466145420214,314.0466145420214,315.24587137502385,right,1.1891468329704367,None,,,,,,,,,,,,,,,,,,,,,,,,,,,,,,,,,,,,,,,,,,,455631,001,2024-12-05_12h22.47.234,Test,2024.2.4,None,2024-12-05 12h22.56.208615 +0100,
62,150,150,13,None,47,47,0,True,left,1.043226958019659,None,,,,,,,,0,47,47,47,,,,,,,,,315.26282041700324,,,,,,,,,,,,,,,,,,,,,,,,,,,,,,,,,,,,,,315.2568992089946,315.26282041700324,316.26034249999793,317.24391537503107,317.24391537503107,317.24391537503107,318.29600204201415,left,1.043226958019659,None,,,,,,,,,,,,,,,,,,,,,,,,,,,,,,,,,,,,,,,,,,,455631,001,2024-12-05_12h22.47.234,Test,2024.2.4,None,2024-12-05 12h22.56.208615 +0100,
11,150,60,64,None,48,48,0,False,right,1.1687727919779718,None,,,,,,,,0,48,48,48,,,,,,,,,318.3121012090123,,,,,,,,,,,,,,,,,,,,,,,,,,,,,,,,,,,,,,318.3058120839996,318.3121012090123,319.3105059590307,320.2938778750249,320.2938778750249,320.2938778750249,321.46840979199624,right,1.1687727919779718,None,,,,,,,,,,,,,,,,,,,,,,,,,,,,,,,,,,,,,,,,,,,455631,001,2024-12-05_12h22.47.234,Test,2024.2.4,None,2024-12-05 12h22.56.208615 +0100,
15,150,60,20,None,49,49,0,False,right,0.9811155830393545,None,,,,,,,,0,49,49,49,,,,,,,,,321.484403459006,,,,,,,,,,,,,,,,,,,,,,,,,,,,,,,,,,,,,,321.4782942919992,321.484403459006,322.4818730840343,323.4685145840049,323.4685145840049,323.4685145840049,324.4524010840105,right,0.9811155830393545,None,,,,,,,,,,,,,,,,,,,,,,,,,,,,,,,,,,,,,,,,,,,455631,001,2024-12-05_12h22.47.234,Test,2024.2.4,None,2024-12-05 12h22.56.208615 +0100,
16,150,90,24,None,50,50,0,False,right,1.0839978749863803,None,,,,,,,,0,50,50,50,,,,,,,,,324.4673482920043,,,,,,,,,,,,,,,,,,,,,,,,,,,,,,,,,,,,,,324.4613422920229,324.4673482920043,325.46528304199455,326.45114020904293,326.45114020904293,326.45114020904293,327.54593820899026,right,1.0839978749863803,None,,,,,,,,,,,,,,,,,,,,,,,,,,,,,,,,,,,,,,,,,,,455631,001,2024-12-05_12h22.47.234,Test,2024.2.4,None,2024-12-05 12h22.56.208615 +0100,
35,150,180,21,None,51,51,0,False,left,1.5280020410427824,None,,,,,,,,0,51,51,51,,,,,,,,,327.5619603340165,,,,,,,,,,,,,,,,,,,,,,,,,,,,,,,,,,,,,,327.5560785839916,327.5619603340165,328.56051795900567,329.5437472090125,329.5437472090125,329.5437472090125,331.0800057500019,left,1.5280020410427824,None,,,,,,,,,,,,,,,,,,,,,,,,,,,,,,,,,,,,,,,,,,,455631,001,2024-12-05_12h22.47.234,Test,2024.2.4,None,2024-12-05 12h22.56.208615 +0100,
6,150,30,57,None,52,52,0,False,right,1.4240141249611042,None,,,,,,,,0,52,52,52,,,,,,,,,331.09660312504275,,,,,,,,,,,,,,,,,,,,,,,,,,,,,,,,,,,,,,331.09022758400533,331.09660312504275,332.09389712504344,333.07728733401746,333.07728733401746,333.07728733401746,334.5125939170248,right,1.4240141249611042,None,,,,,,,,,,,,,,,,,,,,,,,,,,,,,,,,,,,,,,,,,,,455631,001,2024-12-05_12h22.47.234,Test,2024.2.4,None,2024-12-05 12h22.56.208615 +0100,
4,150,0,15,None,53,53,0,False,left,1.0996938329772092,None,,,,,,,,0,53,53,53,,,,,,,,,334.5288448749925,,,,,,,,,,,,,,,,,,,,,,,,,,,,,,,,,,,,,,334.5223119590082,334.5288448749925,335.5270629590377,336.51056525000604,336.51056525000604,336.51056525000604,337.61229850002564,left,1.0996938329772092,None,,,,,,,,,,,,,,,,,,,,,,,,,,,,,,,,,,,,,,,,,,,455631,001,2024-12-05_12h22.47.234,Test,2024.2.4,None,2024-12-05 12h22.56.208615 +0100,
68,150,180,23,None,54,54,0,True,left,1.2856473330175504,None,,,,,,,,0,54,54,54,,,,,,,,,337.62520320899785,,,,,,,,,,,,,,,,,,,,,,,,,,,,,,,,,,,,,,337.61892233398976,337.62520320899785,338.6155192920123,339.60988004202954,339.60988004202954,339.60988004202954,340.90290870901663,left,1.2856473330175504,None,,,,,,,,,,,,,,,,,,,,,,,,,,,,,,,,,,,,,,,,,,,455631,001,2024-12-05_12h22.47.234,Test,2024.2.4,None,2024-12-05 12h22.56.208615 +0100,
43,150,30,8,None,55,55,0,True,left,1.0305043330299668,None,,,,,,,,0,55,55,55,,,,,,,,,340.92037879204145,,,,,,,,,,,,,,,,,,,,,,,,,,,,,,,,,,,,,,340.9134803340421,340.92037879204145,341.916198958992,342.9004328750307,342.9004328750307,342.9004328750307,343.9360087090172,left,1.0305043330299668,None,,,,,,,,,,,,,,,,,,,,,,,,,,,,,,,,,,,,,,,,,,,455631,001,2024-12-05_12h22.47.234,Test,2024.2.4,None,2024-12-05 12h22.56.208615 +0100,
59,150,120,66,None,56,56,0,True,left,1.8157746670185588,None,,,,,,,,0,56,56,56,,,,,,,,,343.9514269590145,,,,,,,,,,,,,,,,,,,,,,,,,,,,,,,,,,,,,,343.9453381670173,343.9514269590145,344.949083250016,345.9346741249901,345.9346741249901,345.9346741249901,347.752706209023,left,1.8157746670185588,None,,,,,,,,,,,,,,,,,,,,,,,,,,,,,,,,,,,,,,,,,,,455631,001,2024-12-05_12h22.47.234,Test,2024.2.4,None,2024-12-05 12h22.56.208615 +0100,
40,150,0,56,None,57,57,0,True,right,0.9672075000125915,None,,,,,,,,0,57,57,57,,,,,,,,,347.7684825840406,,,,,,,,,,,,,,,,,,,,,,,,,,,,,,,,,,,,,,347.76206954201916,347.7684825840406,348.765844959009,349.7508725420339,349.7508725420339,349.7508725420339,350.7292929170071,right,0.9672075000125915,None,,,,,,,,,,,,,,,,,,,,,,,,,,,,,,,,,,,,,,,,,,,455631,001,2024-12-05_12h22.47.234,Test,2024.2.4,None,2024-12-05 12h22.56.208615 +0100,
41,150,30,6,None,58,58,0,True,left,1.083484833012335,None,,,,,,,,0,58,58,58,,,,,,,,,350.746233959042,,,,,,,,,,,,,,,,,,,,,,,,,,,,,,,,,,,,,,350.73889708402567,350.746233959042,351.7437550420291,352.7273262090166,352.7273262090166,352.7273262090166,353.8136730840197,left,1.083484833012335,None,,,,,,,,,,,,,,,,,,,,,,,,,,,,,,,,,,,,,,,,,,,455631,001,2024-12-05_12h22.47.234,Test,2024.2.4,None,2024-12-05 12h22.56.208615 +0100,
17,150,90,50,None,59,59,0,False,right,1.60139424999943,None,,,,,,,,0,59,59,59,,,,,,,,,353.82899304199964,,,,,,,,,,,,,,,,,,,,,,,,,,,,,,,,,,,,,,353.8223625840037,353.82899304199964,354.8273832090199,355.81051287503215,355.81051287503215,355.81051287503215,357.4188522500335,right,1.60139424999943,None,,,,,,,,,,,,,,,,,,,,,,,,,,,,,,,,,,,,,,,,,,,455631,001,2024-12-05_12h22.47.234,Test,2024.2.4,None,2024-12-05 12h22.56.208615 +0100,
49,150,60,1,None,60,60,0,True,right,1.0604062909842469,None,,,,,,,,0,60,60,60,,,,,,,,,357.433406458993,,,,,,,,,,,,,,,,,,,,,,,,,,,,,,,,,,,,,,357.42692691698903,357.433406458993,358.43260608403943,359.41761387500446,359.41761387500446,359.41761387500446,360.4852335420437,right,1.0604062909842469,None,,,,,,,,,,,,,,,,,,,,,,,,,,,,,,,,,,,,,,,,,,,455631,001,2024-12-05_12h22.47.234,Test,2024.2.4,None,2024-12-05 12h22.56.208615 +0100,
32,150,180,3,None,61,61,0,False,right,1.4141603750176728,None,,,,,,,,0,61,61,61,,,,,,,,,360.500988417014,,,,,,,,,,,,,,,,,,,,,,,,,,,,,,,,,,,,,,360.49462079204386,360.500988417014,361.49748270900454,362.484919584007,362.484919584007,362.484919584007,363.9128075420158,right,1.4141603750176728,None,,,,,,,,,,,,,,,,,,,,,,,,,,,,,,,,,,,,,,,,,,,455631,001,2024-12-05_12h22.47.234,Test,2024.2.4,None,2024-12-05 12h22.56.208615 +0100,
1,150,0,52,None,62,62,0,False,right,1.2564825419685803,None,,,,,,,,0,62,62,62,,,,,,,,,363.9274138340261,,,,,,,,,,,,,,,,,,,,,,,,,,,,,,,,,,,,,,363.9215823750128,363.9274138340261,364.91523354203673,365.91070220898837,365.91070220898837,365.91070220898837,367.1708938340307,right,1.2564825419685803,None,,,,,,,,,,,,,,,,,,,,,,,,,,,,,,,,,,,,,,,,,,,455631,001,2024-12-05_12h22.47.234,Test,2024.2.4,None,2024-12-05 12h22.56.208615 +0100,
66,150,180,28,None,63,63,0,True,left,1.3800885420059785,None,,,,,,,,0,63,63,63,,,,,,,,,367.18625316699035,,,,,,,,,,,,,,,,,,,,,,,,,,,,,,,,,,,,,,367.17974687501555,367.18625316699035,368.1819867499871,369.1687387920101,369.1687387920101,369.1687387920101,370.55990829202347,left,1.3800885420059785,None,,,,,,,,,,,,,,,,,,,,,,,,,,,,,,,,,,,,,,,,,,,455631,001,2024-12-05_12h22.47.234,Test,2024.2.4,None,2024-12-05 12h22.56.208615 +0100,
34,150,180,54,None,64,64,0,False,left,1.4324363750056364,None,,,,,,,,0,64,64,64,,,,,,,,,370.57104583398905,,,,,,,,,,,,,,,,,,,,,,,,,,,,,,,,,,,,,,370.5656437090365,370.57104583398905,371.5649514590041,372.55120750004426,372.55120750004426,372.55120750004426,373.98604525002884,left,1.4324363750056364,None,,,,,,,,,,,,,,,,,,,,,,,,,,,,,,,,,,,,,,,,,,,455631,001,2024-12-05_12h22.47.234,Test,2024.2.4,None,2024-12-05 12h22.56.208615 +0100,
63,150,150,2,None,65,65,0,True,right,1.4996902080019936,None,,,,,,,,0,65,65,65,,,,,,,,,374.00397454202175,,,,,,,,,,,,,,,,,,,,,,,,,,,,,,,,,,,,,,373.9974577089888,374.00397454202175,374.99856545904186,375.98442033398896,375.98442033398896,375.98442033398896,377.5113795000361,right,1.4996902080019936,None,,,,,,,,,,,,,,,,,,,,,,,,,,,,,,,,,,,,,,,,,,,455631,001,2024-12-05_12h22.47.234,Test,2024.2.4,None,2024-12-05 12h22.56.208615 +0100,
58,150,120,41,None,66,66,0,True,right,1.0868574579944834,None,,,,,,,,0,66,66,66,,,,,,,,,377.5435007089982,,,,,,,,,,,,,,,,,,,,,,,,,,,,,,,,,,,,,,377.52202137501445,377.5435007089982,378.5318985420163,379.50142700003926,379.50142700003926,379.50142700003926,380.5964920420083,right,1.0868574579944834,None,,,,,,,,,,,,,,,,,,,,,,,,,,,,,,,,,,,,,,,,,,,455631,001,2024-12-05_12h22.47.234,Test,2024.2.4,None,2024-12-05 12h22.56.208615 +0100,
36,150,0,69,None,67,67,0,True,left,1.2550163340056315,None,,,,,,,,0,67,67,67,,,,,,,,,380.61222041700967,,,,,,,,,,,,,,,,,,,,,,,,,,,,,,,,,,,,,,380.6060319170356,380.61222041700967,381.61048416700214,382.59337937500095,382.59337937500095,382.59337937500095,383.8521671250346,left,1.2550163340056315,None,,,,,,,,,,,,,,,,,,,,,,,,,,,,,,,,,,,,,,,,,,,455631,001,2024-12-05_12h22.47.234,Test,2024.2.4,None,2024-12-05 12h22.56.208615 +0100,
70,150,180,26,None,68,68,0,True,left,1.7108393330127,None,,,,,,,,0,68,68,68,,,,,,,,,383.8687361670309,,,,,,,,,,,,,,,,,,,,,,,,,,,,,,,,,,,,,,383.8626406250405,383.8687361670309,384.8646907090442,385.85107725003036,385.85107725003036,385.85107725003036,387.5696205840213,left,1.7108393330127,None,,,,,,,,,,,,,,,,,,,,,,,,,,,,,,,,,,,,,,,,,,,455631,001,2024-12-05_12h22.47.234,Test,2024.2.4,None,2024-12-05 12h22.56.208615 +0100,
51,150,90,48,None,69,69,0,True,left,1.2933402500348166,None,,,,,,,,0,69,69,69,,,,,,,,,387.58588533400325,,,,,,,,,,,,,,,,,,,,,,,,,,,,,,,,,,,,,,387.5793412500061,387.58588533400325,388.58264037501067,389.56798366701696,389.56798366701696,389.56798366701696,390.87045512499753,left,1.2933402500348166,None,,,,,,,,,,,,,,,,,,,,,,,,,,,,,,,,,,,,,,,,,,,455631,001,2024-12-05_12h22.47.234,Test,2024.2.4,None,2024-12-05 12h22.56.208615 +0100,
,,,,,,,,,,,,,,,,,,,,,,,,,,,,,,,,,,,,,,,,,,,,,,,,,,,,,,,,,,,,,,,,,,,,,,,,,,,,,,,390.8707271250314,390.88001929200254,390.88001929200254,408.61458054202376,space,17.72537000000011,None,,,,,,,,,,,,,,,,,,,,,,,,,,,,,,,,,,,,455631,001,2024-12-05_12h22.47.234,Test,2024.2.4,None,2024-12-05 12h22.56.208615 +0100,
27,150,150,44,None,0,0,0,,,,,,,,,,,,,,,,0,0,0,26,,,,,408.65237729199,,,,,,,,,,,,,,,,,,,,,,,,,,,,,,,,,,,,,,,,,,,,,,,,,,,,,,,408.6414999589906,408.65237729199,408.81655383401085,408.81655383401085,408.84933983400697,410.5166349170031,410.5166349170031,410.50078020902583,,,,,,,,,,,,,,,,,,,,,,,,,,,,455631,001,2024-12-05_12h22.47.234,Test,2024.2.4,None,2024-12-05 12h22.56.208615 +0100,
23,150,120,14,None,1,1,0,,,,,,,,,,,,,,,,0,1,1,22,,,,,410.5166349170031,,,,,,,,,,,,,,,,,,,,,,,,,,,,,,,,,,,,,,,,,,,,,,,,,,,,,,,410.5120389999938,410.5166349170031,410.7106087920256,410.7106087920256,410.7106087920256,412.41045337502146,412.41045337502146,412.39490808401024,,,,,,,,,,,,,,,,,,,,,,,,,,,,455631,001,2024-12-05_12h22.47.234,Test,2024.2.4,None,2024-12-05 12h22.56.208615 +0100,
31,150,180,5,None,2,2,0,,,,,,,,,,,,,,,,0,2,2,30,,,,,412.41045337502146,,,,,,,,,,,,,,,,,,,,,,,,,,,,,,,,,,,,,,,,,,,,,,,,,,,,,,,412.40576683403924,412.4148002919974,412.6106930000242,412.6106930000242,412.6106930000242,414.30945654201787,414.30945654201787,414.29461529199034,,,,,,,,,,,,,,,,,,,,,,,,,,,,455631,001,2024-12-05_12h22.47.234,Test,2024.2.4,None,2024-12-05 12h22.56.208615 +0100,
13,150,60,55,None,3,3,0,,,,,,,,,,,,,,,,0,3,3,12,,,,,414.30945654201787,,,,,,,,,,,,,,,,,,,,,,,,,,,,,,,,,,,,,,,,,,,,,,,,,,,,,,,414.30443433404434,414.31321195903,414.5107373340288,414.5107373340288,414.5107373340288,416.2086133750272,416.2086133750272,416.194853959023,,,,,,,,,,,,,,,,,,,,,,,,,,,,455631,001,2024-12-05_12h22.47.234,Test,2024.2.4,None,2024-12-05 12h22.56.208615 +0100,
28,150,150,30,None,4,4,0,,,,,,,,,,,,,,,,0,4,4,27,,,,,416.2086133750272,,,,,,,,,,,,,,,,,,,,,,,,,,,,,,,,,,,,,,,,,,,,,,,,,,,,,,,416.20356141700177,416.2134698749869,416.41060762503184,416.41060762503184,416.41060762503184,418.1091225420241,418.1091225420241,418.094958917005,,,,,,,,,,,,,,,,,,,,,,,,,,,,455631,001,2024-12-05_12h22.47.234,Test,2024.2.4,None,2024-12-05 12h22.56.208615 +0100,
20,150,90,33,None,5,5,0,,,,,,,,,,,,,,,,0,5,5,19,,,,,418.1091225420241,,,,,,,,,,,,,,,,,,,,,,,,,,,,,,,,,,,,,,,,,,,,,,,,,,,,,,,418.10409945901483,418.11390333401505,418.31052933400497,418.31052933400497,418.31052933400497,420.00879583403,420.00879583403,419.99481370899593,,,,,,,,,,,,,,,,,,,,,,,,,,,,455631,001,2024-12-05_12h22.47.234,Test,2024.2.4,None,2024-12-05 12h22.56.208615 +0100,
19,150,90,45,None,6,6,0,,,,,,,,,,,,,,,,0,6,6,18,,,,,420.00879583403,,,,,,,,,,,,,,,,,,,,,,,,,,,,,,,,,,,,,,,,,,,,,,,,,,,,,,,420.00392062502215,420.01301341701765,420.21054950001417,420.21054950001417,420.21054950001417,421.9095520420233,421.9095520420233,421.8949897920247,,,,,,,,,,,,,,,,,,,,,,,,,,,,455631,001,2024-12-05_12h22.47.234,Test,2024.2.4,None,2024-12-05 12h22.56.208615 +0100,
8,150,30,35,None,7,7,0,,,,,,,,,,,,,,,,0,7,7,7,,,,,421.9095520420233,,,,,,,,,,,,,,,,,,,,,,,,,,,,,,,,,,,,,,,,,,,,,,,,,,,,,,,421.9045517920167,421.9133341250126,422.11060795903904,422.11060795903904,422.11060795903904,423.80921466700966,423.80921466700966,423.7946756249876,,,,,,,,,,,,,,,,,,,,,,,,,,,,455631,001,2024-12-05_12h22.47.234,Test,2024.2.4,None,2024-12-05 12h22.56.208615 +0100,
34,150,180,54,None,8,8,0,,,,,,,,,,,,,,,,0,8,8,33,,,,,423.80921466700966,,,,,,,,,,,,,,,,,,,,,,,,,,,,,,,,,,,,,,,,,,,,,,,,,,,,,,,423.80368779203855,423.8130433750339,424.0107230000431,424.0107230000431,424.0107230000431,425.71461141703185,425.71461141703185,425.69481779204216,,,,,,,,,,,,,,,,,,,,,,,,,,,,455631,001,2024-12-05_12h22.47.234,Test,2024.2.4,None,2024-12-05 12h22.56.208615 +0100,
3,150,0,11,None,9,9,0,,,,,,,,,,,,,,,,0,9,9,2,,,,,425.71461141703185,,,,,,,,,,,,,,,,,,,,,,,,,,,,,,,,,,,,,,,,,,,,,,,,,,,,,,,425.70999154204037,425.72698166698683,425.90959891700186,425.90959891700186,425.91569183400134,427.6088794170064,427.6088794170064,427.59444175002864,,,,,,,,,,,,,,,,,,,,,,,,,,,,455631,001,2024-12-05_12h22.47.234,Test,2024.2.4,None,2024-12-05 12h22.56.208615 +0100,
24,150,120,40,None,10,10,0,,,,,,,,,,,,,,,,0,10,10,23,,,,,427.6088794170064,,,,,,,,,,,,,,,,,,,,,,,,,,,,,,,,,,,,,,,,,,,,,,,,,,,,,,,427.60392374999356,427.6127480000141,427.81082795903785,427.81082795903785,427.81082795903785,429.51411287504015,429.51411287504015,429.49543333402835,,,,,,,,,,,,,,,,,,,,,,,,,,,,455631,001,2024-12-05_12h22.47.234,Test,2024.2.4,None,2024-12-05 12h22.56.208615 +0100,
4,150,0,15,None,11,11,0,,,,,,,,,,,,,,,,0,11,11,3,,,,,429.51411287504015,,,,,,,,,,,,,,,,,,,,,,,,,,,,,,,,,,,,,,,,,,,,,,,,,,,,,,,429.50969387503574,429.5269614169956,429.7105195840122,429.7105195840122,429.716992709029,431.409860417014,431.409860417014,431.394688875007,,,,,,,,,,,,,,,,,,,,,,,,,,,,455631,001,2024-12-05_12h22.47.234,Test,2024.2.4,None,2024-12-05 12h22.56.208615 +0100,
10,150,30,29,None,12,12,0,,,,,,,,,,,,,,,,0,12,12,9,,,,,431.409860417014,,,,,,,,,,,,,,,,,,,,,,,,,,,,,,,,,,,,,,,,,,,,,,,,,,,,,,,431.4051928340341,431.41374479199294,431.61063291702885,431.61063291702885,431.61063291702885,433.3089741250151,433.3089741250151,433.294616084022,,,,,,,,,,,,,,,,,,,,,,,,,,,,455631,001,2024-12-05_12h22.47.234,Test,2024.2.4,None,2024-12-05 12h22.56.208615 +0100,
29,150,150,18,None,13,13,0,,,,,,,,,,,,,,,,0,13,13,28,,,,,433.3089741250151,,,,,,,,,,,,,,,,,,,,,,,,,,,,,,,,,,,,,,,,,,,,,,,,,,,,,,,433.3039545000065,433.3129915840109,433.51054087502416,433.51054087502416,433.51054087502416,435.20951620902633,435.20951620902633,435.19473770901095,,,,,,,,,,,,,,,,,,,,,,,,,,,,455631,001,2024-12-05_12h22.47.234,Test,2024.2.4,None,2024-12-05 12h22.56.208615 +0100,
11,150,60,64,None,14,14,0,,,,,,,,,,,,,,,,0,14,14,10,,,,,435.20951620902633,,,,,,,,,,,,,,,,,,,,,,,,,,,,,,,,,,,,,,,,,,,,,,,,,,,,,,,435.20409175002715,435.2140112090274,435.4105687920237,435.4105687920237,435.4105687920237,437.10972937499173,437.10972937499173,437.0948399589979,,,,,,,,,,,,,,,,,,,,,,,,,,,,455631,001,2024-12-05_12h22.47.234,Test,2024.2.4,None,2024-12-05 12h22.56.208615 +0100,
7,150,30,46,None,15,15,0,,,,,,,,,,,,,,,,0,15,15,6,,,,,437.10972937499173,,,,,,,,,,,,,,,,,,,,,,,,,,,,,,,,,,,,,,,,,,,,,,,,,,,,,,,437.104729084007,437.113816209021,437.3105931250029,437.3105931250029,437.3105931250029,439.00868641701527,439.00868641701527,438.9948203340173,,,,,,,,,,,,,,,,,,,,,,,,,,,,455631,001,2024-12-05_12h22.47.234,Test,2024.2.4,None,2024-12-05 12h22.56.208615 +0100,
15,150,60,20,None,16,16,0,,,,,,,,,,,,,,,,0,16,16,14,,,,,439.00868641701527,,,,,,,,,,,,,,,,,,,,,,,,,,,,,,,,,,,,,,,,,,,,,,,,,,,,,,,439.00366087502334,439.0126181670348,439.2105051249964,439.2105051249964,439.2105051249964,440.9130672920146,440.9130672920146,440.8949641670333,,,,,,,,,,,,,,,,,,,,,,,,,,,,455631,001,2024-12-05_12h22.47.234,Test,2024.2.4,None,2024-12-05 12h22.56.208615 +0100,
9,150,30,62,None,17,17,0,,,,,,,,,,,,,,,,0,17,17,8,,,,,440.9130672920146,,,,,,,,,,,,,,,,,,,,,,,,,,,,,,,,,,,,,,,,,,,,,,,,,,,,,,,440.90859137498774,440.9270590840024,441.1090099590365,441.1090099590365,441.1274629170075,442.80998399999226,442.80998399999226,442.7947731669992,,,,,,,,,,,,,,,,,,,,,,,,,,,,455631,001,2024-12-05_12h22.47.234,Test,2024.2.4,None,2024-12-05 12h22.56.208615 +0100,
32,150,180,3,None,18,18,0,,,,,,,,,,,,,,,,0,18,18,31,,,,,442.80998399999226,,,,,,,,,,,,,,,,,,,,,,,,,,,,,,,,,,,,,,,,,,,,,,,,,,,,,,,442.8046889170073,442.8145506250439,443.0105387500371,443.0105387500371,443.0105387500371,444.70851795899216,444.70851795899216,444.69468958402285,,,,,,,,,,,,,,,,,,,,,,,,,,,,455631,001,2024-12-05_12h22.47.234,Test,2024.2.4,None,2024-12-05 12h22.56.208615 +0100,
33,150,180,27,None,19,19,0,,,,,,,,,,,,,,,,0,19,19,32,,,,,444.70851795899216,,,,,,,,,,,,,,,,,,,,,,,,,,,,,,,,,,,,,,,,,,,,,,,,,,,,,,,444.7034860000131,444.71222787501756,444.91051395901013,444.91051395901013,444.91051395901013,446.6107349169906,446.6107349169906,446.59475158399437,,,,,,,,,,,,,,,,,,,,,,,,,,,,455631,001,2024-12-05_12h22.47.234,Test,2024.2.4,None,2024-12-05 12h22.56.208615 +0100,
35,150,180,21,None,20,20,0,,,,,,,,,,,,,,,,0,20,20,34,,,,,446.6107349169906,,,,,,,,,,,,,,,,,,,,,,,,,,,,,,,,,,,,,,,,,,,,,,,,,,,,,,,446.60527291701874,446.62708766700234,446.81047762499657,446.81047762499657,446.8166589169996,448.5090160840191,448.5090160840191,448.4947500420385,,,,,,,,,,,,,,,,,,,,,,,,,,,,455631,001,2024-12-05_12h22.47.234,Test,2024.2.4,None,2024-12-05 12h22.56.208615 +0100,
18,150,90,43,None,21,21,0,,,,,,,,,,,,,,,,0,21,21,17,,,,,448.5090160840191,,,,,,,,,,,,,,,,,,,,,,,,,,,,,,,,,,,,,,,,,,,,,,,,,,,,,,,448.50383016699925,448.51380137499655,448.7105418750434,448.7105418750434,448.7105418750434,450.4092371670413,450.4092371670413,450.39488204201916,,,,,,,,,,,,,,,,,,,,,,,,,,,,455631,001,2024-12-05_12h22.47.234,Test,2024.2.4,None,2024-12-05 12h22.56.208615 +0100,
25,150,120,42,None,22,22,0,,,,,,,,,,,,,,,,0,22,22,24,,,,,450.4092371670413,,,,,,,,,,,,,,,,,,,,,,,,,,,,,,,,,,,,,,,,,,,,,,,,,,,,,,,450.4039123340044,450.41354149999097,450.61065225000493,450.61065225000493,450.61065225000493,452.3121570000076,452.3121570000076,452.29529341700254,,,,,,,,,,,,,,,,,,,,,,,,,,,,455631,001,2024-12-05_12h22.47.234,Test,2024.2.4,None,2024-12-05 12h22.56.208615 +0100,
12,150,60,59,None,23,23,0,,,,,,,,,,,,,,,,0,23,23,11,,,,,452.3121570000076,,,,,,,,,,,,,,,,,,,,,,,,,,,,,,,,,,,,,,,,,,,,,,,,,,,,,,,452.3077461250359,452.3266944999923,452.5104736670037,452.5104736670037,452.51529083400965,454.2101050839992,454.2101050839992,454.19500162499025,,,,,,,,,,,,,,,,,,,,,,,,,,,,455631,001,2024-12-05_12h22.47.234,Test,2024.2.4,None,2024-12-05 12h22.56.208615 +0100,
17,150,90,50,None,24,24,0,,,,,,,,,,,,,,,,0,24,24,16,,,,,454.2101050839992,,,,,,,,,,,,,,,,,,,,,,,,,,,,,,,,,,,,,,,,,,,,,,,,,,,,,,,454.20572804199765,454.21405858400976,454.410558084026,454.410558084026,454.410558084026,456.11086945899297,456.11086945899297,456.0951144170249,,,,,,,,,,,,,,,,,,,,,,,,,,,,455631,001,2024-12-05_12h22.47.234,Test,2024.2.4,None,2024-12-05 12h22.56.208615 +0100,
16,150,90,24,None,25,25,0,,,,,,,,,,,,,,,,0,25,25,15,,,,,456.11086945899297,,,,,,,,,,,,,,,,,,,,,,,,,,,,,,,,,,,,,,,,,,,,,,,,,,,,,,,456.10593583399896,456.1270169169875,456.31081854202785,456.31081854202785,456.3170834170305,458.00921645900235,458.00921645900235,457.99476537504233,,,,,,,,,,,,,,,,,,,,,,,,,,,,455631,001,2024-12-05_12h22.47.234,Test,2024.2.4,None,2024-12-05 12h22.56.208615 +0100,
21,150,120,60,None,26,26,0,,,,,,,,,,,,,,,,0,26,26,20,,,,,458.00921645900235,,,,,,,,,,,,,,,,,,,,,,,,,,,,,,,,,,,,,,,,,,,,,,,,,,,,,,,458.0043263339903,458.0130450000288,458.2105718340026,458.2105718340026,458.2105718340026,459.90927866700804,459.90927866700804,459.8948731670389,,,,,,,,,,,,,,,,,,,,,,,,,,,,455631,001,2024-12-05_12h22.47.234,Test,2024.2.4,None,2024-12-05 12h22.56.208615 +0100,
30,150,150,65,None,27,27,0,,,,,,,,,,,,,,,,0,27,27,29,,,,,459.90927866700804,,,,,,,,,,,,,,,,,,,,,,,,,,,,,,,,,,,,,,,,,,,,,,,,,,,,,,,459.9043403750402,459.91323545901105,460.10912116704276,460.10912116704276,460.10912116704276,461.8093749170075,461.8093749170075,461.79463291703723,,,,,,,,,,,,,,,,,,,,,,,,,,,,455631,001,2024-12-05_12h22.47.234,Test,2024.2.4,None,2024-12-05 12h22.56.208615 +0100,
5,150,0,49,None,28,28,0,,,,,,,,,,,,,,,,0,28,28,4,,,,,461.8093749170075,,,,,,,,,,,,,,,,,,,,,,,,,,,,,,,,,,,,,,,,,,,,,,,,,,,,,,,461.80413933400996,461.81319679203443,462.01050283398945,462.01050283398945,462.01050283398945,463.7102051670081,463.7102051670081,463.6949513750151,,,,,,,,,,,,,,,,,,,,,,,,,,,,455631,001,2024-12-05_12h22.47.234,Test,2024.2.4,None,2024-12-05 12h22.56.208615 +0100,
26,150,150,17,None,29,29,0,,,,,,,,,,,,,,,,0,29,29,25,,,,,463.7102051670081,,,,,,,,,,,,,,,,,,,,,,,,,,,,,,,,,,,,,,,,,,,,,,,,,,,,,,,463.70528470899444,463.71407720900606,463.91061391698895,463.91061391698895,463.91061391698895,465.6095542500261,465.6095542500261,465.594763250032,,,,,,,,,,,,,,,,,,,,,,,,,,,,455631,001,2024-12-05_12h22.47.234,Test,2024.2.4,None,2024-12-05 12h22.56.208615 +0100,
14,150,60,9,None,30,30,0,,,,,,,,,,,,,,,,0,30,30,13,,,,,465.6095542500261,,,,,,,,,,,,,,,,,,,,,,,,,,,,,,,,,,,,,,,,,,,,,,,,,,,,,,,465.604094084003,465.613545375003,465.810582584003,465.810582584003,465.810582584003,467.50908012501895,467.50908012501895,467.4945272090263,,,,,,,,,,,,,,,,,,,,,,,,,,,,455631,001,2024-12-05_12h22.47.234,Test,2024.2.4,None,2024-12-05 12h22.56.208615 +0100,
2,150,0,68,None,31,31,0,,,,,,,,,,,,,,,,0,31,31,1,,,,,467.50908012501895,,,,,,,,,,,,,,,,,,,,,,,,,,,,,,,,,,,,,,,,,,,,,,,,,,,,,,,467.50396604201524,467.513797416992,467.7105413340032,467.7105413340032,467.7105413340032,469.40881512500346,469.40881512500346,469.39480779203586,,,,,,,,,,,,,,,,,,,,,,,,,,,,455631,001,2024-12-05_12h22.47.234,Test,2024.2.4,None,2024-12-05 12h22.56.208615 +0100,
6,150,30,57,None,32,32,0,,,,,,,,,,,,,,,,0,32,32,5,,,,,469.40881512500346,,,,,,,,,,,,,,,,,,,,,,,,,,,,,,,,,,,,,,,,,,,,,,,,,,,,,,,469.4038547920063,469.41363091702806,469.61060291703325,469.61060291703325,469.61060291703325,471.3086853339919,471.3086853339919,471.2947169590043,,,,,,,,,,,,,,,,,,,,,,,,,,,,455631,001,2024-12-05_12h22.47.234,Test,2024.2.4,None,2024-12-05 12h22.56.208615 +0100,
1,150,0,52,None,33,33,0,,,,,,,,,,,,,,,,0,33,33,0,,,,,471.3086853339919,,,,,,,,,,,,,,,,,,,,,,,,,,,,,,,,,,,,,,,,,,,,,,,,,,,,,,,471.3035382920061,471.31264187500346,471.6211259170086,471.6211259170086,471.6211259170086,,,473.2163320420077,,,,,,,,,,,,,,,,,,,,,,,,,,,,455631,001,2024-12-05_12h22.47.234,Test,2024.2.4,None,2024-12-05 12h22.56.208615 +0100,
22,150,120,37,None,34,34,0,,,,,,,,,,,,,,,,0,34,34,21,,,,,473.2307776249945,,,,,,,,,,,,,,,,,,,,,,,,,,,,,,,,,,,,,,,,,,,,,,,,,,,,,,,473.22549537499435,473.2307776249945,473.41095366701484,473.41095366701484,473.42711366701405,475.0997046669945,475.0997046669945,475.0945067090215,,,,,,,,,,,,,,,,,,,,,,,,,,,,455631,001,2024-12-05_12h22.47.234,Test,2024.2.4,None,2024-12-05 12h22.56.208615 +0100,
,,,,,,,,,,,,,,,,,,,,,,,,,,,,,,,,,,,,,,,,,,,,,,,,,,,,,,,,,,,,,,,,,,,,,,,,,,,,,,,,,,,,,,,,,,,,,,475.09470408404013,475.1089444170357,475.1089444170357,478.05488787504146,space,2.9410402920329943,None,,,,,,,,,,,,,,,,,,,,,455631,001,2024-12-05_12h22.47.234,Test,2024.2.4,None,2024-12-05 12h22.56.208615 +0100,
22,150,120,37,None,0,0,0,False,,,,right,1.0812118749599904,None,,,,,,,,,,,,,0,0,0,0,478.0842573750415,,,,,,,,,,,,,,,,,,,,,,,,,,,,,,,,,,,,,,,,,,,,,,,,,,,,,,,,,,,,,,,,,,,,,,478.0746015839977,478.0842573750415,479.0820338749909,480.051752459025,480.051752459025,480.051752459025,481.1357622499927,right,1.0812118749599904,None,,,,,,,,,,,455631,001,2024-12-05_12h22.47.234,Test,2024.2.4,None,2024-12-05 12h22.56.208615 +0100,
12,150,60,59,None,1,1,0,False,,,,left,0.927849082974717,None,,,,,,,,,,,,,0,1,1,1,481.1517877500155,,,,,,,,,,,,,,,,,,,,,,,,,,,,,,,,,,,,,,,,,,,,,,,,,,,,,,,,,,,,,,,,,,,,,,481.1455385420122,481.1517877500155,482.14912975003244,483.1347564170137,483.1347564170137,483.1347564170137,484.0675593750202,left,0.927849082974717,None,,,,,,,,,,,455631,001,2024-12-05_12h22.47.234,Test,2024.2.4,None,2024-12-05 12h22.56.208615 +0100,
19,150,90,45,None,2,2,0,False,,,,right,0.8849702089792117,None,,,,,,,,,,,,,0,2,2,2,484.07992029201705,,,,,,,,,,,,,,,,,,,,,,,,,,,,,,,,,,,,,,,,,,,,,,,,,,,,,,,,,,,,,,,,,,,,,,484.0745144590037,484.07992029201705,485.0771694590221,486.0601347500342,486.0601347500342,486.0601347500342,486.95135183399543,right,0.8849702089792117,None,,,,,,,,,,,455631,001,2024-12-05_12h22.47.234,Test,2024.2.4,None,2024-12-05 12h22.56.208615 +0100,
65,150,150,58,None,3,3,0,True,,,,right,1.1950298749725334,None,,,,,,,,,,,,,0,3,3,3,486.96366804203717,,,,,,,,,,,,,,,,,,,,,,,,,,,,,,,,,,,,,,,,,,,,,,,,,,,,,,,,,,,,,,,,,,,,,,486.9584457500023,486.96366804203717,487.96050854201894,488.950686917,488.950686917,488.950686917,490.1525669170078,right,1.1950298749725334,None,,,,,,,,,,,455631,001,2024-12-05_12h22.47.234,Test,2024.2.4,None,2024-12-05 12h22.56.208615 +0100,
28,150,150,30,None,4,4,0,False,,,,left,1.7878092500031926,None,,,,,,,,,,,,,0,4,4,4,490.17359200003557,,,,,,,,,,,,,,,,,,,,,,,,,,,,,,,,,,,,,,,,,,,,,,,,,,,,,,,,,,,,,,,,,,,,,,490.1667703750427,490.17359200003557,491.1651907089981,492.1512706250069,492.1512706250069,492.1512706250069,493.94605316699017,left,1.7878092500031926,None,,,,,,,,,,,455631,001,2024-12-05_12h22.47.234,Test,2024.2.4,None,2024-12-05 12h22.56.208615 +0100,
9,150,30,62,None,5,5,0,False,,,,right,0.8349603749811649,None,,,,,,,,,,,,,0,5,5,5,493.9658831250272,,,,,,,,,,,,,,,,,,,,,,,,,,,,,,,,,,,,,,,,,,,,,,,,,,,,,,,,,,,,,,,,,,,,,,493.9596714170184,493.9658831250272,494.9604105000035,495.9426845420385,495.9426845420385,495.9426845420385,496.78016008401755,right,0.8349603749811649,None,,,,,,,,,,,455631,001,2024-12-05_12h22.47.234,Test,2024.2.4,None,2024-12-05 12h22.56.208615 +0100,
8,150,30,35,None,6,6,0,False,,,,right,0.908827957988251,None,,,,,,,,,,,,,0,6,6,6,496.7952563750441,,,,,,,,,,,,,,,,,,,,,,,,,,,,,,,,,,,,,,,,,,,,,,,,,,,,,,,,,,,,,,,,,,,,,,496.7894295839942,496.7952563750441,497.79374541703146,498.7772873340291,498.7772873340291,498.7772873340291,499.6949714590446,right,0.908827957988251,None,,,,,,,,,,,455631,001,2024-12-05_12h22.47.234,Test,2024.2.4,None,2024-12-05 12h22.56.208615 +0100,
14,150,60,9,None,7,7,0,False,,,,right,0.9000896670040675,None,,,,,,,,,,,,,0,7,7,7,499.7071003339952,,,,,,,,,,,,,,,,,,,,,,,,,,,,,,,,,,,,,,,,,,,,,,,,,,,,,,,,,,,,,,,,,,,,,,499.7013626670232,499.7071003339952,500.699295583996,501.6943530419958,501.6943530419958,501.6943530419958,502.59723800001666,right,0.9000896670040675,None,,,,,,,,,,,455631,001,2024-12-05_12h22.47.234,Test,2024.2.4,None,2024-12-05 12h22.56.208615 +0100,
44,150,30,39,None,8,8,0,True,,,,left,1.068672916968353,None,,,,,,,,,,,,,0,8,8,8,502.61450670904014,,,,,,,,,,,,,,,,,,,,,,,,,,,,,,,,,,,,,,,,,,,,,,,,,,,,,,,,,,,,,,,,,,,,,,502.607840709039,502.61450670904014,503.61052333400585,504.593844374991,504.593844374991,504.593844374991,505.6691138750175,left,1.068672916968353,None,,,,,,,,,,,455631,001,2024-12-05_12h22.47.234,Test,2024.2.4,None,2024-12-05 12h22.56.208615 +0100,
46,150,60,7,None,9,9,0,True,,,,left,0.8638501249952242,None,,,,,,,,,,,,,0,9,9,9,505.6860795840039,,,,,,,,,,,,,,,,,,,,,,,,,,,,,,,,,,,,,,,,,,,,,,,,,,,,,,,,,,,,,,,,,,,,,,505.6791065839934,505.6860795840039,506.68168933404377,507.6680918339989,507.6680918339989,507.6680918339989,508.5353929590201,left,0.8638501249952242,None,,,,,,,,,,,455631,001,2024-12-05_12h22.47.234,Test,2024.2.4,None,2024-12-05 12h22.56.208615 +0100,
48,150,60,10,None,10,10,0,True,,,,left,1.0527016670093872,None,,,,,,,,,,,,,0,10,10,10,508.55174150003586,,,,,,,,,,,,,,,,,,,,,,,,,,,,,,,,,,,,,,,,,,,,,,,,,,,,,,,,,,,,,,,,,,,,,,508.54543445899617,508.55174150003586,509.5492708749953,510.5345781670185,510.5345781670185,510.5345781670185,511.5959251670283,left,1.0527016670093872,None,,,,,,,,,,,455631,001,2024-12-05_12h22.47.234,Test,2024.2.4,None,2024-12-05 12h22.56.208615 +0100,
42,150,30,16,None,11,11,0,True,,,,right,0.8177482499741018,None,,,,,,,,,,,,,0,11,11,11,511.6127100420417,,,,,,,,,,,,,,,,,,,,,,,,,,,,,,,,,,,,,,,,,,,,,,,,,,,,,,,,,,,,,,,,,,,,,,511.6066067920183,511.6127100420417,512.6105520420242,513.5939497500076,513.5939497500076,513.5939497500076,514.4190177920391,right,0.8177482499741018,None,,,,,,,,,,,455631,001,2024-12-05_12h22.47.234,Test,2024.2.4,None,2024-12-05 12h22.56.208615 +0100,
33,150,180,27,None,12,12,0,False,,,,right,3.093142291996628,None,,,,,,,,,,,,,0,12,12,12,514.4351508340333,,,,,,,,,,,,,,,,,,,,,,,,,,,,,,,,,,,,,,,,,,,,,,,,,,,,,,,,,,,,,,,,,,,,,,514.4283343750285,514.4351508340333,515.4320978749893,516.4179337089881,516.4179337089881,516.4179337089881,519.5151980840019,right,3.093142291996628,None,519.4204524169909,519.4204524169909,519.4204524169909,,,,,,,,455631,001,2024-12-05_12h22.47.234,Test,2024.2.4,None,2024-12-05 12h22.56.208615 +0100,
54,150,90,12,None,13,13,0,True,,,,right,1.724064083013218,None,,,,,,,,,,,,,0,13,13,13,519.530057416996,,,,,,,,,,,,,,,,,,,,,,,,,,,,,,,,,,,,,,,,,,,,,,,,,,,,,,,,,,,,,,,,,,,,,,519.5229562920285,519.530057416996,520.5271781249903,521.5106294170255,521.5106294170255,521.5106294170255,523.246202084003,right,1.724064083013218,None,,,,,,,,,,,455631,001,2024-12-05_12h22.47.234,Test,2024.2.4,None,2024-12-05 12h22.56.208615 +0100,
56,150,120,25,None,14,14,0,True,,,,left,1.2363396660075523,None,,,,,,,,,,,,,0,14,14,14,523.2624587499886,,,,,,,,,,,,,,,,,,,,,,,,,,,,,,,,,,,,,,,,,,,,,,,,,,,,,,,,,,,,,,,,,,,,,,523.2563145420281,523.2624587499886,524.2604784590076,525.2440685000038,525.2440685000038,525.2440685000038,526.485467999999,left,1.2363396660075523,None,,,,,,,,,,,455631,001,2024-12-05_12h22.47.234,Test,2024.2.4,None,2024-12-05 12h22.56.208615 +0100,
30,150,150,65,None,15,15,0,False,,,,right,0.843082792009227,None,,,,,,,,,,,,,0,15,15,15,526.4978347920114,,,,,,,,,,,,,,,,,,,,,,,,,,,,,,,,,,,,,,,,,,,,,,,,,,,,,,,,,,,,,,,,,,,,,,526.4925028340076,526.4978347920114,527.4937526250142,528.4860991670284,528.4860991670284,528.4860991670284,529.3358907499933,right,0.843082792009227,None,,,,,,,,,,,455631,001,2024-12-05_12h22.47.234,Test,2024.2.4,None,2024-12-05 12h22.56.208615 +0100,
13,150,60,55,None,16,16,0,False,,,,right,0.8142005839617923,None,,,,,,,,,,,,,0,16,16,16,529.3511026250198,,,,,,,,,,,,,,,,,,,,,,,,,,,,,,,,,,,,,,,,,,,,,,,,,,,,,,,,,,,,,,,,,,,,,,529.3450962090283,529.3511026250198,530.3492346670246,531.3350817920291,531.3350817920291,531.3350817920291,532.1518731249962,right,0.8142005839617923,None,,,,,,,,,,,455631,001,2024-12-05_12h22.47.234,Test,2024.2.4,None,2024-12-05 12h22.56.208615 +0100,
20,150,90,33,None,17,17,0,False,,,,right,0.9033719999715686,None,,,,,,,,,,,,,0,17,17,17,532.1673801669967,,,,,,,,,,,,,,,,,,,,,,,,,,,,,,,,,,,,,,,,,,,,,,,,,,,,,,,,,,,,,,,,,,,,,,532.1615020839963,532.1673801669967,533.1657552919933,534.1508997500059,534.1508997500059,534.1508997500059,535.062746709038,right,0.9033719999715686,None,,,,,,,,,,,455631,001,2024-12-05_12h22.47.234,Test,2024.2.4,None,2024-12-05 12h22.56.208615 +0100,
60,150,120,67,None,18,18,0,True,,,,left,1.0626904999953695,None,,,,,,,,,,,,,0,18,18,18,535.0776412500418,,,,,,,,,,,,,,,,,,,,,,,,,,,,,,,,,,,,,,,,,,,,,,,,,,,,,,,,,,,,,,,,,,,,,,535.0715385840158,535.0776412500418,536.0651576250093,537.0605118750245,537.0605118750245,537.0605118750245,538.129289250006,left,1.0626904999953695,None,,,,,,,,,,,455631,001,2024-12-05_12h22.47.234,Test,2024.2.4,None,2024-12-05 12h22.56.208615 +0100,
18,150,90,43,None,19,19,0,False,,,,right,0.9842747500515543,None,,,,,,,,,,,,,0,19,19,19,538.1455077500432,,,,,,,,,,,,,,,,,,,,,,,,,,,,,,,,,,,,,,,,,,,,,,,,,,,,,,,,,,,,,,,,,,,,,,538.1399440839887,538.1455077500432,539.1437384170131,540.127341125044,540.127341125044,540.127341125044,541.1185242920183,right,0.9842747500515543,None,,,,,,,,,,,455631,001,2024-12-05_12h22.47.234,Test,2024.2.4,None,2024-12-05 12h22.56.208615 +0100,
10,150,30,29,None,20,20,0,False,,,,right,1.4205897499923594,None,,,,,,,,,,,,,0,20,20,20,541.13356341701,,,,,,,,,,,,,,,,,,,,,,,,,,,,,,,,,,,,,,,,,,,,,,,,,,,,,,,,,,,,,,,,,,,,,,541.1275921670021,541.13356341701,542.1271627499955,543.1175550420303,543.1175550420303,543.1175550420303,544.5458089170279,right,1.4205897499923594,None,,,,,,,,,,,455631,001,2024-12-05_12h22.47.234,Test,2024.2.4,None,2024-12-05 12h22.56.208615 +0100,
39,150,0,19,None,21,21,0,True,,,,left,1.2503498339792714,None,,,,,,,,,,,,,0,21,21,21,544.5612627920345,,,,,,,,,,,,,,,,,,,,,,,,,,,,,,,,,,,,,,,,,,,,,,,,,,,,,,,,,,,,,,,,,,,,,,544.5547896670178,544.5612627920345,545.5486254590214,546.5439092920278,546.5439092920278,546.5439092920278,547.7969163340167,left,1.2503498339792714,None,,,,,,,,,,,455631,001,2024-12-05_12h22.47.234,Test,2024.2.4,None,2024-12-05 12h22.56.208615 +0100,
52,150,90,53,None,22,22,0,True,,,,left,0.9806287499959581,None,,,,,,,,,,,,,0,22,22,22,547.8120125420392,,,,,,,,,,,,,,,,,,,,,,,,,,,,,,,,,,,,,,,,,,,,,,,,,,,,,,,,,,,,,,,,,,,,,,547.8063331249868,547.8120125420392,548.8106866670423,549.7930757920258,549.7930757920258,549.7930757920258,550.781415000034,left,0.9806287499959581,None,,,,,,,,,,,455631,001,2024-12-05_12h22.47.234,Test,2024.2.4,None,2024-12-05 12h22.56.208615 +0100,
64,150,150,4,None,23,23,0,True,,,,left,1.8959285410237499,None,,,,,,,,,,,,,0,23,23,23,550.8014507920016,,,,,,,,,,,,,,,,,,,,,,,,,,,,,,,,,,,,,,,,,,,,,,,,,,,,,,,,,,,,,,,,,,,,,,550.7936815840076,550.8014507920016,551.7984688750003,552.7773671670002,552.7773671670002,552.7773671670002,554.6793128750287,left,1.8959285410237499,None,,,,,,,,,,,455631,001,2024-12-05_12h22.47.234,Test,2024.2.4,None,2024-12-05 12h22.56.208615 +0100,
47,150,60,47,None,24,24,0,True,,,,right,1.2463985830545425,None,,,,,,,,,,,,,0,24,24,24,554.6956285000197,,,,,,,,,,,,,,,,,,,,,,,,,,,,,,,,,,,,,,,,,,,,,,,,,,,,,,,,,,,,,,,,,,,,,,554.6893351250328,554.6956285000197,555.6938433750183,556.6774681670358,556.6774681670358,556.6774681670358,557.9279364999966,right,1.2463985830545425,None,,,,,,,,,,,455631,001,2024-12-05_12h22.47.234,Test,2024.2.4,None,2024-12-05 12h22.56.208615 +0100,
27,150,150,44,None,25,25,0,False,,,,right,1.0511812079930678,None,,,,,,,,,,,,,0,25,25,25,557.9431159170344,,,,,,,,,,,,,,,,,,,,,,,,,,,,,,,,,,,,,,,,,,,,,,,,,,,,,,,,,,,,,,,,,,,,,,557.935874042043,557.9431159170344,558.9321266250336,559.9179328340106,559.9179328340106,559.9179328340106,560.979169667,right,1.0511812079930678,None,,,,,,,,,,,455631,001,2024-12-05_12h22.47.234,Test,2024.2.4,None,2024-12-05 12h22.56.208615 +0100,
24,150,120,40,None,26,26,0,False,,,,left,1.287415582977701,None,,,,,,,,,,,,,0,26,26,26,560.9945436250418,,,,,,,,,,,,,,,,,,,,,,,,,,,,,,,,,,,,,,,,,,,,,,,,,,,,,,,,,,,,,,,,,,,,,,560.9884470840334,560.9945436250418,561.9818838339997,562.9773573750281,562.9773573750281,562.9773573750281,564.2688698749989,left,1.287415582977701,None,,,,,,,,,,,455631,001,2024-12-05_12h22.47.234,Test,2024.2.4,None,2024-12-05 12h22.56.208615 +0100,
29,150,150,18,None,27,27,0,False,,,,right,1.326910375035368,None,,,,,,,,,,,,,0,27,27,27,564.283449834038,,,,,,,,,,,,,,,,,,,,,,,,,,,,,,,,,,,,,,,,,,,,,,,,,,,,,,,,,,,,,,,,,,,,,,564.2777505000122,564.283449834038,565.2771190840285,566.2672123340308,566.2672123340308,566.2672123340308,567.5968348340248,right,1.326910375035368,None,,,,,,,,,,,455631,001,2024-12-05_12h22.47.234,Test,2024.2.4,None,2024-12-05 12h22.56.208615 +0100,
45,150,30,22,None,28,28,0,True,,,,left,2.26202295901021,None,,,,,,,,,,,,,0,28,28,28,567.6125376250129,,,,,,,,,,,,,,,,,,,,,,,,,,,,,,,,,,,,,,,,,,,,,,,,,,,,,,,,,,,,,,,,,,,,,,567.606532167003,567.6125376250129,568.6103440840379,569.5933119170368,569.5933119170368,569.5933119170368,571.8625976670301,left,2.26202295901021,None,,,,,,,,,,,455631,001,2024-12-05_12h22.47.234,Test,2024.2.4,None,2024-12-05 12h22.56.208615 +0100,
67,150,180,70,None,29,29,0,True,,,,right,1.238542375038378,None,,,,,,,,,,,,,0,29,29,29,571.8761483340058,,,,,,,,,,,,,,,,,,,,,,,,,,,,,,,,,,,,,,,,,,,,,,,,,,,,,,,,,,,,,,,,,,,,,,571.8696539590019,571.8761483340058,572.8654151670053,573.8609167090035,573.8609167090035,573.8609167090035,575.102211999998,right,1.238542375038378,None,,,,,,,,,,,455631,001,2024-12-05_12h22.47.234,Test,2024.2.4,None,2024-12-05 12h22.56.208615 +0100,
55,150,90,63,None,30,30,0,True,,,,right,0.9927879169699736,None,,,,,,,,,,,,,0,30,30,30,575.1177713340148,,,,,,,,,,,,,,,,,,,,,,,,,,,,,,,,,,,,,,,,,,,,,,,,,,,,,,,,,,,,,,,,,,,,,,575.1111955840024,575.1177713340148,576.115105542005,577.1011884590262,577.1011884590262,577.1011884590262,578.0965061670286,right,0.9927879169699736,None,,,,,,,,,,,455631,001,2024-12-05_12h22.47.234,Test,2024.2.4,None,2024-12-05 12h22.56.208615 +0100,
50,150,60,38,None,31,31,0,True,,,,right,0.9778073750203475,None,,,,,,,,,,,,,0,31,31,31,578.1122376670246,,,,,,,,,,,,,,,,,,,,,,,,,,,,,,,,,,,,,,,,,,,,,,,,,,,,,,,,,,,,,,,,,,,,,,578.1057724590064,578.1122376670246,579.1091595420148,580.093854500039,580.093854500039,580.093854500039,581.0800775000243,right,0.9778073750203475,None,,,,,,,,,,,455631,001,2024-12-05_12h22.47.234,Test,2024.2.4,None,2024-12-05 12h22.56.208615 +0100,
53,150,90,51,None,32,32,0,True,,,,right,1.1173349170130678,None,,,,,,,,,,,,,0,32,32,32,581.0982110000332,,,,,,,,,,,,,,,,,,,,,,,,,,,,,,,,,,,,,,,,,,,,,,,,,,,,,,,,,,,,,,,,,,,,,,581.0915808340069,581.0982110000332,582.0939238750143,583.0772999170003,583.0772999170003,583.0772999170003,584.2055531670339,right,1.1173349170130678,None,,,,,,,,,,,455631,001,2024-12-05_12h22.47.234,Test,2024.2.4,None,2024-12-05 12h22.56.208615 +0100,
2,150,0,68,None,33,33,0,False,,,,right,1.3363019590033218,None,,,,,,,,,,,,,0,33,33,33,584.2172830420313,,,,,,,,,,,,,,,,,,,,,,,,,,,,,,,,,,,,,,,,,,,,,,,,,,,,,,,,,,,,,,,,,,,,,,584.2127040839987,584.2172830420313,585.2160775419907,586.2010222499957,586.2010222499957,586.2010222499957,587.5459042090224,right,1.3363019590033218,None,,,,,,,,,,,455631,001,2024-12-05_12h22.47.234,Test,2024.2.4,None,2024-12-05 12h22.56.208615 +0100,
37,150,0,31,None,34,34,0,True,,,,left,0.7714052080409601,None,,,,,,,,,,,,,0,34,34,34,587.5621623340412,,,,,,,,,,,,,,,,,,,,,,,,,,,,,,,,,,,,,,,,,,,,,,,,,,,,,,,,,,,,,,,,,,,,,,587.55540474999,587.5621623340412,588.5604448750382,589.5439585000277,589.5439585000277,589.5439585000277,590.3186069999938,left,0.7714052080409601,None,,,,,,,,,,,455631,001,2024-12-05_12h22.47.234,Test,2024.2.4,None,2024-12-05 12h22.56.208615 +0100,
5,150,0,49,None,35,35,0,False,,,,left,0.9169560829759575,None,,,,,,,,,,,,,0,35,35,35,590.3346815000405,,,,,,,,,,,,,,,,,,,,,,,,,,,,,,,,,,,,,,,,,,,,,,,,,,,,,,,,,,,,,,,,,,,,,,590.3285127500421,590.3346815000405,591.3327986670192,592.3181677500252,592.3181677500252,592.3181677500252,593.2461819589953,left,0.9169560829759575,None,,,,,,,,,,,455631,001,2024-12-05_12h22.47.234,Test,2024.2.4,None,2024-12-05 12h22.56.208615 +0100,
31,150,180,5,None,36,36,0,False,,,,right,0.9688836249988526,None,,,,,,,,,,,,,0,36,36,36,593.2621729170205,,,,,,,,,,,,,,,,,,,,,,,,,,,,,,,,,,,,,,,,,,,,,,,,,,,,,,,,,,,,,,,,,,,,,,593.2548298340407,593.2621729170205,594.2604450419894,595.2440229590284,595.2440229590284,595.2440229590284,596.2187062500161,right,0.9688836249988526,None,,,,,,,,,,,455631,001,2024-12-05_12h22.47.234,Test,2024.2.4,None,2024-12-05 12h22.56.208615 +0100,
69,150,180,36,None,37,37,0,True,,,,left,1.4659121250151657,None,,,,,,,,,,,,,0,37,37,37,596.2342562919948,,,,,,,,,,,,,,,,,,,,,,,,,,,,,,,,,,,,,,,,,,,,,,,,,,,,,,,,,,,,,,,,,,,,,,596.2278198340209,596.2342562919948,597.2317611670005,598.2182543340023,598.2182543340023,598.2182543340023,599.6958827500348,left,1.4659121250151657,None,,,,,,,,,,,455631,001,2024-12-05_12h22.47.234,Test,2024.2.4,None,2024-12-05 12h22.56.208615 +0100,
57,150,120,32,None,38,38,0,True,,,,right,1.1065606669872068,None,,,,,,,,,,,,,0,38,38,38,599.7120322500123,,,,,,,,,,,,,,,,,,,,,,,,,,,,,,,,,,,,,,,,,,,,,,,,,,,,,,,,,,,,,,,,,,,,,,599.7060538750375,599.7120322500123,600.7104767090059,601.6938605839969,601.6938605839969,601.6938605839969,602.8029433750198,right,1.1065606669872068,None,,,,,,,,,,,455631,001,2024-12-05_12h22.47.234,Test,2024.2.4,None,2024-12-05 12h22.56.208615 +0100,
7,150,30,46,None,39,39,0,False,,,,left,1.0992319589713588,None,,,,,,,,,,,,,0,39,39,39,602.819558667019,,,,,,,,,,,,,,,,,,,,,,,,,,,,,,,,,,,,,,,,,,,,,,,,,,,,,,,,,,,,,,,,,,,,,,602.8133507090388,602.819558667019,603.8159926669905,604.8015286250156,604.8015286250156,604.8015286250156,605.9030913750175,left,1.0992319589713588,None,,,,,,,,,,,455631,001,2024-12-05_12h22.47.234,Test,2024.2.4,None,2024-12-05 12h22.56.208615 +0100,
26,150,150,17,None,40,40,0,False,,,,right,1.1816617499571294,None,,,,,,,,,,,,,0,40,40,40,605.9204262919957,,,,,,,,,,,,,,,,,,,,,,,,,,,,,,,,,,,,,,,,,,,,,,,,,,,,,,,,,,,,,,,,,,,,,,605.9139253750327,605.9204262919957,606.9153708750382,607.9007778340019,607.9007778340019,607.9007778340019,609.0951602089917,right,1.1816617499571294,None,,,,,,,,,,,455631,001,2024-12-05_12h22.47.234,Test,2024.2.4,None,2024-12-05 12h22.56.208615 +0100,
25,150,120,42,None,41,41,0,False,,,,right,2.083766416006256,None,,,,,,,,,,,,,0,41,41,41,609.108221542032,,,,,,,,,,,,,,,,,,,,,,,,,,,,,,,,,,,,,,,,,,,,,,,,,,,,,,,,,,,,,,,,,,,,,,609.1024876669981,609.108221542032,610.0995452090283,611.0940139589948,611.0940139589948,611.0940139589948,613.1802100419882,right,2.083766416006256,None,,,,,,,,,,,455631,001,2024-12-05_12h22.47.234,Test,2024.2.4,None,2024-12-05 12h22.56.208615 +0100,
3,150,0,11,None,42,42,0,False,,,,right,0.964667416003067,None,,,,,,,,,,,,,0,42,42,42,613.1997024590382,,,,,,,,,,,,,,,,,,,,,,,,,,,,,,,,,,,,,,,,,,,,,,,,,,,,,,,,,,,,,,,,,,,,,,613.1934233750217,613.1997024590382,614.1938721670303,615.1760370840202,615.1760370840202,615.1760370840202,616.146110458998,right,0.964667416003067,None,,,,,,,,,,,455631,001,2024-12-05_12h22.47.234,Test,2024.2.4,None,2024-12-05 12h22.56.208615 +0100,
61,150,150,61,None,43,43,0,True,,,,right,1.144021457992494,None,,,,,,,,,,,,,0,43,43,43,616.1629149169894,,,,,,,,,,,,,,,,,,,,,,,,,,,,,,,,,,,,,,,,,,,,,,,,,,,,,,,,,,,,,,,,,,,,,,616.1568329590373,616.1629149169894,617.160856750037,618.1434758750256,618.1434758750256,618.1434758750256,619.2961955420324,right,1.144021457992494,None,,,,,,,,,,,455631,001,2024-12-05_12h22.47.234,Test,2024.2.4,None,2024-12-05 12h22.56.208615 +0100,
21,150,120,60,None,44,44,0,False,,,,right,0.9875404999474995,None,,,,,,,,,,,,,0,44,44,44,619.3128045420162,,,,,,,,,,,,,,,,,,,,,,,,,,,,,,,,,,,,,,,,,,,,,,,,,,,,,,,,,,,,,,,,,,,,,,619.3055079170153,619.3128045420162,620.3104750839993,621.2939125419944,621.2939125419944,621.2939125419944,622.2853295420064,right,0.9875404999474995,None,,,,,,,,,,,455631,001,2024-12-05_12h22.47.234,Test,2024.2.4,None,2024-12-05 12h22.56.208615 +0100,
23,150,120,14,None,45,45,0,False,,,,left,1.149261541024316,None,,,,,,,,,,,,,0,45,45,45,622.3009451670223,,,,,,,,,,,,,,,,,,,,,,,,,,,,,,,,,,,,,,,,,,,,,,,,,,,,,,,,,,,,,,,,,,,,,,622.2947232089937,622.3009451670223,623.298593167041,624.2844981669914,624.2844981669914,624.2844981669914,625.4361067500431,left,1.149261541024316,None,,,,,,,,,,,455631,001,2024-12-05_12h22.47.234,Test,2024.2.4,None,2024-12-05 12h22.56.208615 +0100,
38,150,0,34,None,46,46,0,True,,,,left,1.1476885000010952,None,,,,,,,,,,,,,0,46,46,46,625.4515541250003,,,,,,,,,,,,,,,,,,,,,,,,,,,,,,,,,,,,,,,,,,,,,,,,,,,,,,,,,,,,,,,,,,,,,,625.4450700420421,625.4515541250003,626.4496285420028,627.4361563750426,627.4361563750426,627.4361563750426,628.588641209004,left,1.1476885000010952,None,,,,,,,,,,,455631,001,2024-12-05_12h22.47.234,Test,2024.2.4,None,2024-12-05 12h22.56.208615 +0100,
62,150,150,13,None,47,47,0,True,,,,left,1.089430583990179,None,,,,,,,,,,,,,0,47,47,47,628.6095689590438,,,,,,,,,,,,,,,,,,,,,,,,,,,,,,,,,,,,,,,,,,,,,,,,,,,,,,,,,,,,,,,,,,,,,,628.6023180420161,628.6095689590438,629.5992525420152,630.5839198750327,630.5839198750327,630.5839198750327,631.6792875840329,left,1.089430583990179,None,,,,,,,,,,,455631,001,2024-12-05_12h22.47.234,Test,2024.2.4,None,2024-12-05 12h22.56.208615 +0100,
11,150,60,64,None,48,48,0,False,,,,right,0.8038119159755297,None,,,,,,,,,,,,,0,48,48,48,631.697730874992,,,,,,,,,,,,,,,,,,,,,,,,,,,,,,,,,,,,,,,,,,,,,,,,,,,,,,,,,,,,,,,,,,,,,,631.6902500000433,631.697730874992,632.6938504590071,633.6772288340144,633.6772288340144,633.6772288340144,634.4863644170109,right,0.8038119159755297,None,,,,,,,,,,,455631,001,2024-12-05_12h22.47.234,Test,2024.2.4,None,2024-12-05 12h22.56.208615 +0100,
15,150,60,20,None,49,49,0,False,,,,left,1.4966427499894053,None,,,,,,,,,,,,,0,49,49,49,634.5032045000116,,,,,,,,,,,,,,,,,,,,,,,,,,,,,,,,,,,,,,,,,,,,,,,,,,,,,,,,,,,,,,,,,,,,,,634.4965210839873,634.5032045000116,635.499286959006,636.4842911669984,636.4842911669984,636.4842911669984,637.9852256670129,left,1.4966427499894053,None,,,,,,,,,,,455631,001,2024-12-05_12h22.47.234,Test,2024.2.4,None,2024-12-05 12h22.56.208615 +0100,
16,150,90,24,None,50,50,0,False,,,,right,0.9597324579954147,None,,,,,,,,,,,,,0,50,50,50,637.9991485420032,,,,,,,,,,,,,,,,,,,,,,,,,,,,,,,,,,,,,,,,,,,,,,,,,,,,,,,,,,,,,,,,,,,,,,637.9930970839923,637.9991485420032,638.9932982920436,639.9845488340361,639.9845488340361,639.9845488340361,640.947115625022,right,0.9597324579954147,None,,,,,,,,,,,455631,001,2024-12-05_12h22.47.234,Test,2024.2.4,None,2024-12-05 12h22.56.208615 +0100,
35,150,180,21,None,51,51,0,False,,,,right,1.2336280409945175,None,,,,,,,,,,,,,0,51,51,51,640.9651275840006,,,,,,,,,,,,,,,,,,,,,,,,,,,,,,,,,,,,,,,,,,,,,,,,,,,,,,,,,,,,,,,,,,,,,,640.9582906670403,640.9651275840006,641.9606424589874,642.9439736250206,642.9439736250206,642.9439736250206,644.180213042011,right,1.2336280409945175,None,,,,,,,,,,,455631,001,2024-12-05_12h22.47.234,Test,2024.2.4,None,2024-12-05 12h22.56.208615 +0100,
6,150,30,57,None,52,52,0,False,,,,left,1.0713892920175567,None,,,,,,,,,,,,,0,52,52,52,644.1965715000406,,,,,,,,,,,,,,,,,,,,,,,,,,,,,,,,,,,,,,,,,,,,,,,,,,,,,,,,,,,,,,,,,,,,,,644.190581917006,644.1965715000406,645.1937524169916,646.1774124590447,646.1774124590447,646.1774124590447,647.2520182920271,left,1.0713892920175567,None,,,,,,,,,,,455631,001,2024-12-05_12h22.47.234,Test,2024.2.4,None,2024-12-05 12h22.56.208615 +0100,
4,150,0,15,None,53,53,0,False,,,,right,0.871433042048011,None,,,,,,,,,,,,,0,53,53,53,647.2672085420345,,,,,,,,,,,,,,,,,,,,,,,,,,,,,,,,,,,,,,,,,,,,,,,,,,,,,,,,,,,,,,,,,,,,,,647.2610381669947,647.2672085420345,648.2604756670189,649.2518041250296,649.2518041250296,649.2518041250296,650.1292924170266,right,0.871433042048011,None,,,,,,,,,,,455631,001,2024-12-05_12h22.47.234,Test,2024.2.4,None,2024-12-05 12h22.56.208615 +0100,
68,150,180,23,None,54,54,0,True,,,,right,1.4392515000072308,None,,,,,,,,,,,,,0,54,54,54,650.1462937500328,,,,,,,,,,,,,,,,,,,,,,,,,,,,,,,,,,,,,,,,,,,,,,,,,,,,,,,,,,,,,,,,,,,,,,650.1398357500439,650.1462937500328,651.1438776670257,652.1272494590376,652.1272494590376,652.1272494590376,653.5694940839894,right,1.4392515000072308,None,,,,,,,,,,,455631,001,2024-12-05_12h22.47.234,Test,2024.2.4,None,2024-12-05 12h22.56.208615 +0100,
43,150,30,8,None,55,55,0,True,,,,left,0.9896127079846337,None,,,,,,,,,,,,,0,55,55,55,653.5844387499965,,,,,,,,,,,,,,,,,,,,,,,,,,,,,,,,,,,,,,,,,,,,,,,,,,,,,,,,,,,,,,,,,,,,,,653.5781380840344,653.5844387499965,654.5825489590061,655.5677669590223,655.5677669590223,655.5677669590223,656.5625982499914,left,0.9896127079846337,None,,,,,,,,,,,455631,001,2024-12-05_12h22.47.234,Test,2024.2.4,None,2024-12-05 12h22.56.208615 +0100,
59,150,120,66,None,56,56,0,True,,,,left,1.5905859170015901,None,,,,,,,,,,,,,0,56,56,56,656.5772371250205,,,,,,,,,,,,,,,,,,,,,,,,,,,,,,,,,,,,,,,,,,,,,,,,,,,,,,,,,,,,,,,,,,,,,,656.5709356670268,656.5772371250205,657.5657458750065,658.5608978749951,658.5608978749951,658.5608978749951,660.1626678340253,left,1.5905859170015901,None,,,,,,,,,,,455631,001,2024-12-05_12h22.47.234,Test,2024.2.4,None,2024-12-05 12h22.56.208615 +0100,
40,150,0,56,None,57,57,0,True,,,,left,1.0078363330103457,None,,,,,,,,,,,,,0,57,57,57,660.177157750004,,,,,,,,,,,,,,,,,,,,,,,,,,,,,,,,,,,,,,,,,,,,,,,,,,,,,,,,,,,,,,,,,,,,,,660.1712277500192,660.177157750004,661.1658118750202,662.1606144999969,662.1606144999969,662.1606144999969,663.1792917090352,left,1.0078363330103457,None,,,,,,,,,,,455631,001,2024-12-05_12h22.47.234,Test,2024.2.4,None,2024-12-05 12h22.56.208615 +0100,
41,150,30,6,None,58,58,0,True,,,,right,1.008239875023719,None,,,,,,,,,,,,,0,58,58,58,663.1959653749946,,,,,,,,,,,,,,,,,,,,,,,,,,,,,,,,,,,,,,,,,,,,,,,,,,,,,,,,,,,,,,,,,,,,,,663.1901637919946,663.1959653749946,664.1937281670398,665.1772192500066,665.1772192500066,665.1772192500066,666.1961449169903,right,1.008239875023719,None,,,,,,,,,,,455631,001,2024-12-05_12h22.47.234,Test,2024.2.4,None,2024-12-05 12h22.56.208615 +0100,
17,150,90,50,None,59,59,0,False,,,,right,0.9471205829759128,None,,,,,,,,,,,,,0,59,59,59,666.2138283750392,,,,,,,,,,,,,,,,,,,,,,,,,,,,,,,,,,,,,,,,,,,,,,,,,,,,,,,,,,,,,,,,,,,,,,666.2067794590257,666.2138283750392,667.210459208989,668.193163125019,668.193163125019,668.193163125019,669.1469166669995,right,0.9471205829759128,None,,,,,,,,,,,455631,001,2024-12-05_12h22.47.234,Test,2024.2.4,None,2024-12-05 12h22.56.208615 +0100,
49,150,60,1,None,60,60,0,True,,,,right,1.2345784999779426,None,,,,,,,,,,,,,0,60,60,60,669.1654012500076,,,,,,,,,,,,,,,,,,,,,,,,,,,,,,,,,,,,,,,,,,,,,,,,,,,,,,,,,,,,,,,,,,,,,,669.1593577500316,669.1654012500076,670.16047599999,671.1438439590274,671.1438439590274,671.1438439590274,672.3858841670444,right,1.2345784999779426,None,,,,,,,,,,,455631,001,2024-12-05_12h22.47.234,Test,2024.2.4,None,2024-12-05 12h22.56.208615 +0100,
32,150,180,3,None,61,61,0,False,,,,left,1.0891625409713015,None,,,,,,,,,,,,,0,61,61,61,672.4014901670162,,,,,,,,,,,,,,,,,,,,,,,,,,,,,,,,,,,,,,,,,,,,,,,,,,,,,,,,,,,,,,,,,,,,,,672.3953249999904,672.4014901670162,673.3993192500202,674.385131374991,674.385131374991,674.385131374991,675.4795423750184,left,1.0891625409713015,None,,,,,,,,,,,455631,001,2024-12-05_12h22.47.234,Test,2024.2.4,None,2024-12-05 12h22.56.208615 +0100,
1,150,0,52,None,62,62,0,False,,,,right,0.9580791660118848,None,,,,,,,,,,,,,0,62,62,62,675.4973348340136,,,,,,,,,,,,,,,,,,,,,,,,,,,,,,,,,,,,,,,,,,,,,,,,,,,,,,,,,,,,,,,,,,,,,,675.4908031669911,675.4973348340136,676.4937577089877,677.4771647920134,677.4771647920134,677.4771647920134,678.4459635420353,right,0.9580791660118848,None,,,,,,,,,,,455631,001,2024-12-05_12h22.47.234,Test,2024.2.4,None,2024-12-05 12h22.56.208615 +0100,
66,150,180,28,None,63,63,0,True,,,,left,1.1777036659768783,None,,,,,,,,,,,,,0,63,63,63,678.461048541998,,,,,,,,,,,,,,,,,,,,,,,,,,,,,,,,,,,,,,,,,,,,,,,,,,,,,,,,,,,,,,,,,,,,,,678.4548417920014,678.461048541998,679.4486135840416,680.4439007090405,680.4439007090405,680.4439007090405,681.6294082090026,left,1.1777036659768783,None,,,,,,,,,,,455631,001,2024-12-05_12h22.47.234,Test,2024.2.4,None,2024-12-05 12h22.56.208615 +0100,
34,150,180,54,None,64,64,0,False,,,,right,1.3410003750468604,None,,,,,,,,,,,,,0,64,64,64,681.6449681670056,,,,,,,,,,,,,,,,,,,,,,,,,,,,,,,,,,,,,,,,,,,,,,,,,,,,,,,,,,,,,,,,,,,,,,681.638743833988,681.6449681670056,682.643855167029,683.6273284589988,683.6273284589988,683.6273284589988,684.9791985420161,right,1.3410003750468604,None,,,,,,,,,,,455631,001,2024-12-05_12h22.47.234,Test,2024.2.4,None,2024-12-05 12h22.56.208615 +0100,
63,150,150,2,None,65,65,0,True,,,,left,0.8928332919604145,None,,,,,,,,,,,,,0,65,65,65,684.9948416670086,,,,,,,,,,,,,,,,,,,,,,,,,,,,,,,,,,,,,,,,,,,,,,,,,,,,,,,,,,,,,,,,,,,,,,684.9884878750308,684.9948416670086,685.9937194170197,686.9772795840399,686.9772795840399,686.9772795840399,687.8792296249885,left,0.8928332919604145,None,,,,,,,,,,,455631,001,2024-12-05_12h22.47.234,Test,2024.2.4,None,2024-12-05 12h22.56.208615 +0100,
58,150,120,41,None,66,66,0,True,,,,left,1.0917253330117092,None,,,,,,,,,,,,,0,66,66,66,687.8957288340316,,,,,,,,,,,,,,,,,,,,,,,,,,,,,,,,,,,,,,,,,,,,,,,,,,,,,,,,,,,,,,,,,,,,,,687.8890855420032,687.8957288340316,688.8937315840158,689.876712333993,689.876712333993,689.876712333993,690.9794467090396,left,1.0917253330117092,None,,,,,,,,,,,455631,001,2024-12-05_12h22.47.234,Test,2024.2.4,None,2024-12-05 12h22.56.208615 +0100,
36,150,0,69,None,67,67,0,True,,,,left,0.9425774159608409,None,,,,,,,,,,,,,0,67,67,67,690.99527433404,,,,,,,,,,,,,,,,,,,,,,,,,,,,,,,,,,,,,,,,,,,,,,,,,,,,,,,,,,,,,,,,,,,,,,690.9890746250167,690.99527433404,691.9939168750425,692.9768426250084,692.9768426250084,692.9768426250084,693.929548916989,left,0.9425774159608409,None,,,,,,,,,,,455631,001,2024-12-05_12h22.47.234,Test,2024.2.4,None,2024-12-05 12h22.56.208615 +0100,
70,150,180,26,None,68,68,0,True,,,,left,1.7074500829912722,None,,,,,,,,,,,,,0,68,68,68,693.9439111670363,,,,,,,,,,,,,,,,,,,,,,,,,,,,,,,,,,,,,,,,,,,,,,,,,,,,,,,,,,,,,,,,,,,,,,693.9378694170155,693.9439111670363,694.931735042017,695.9273244999931,695.9273244999931,695.9273244999931,697.6458705420373,left,1.7074500829912722,None,,,,,,,,,,,455631,001,2024-12-05_12h22.47.234,Test,2024.2.4,None,2024-12-05 12h22.56.208615 +0100,
51,150,90,48,None,69,69,0,True,,,,left,1.9105684999958612,None,,,,,,,,,,,,,0,69,69,69,697.6625815000152,,,,,,,,,,,,,,,,,,,,,,,,,,,,,,,,,,,,,,,,,,,,,,,,,,,,,,,,,,,,,,,,,,,,,,697.6548943340313,697.6625815000152,698.6606911250274,699.6427145840134,699.6427145840134,699.6427145840134,701.563183500024,left,1.9105684999958612,None,,,,,,,,,,,455631,001,2024-12-05_12h22.47.234,Test,2024.2.4,None,2024-12-05 12h22.56.208615 +0100,
,,,,,,,,,,,,,,,,,,,,,,,,,,,,,,,,,,,,,,,,,,,,,,,,,,,,,,,,,,,,,,,,,,,,,,,,,,,,,,,,,,,,,,,,,,,,,,,,,,,,,,,,,,,,,,,,,,701.5638456250308,701.5785403749906,701.5785403749906,704.0120478339959,space,2.428608333982993,None,455631,001,2024-12-05_12h22.47.234,Test,2024.2.4,None,2024-12-05 12h22.56.208615 +0100,
