Trial_Number,Exposure_Duration,Displacement_Angle,Stimulus,Response,thisN,thisTrialN,thisRepN,Is_Distractor,key_resp_3.keys,key_resp_3.rt,key_resp_3.duration,key_resp_7.keys,key_resp_7.rt,key_resp_7.duration,trials.thisRepN,trials.thisTrialN,trials.thisN,trials.thisIndex,trials_2.thisRepN,trials_2.thisTrialN,trials_2.thisN,trials_2.thisIndex,trials_3.thisRepN,trials_3.thisTrialN,trials_3.thisN,trials_3.thisIndex,trials_4.thisRepN,trials_4.thisTrialN,trials_4.thisN,trials_4.thisIndex,thisRow.t,notes,Intro_to_experiment.started,important1_2.started,key_resp_8.started,Intro_to_experiment.stopped,key_resp_8.keys,key_resp_8.rt,key_resp_8.duration,important.started,important1.started,key_resp_4.started,important.stopped,key_resp_4.keys,key_resp_4.rt,key_resp_4.duration,training_instruction.started,key_resp_9.started,important1_3.started,training_instruction.stopped,key_resp_9.keys,key_resp_9.rt,key_resp_9.duration,training_trial.started,cross.started,image.started,aperture.started,cross.stopped,image.stopped,aperture.stopped,training_trial.stopped,New_instruction.started,text.started,key_resp_2.started,New_instruction.stopped,key_resp_2.keys,key_resp_2.rt,key_resp_2.duration,test_trial.started,cross2.started,cross2.stopped,image_2.started,key_resp_3.started,aperture_2.started,test_trial.stopped,trials_2.key_resp_3.keys,trials_2.key_resp_3.rt,trials_2.key_resp_3.duration,start_blok_2.started,key_resp_5.started,text_4.started,start_blok_2.stopped,key_resp_5.keys,key_resp_5.rt,key_resp_5.duration,training_2.started,cross_2.started,image_3.started,aperture_3.started,cross_2.stopped,image_3.stopped,aperture_3.stopped,training_2.stopped,nyeste_instruks.started,text_5.started,key_resp_6.started,nyeste_instruks.stopped,key_resp_6.keys,key_resp_6.rt,key_resp_6.duration,test_2.started,cross2_2.started,cross2_2.stopped,image_4.started,key_resp_7.started,aperture_4.started,test_2.stopped,trials_4.key_resp_7.keys,trials_4.key_resp_7.rt,trials_4.key_resp_7.duration,Instruction.started,Instruktion.started,key_resp.started,Instruction.stopped,key_resp.keys,key_resp.rt,key_resp.duration,participant,session,date,expName,psychopyVersion,frameRate,expStart,
,,,,,,,,,,,,,,,,,,,,,,,,,,,,,,,,,0.008645417023217306,0.016583458025706932,0.016583458025706932,21.504043500026455,space,21.450425749993883,None,,,,,,,,,,,,,,,,,,,,,,,,,,,,,,,,,,,,,,,,,,,,,,,,,,,,,,,,,,,,,,,,,,,,,,,,,,,,,,,459985,001,2024-11-28_10h43.38.236,Test,2024.2.4,None,2024-11-28 10h43.44.588764 +0100,
,,,,,,,,,,,,,,,,,,,,,,,,,,,,,,,,,,,,,,,,21.504139417025726,21.530913000024157,21.530913000024157,38.734982250025496,space,17.19486820898601,None,,,,,,,,,,,,,,,,,,,,,,,,,,,,,,,,,,,,,,,,,,,,,,,,,,,,,,,,,,,,,,,,,,,,,,,,459985,001,2024-11-28_10h43.38.236,Test,2024.2.4,None,2024-11-28 10h43.44.588764 +0100,
,,,,,,,,,,,,,,,,,,,,,,,,,,,,,,,,,,,,,,,,,,,,,,,38.73507487500319,38.758871000027284,38.758871000027284,48.01844583300408,space,9.25236024998594,None,,,,,,,,,,,,,,,,,,,,,,,,,,,,,,,,,,,,,,,,,,,,,,,,,,,,,,,,,,,,,,,,,459985,001,2024-11-28_10h43.38.236,Test,2024.2.4,None,2024-11-28 10h43.44.588764 +0100,
19,150,90,15,None,0,0,0,,,,,,,,0,0,0,18,,,,,,,,,,,,,48.06527870800346,,,,,,,,,,,,,,,,,,,,,,,48.05920287501067,48.06527870800346,48.21666279202327,48.21666279202327,48.25465395802166,49.91592070800834,49.91592070800834,49.90104683302343,,,,,,,,,,,,,,,,,,,,,,,,,,,,,,,,,,,,,,,,,,,,,,,,,,,,,,,,,459985,001,2024-11-28_10h43.38.236,Test,2024.2.4,None,2024-11-28 10h43.44.588764 +0100,
12,150,60,43,None,1,1,0,,,,,,,,0,1,1,11,,,,,,,,,,,,,49.91592070800834,,,,,,,,,,,,,,,,,,,,,,,49.91123550001066,49.91985270800069,50.11661004202324,50.11661004202324,50.11661004202324,51.816028333007125,51.816028333007125,51.80073450002237,,,,,,,,,,,,,,,,,,,,,,,,,,,,,,,,,,,,,,,,,,,,,,,,,,,,,,,,,459985,001,2024-11-28_10h43.38.236,Test,2024.2.4,None,2024-11-28 10h43.44.588764 +0100,
25,150,120,8,None,2,2,0,,,,,,,,0,2,2,24,,,,,,,,,,,,,51.816028333007125,,,,,,,,,,,,,,,,,,,,,,,51.81141954200575,51.833192958001746,52.01661666700966,52.01661666700966,52.02272862501559,53.715064000018174,53.715064000018174,53.70068354200339,,,,,,,,,,,,,,,,,,,,,,,,,,,,,,,,,,,,,,,,,,,,,,,,,,,,,,,,,459985,001,2024-11-28_10h43.38.236,Test,2024.2.4,None,2024-11-28 10h43.44.588764 +0100,
5,150,0,63,None,3,3,0,,,,,,,,0,3,3,4,,,,,,,,,,,,,53.715064000018174,,,,,,,,,,,,,,,,,,,,,,,53.71076100002392,53.71857037500013,53.91658795802505,53.91658795802505,53.91658795802505,55.61645225001848,55.61645225001848,55.60110600001644,,,,,,,,,,,,,,,,,,,,,,,,,,,,,,,,,,,,,,,,,,,,,,,,,,,,,,,,,459985,001,2024-11-28_10h43.38.236,Test,2024.2.4,None,2024-11-28 10h43.44.588764 +0100,
21,150,120,50,None,4,4,0,,,,,,,,0,4,4,20,,,,,,,,,,,,,55.61645225001848,,,,,,,,,,,,,,,,,,,,,,,55.61145175001002,55.6211602500116,55.8166452080186,55.8166452080186,55.8166452080186,57.51498091701069,57.51498091701069,57.5009707499994,,,,,,,,,,,,,,,,,,,,,,,,,,,,,,,,,,,,,,,,,,,,,,,,,,,,,,,,,459985,001,2024-11-28_10h43.38.236,Test,2024.2.4,None,2024-11-28 10h43.44.588764 +0100,
13,150,60,51,None,5,5,0,,,,,,,,0,5,5,12,,,,,,,,,,,,,57.51498091701069,,,,,,,,,,,,,,,,,,,,,,,57.509849667025264,57.51970304202405,57.716542417008895,57.716542417008895,57.716542417008895,59.41639320802642,59.41639320802642,59.40105562499957,,,,,,,,,,,,,,,,,,,,,,,,,,,,,,,,,,,,,,,,,,,,,,,,,,,,,,,,,459985,001,2024-11-28_10h43.38.236,Test,2024.2.4,None,2024-11-28 10h43.44.588764 +0100,
15,150,60,46,None,6,6,0,,,,,,,,0,6,6,14,,,,,,,,,,,,,59.41639320802642,,,,,,,,,,,,,,,,,,,,,,,59.4116496250208,59.42024654202396,59.616568000026746,59.616568000026746,59.616568000026746,61.314428292011144,61.314428292011144,61.30107329200837,,,,,,,,,,,,,,,,,,,,,,,,,,,,,,,,,,,,,,,,,,,,,,,,,,,,,,,,,459985,001,2024-11-28_10h43.38.236,Test,2024.2.4,None,2024-11-28 10h43.44.588764 +0100,
20,150,90,33,None,7,7,0,,,,,,,,0,7,7,19,,,,,,,,,,,,,61.314428292011144,,,,,,,,,,,,,,,,,,,,,,,61.309568042022875,61.319431042007636,61.51648458300042,61.51648458300042,61.51648458300042,63.21478020801442,63.21478020801442,63.20082054202794,,,,,,,,,,,,,,,,,,,,,,,,,,,,,,,,,,,,,,,,,,,,,,,,,,,,,,,,,459985,001,2024-11-28_10h43.38.236,Test,2024.2.4,None,2024-11-28 10h43.44.588764 +0100,
14,150,60,61,None,8,8,0,,,,,,,,0,8,8,13,,,,,,,,,,,,,63.21478020801442,,,,,,,,,,,,,,,,,,,,,,,63.20992412502528,63.21969004202401,63.416788708011154,63.416788708011154,63.416788708011154,65.1144152500201,65.1144152500201,65.10081858301419,,,,,,,,,,,,,,,,,,,,,,,,,,,,,,,,,,,,,,,,,,,,,,,,,,,,,,,,,459985,001,2024-11-28_10h43.38.236,Test,2024.2.4,None,2024-11-28 10h43.44.588764 +0100,
35,150,180,19,None,9,9,0,,,,,,,,0,9,9,34,,,,,,,,,,,,,65.1144152500201,,,,,,,,,,,,,,,,,,,,,,,65.10946750000585,65.11915179202333,65.31667220802046,65.31667220802046,65.31667220802046,67.0149964170123,67.0149964170123,67.00076241701026,,,,,,,,,,,,,,,,,,,,,,,,,,,,,,,,,,,,,,,,,,,,,,,,,,,,,,,,,459985,001,2024-11-28_10h43.38.236,Test,2024.2.4,None,2024-11-28 10h43.44.588764 +0100,
33,150,180,64,None,10,10,0,,,,,,,,0,10,10,32,,,,,,,,,,,,,67.0149964170123,,,,,,,,,,,,,,,,,,,,,,,67.0100744170195,67.0198088750185,67.21652633300982,67.21652633300982,67.21652633300982,68.91483725002035,68.91483725002035,68.90080654202029,,,,,,,,,,,,,,,,,,,,,,,,,,,,,,,,,,,,,,,,,,,,,,,,,,,,,,,,,459985,001,2024-11-28_10h43.38.236,Test,2024.2.4,None,2024-11-28 10h43.44.588764 +0100,
7,150,30,54,None,11,11,0,,,,,,,,0,11,11,6,,,,,,,,,,,,,68.91483725002035,,,,,,,,,,,,,,,,,,,,,,,68.90989420801634,68.91886125001474,69.11663154201233,69.11663154201233,69.11663154201233,70.81535425002221,70.81535425002221,70.80126079201,,,,,,,,,,,,,,,,,,,,,,,,,,,,,,,,,,,,,,,,,,,,,,,,,,,,,,,,,459985,001,2024-11-28_10h43.38.236,Test,2024.2.4,None,2024-11-28 10h43.44.588764 +0100,
1,150,0,47,None,12,12,0,,,,,,,,0,12,12,0,,,,,,,,,,,,,70.81535425002221,,,,,,,,,,,,,,,,,,,,,,,70.81054725000286,70.82006541700684,71.01663399999961,71.01663399999961,71.01663399999961,72.71384137502173,72.71384137502173,72.7008915420156,,,,,,,,,,,,,,,,,,,,,,,,,,,,,,,,,,,,,,,,,,,,,,,,,,,,,,,,,459985,001,2024-11-28_10h43.38.236,Test,2024.2.4,None,2024-11-28 10h43.44.588764 +0100,
28,150,150,24,None,13,13,0,,,,,,,,0,13,13,27,,,,,,,,,,,,,72.71384137502173,,,,,,,,,,,,,,,,,,,,,,,72.7090525830281,72.71866979202605,72.91658325001481,72.91658325001481,72.91658325001481,74.61362954200013,74.61362954200013,74.60068954201415,,,,,,,,,,,,,,,,,,,,,,,,,,,,,,,,,,,,,,,,,,,,,,,,,,,,,,,,,459985,001,2024-11-28_10h43.38.236,Test,2024.2.4,None,2024-11-28 10h43.44.588764 +0100,
10,150,30,36,None,14,14,0,,,,,,,,0,14,14,9,,,,,,,,,,,,,74.61362954200013,,,,,,,,,,,,,,,,,,,,,,,74.60881325000082,74.618346208008,74.81662470800802,74.81662470800802,74.81662470800802,76.51489387502079,76.51489387502079,76.50117537501501,,,,,,,,,,,,,,,,,,,,,,,,,,,,,,,,,,,,,,,,,,,,,,,,,,,,,,,,,459985,001,2024-11-28_10h43.38.236,Test,2024.2.4,None,2024-11-28 10h43.44.588764 +0100,
22,150,120,60,None,15,15,0,,,,,,,,0,15,15,21,,,,,,,,,,,,,76.51489387502079,,,,,,,,,,,,,,,,,,,,,,,76.5099269170023,76.52005904202815,76.71651604201179,76.71651604201179,76.71651604201179,78.41454191700905,78.41454191700905,78.40081333302078,,,,,,,,,,,,,,,,,,,,,,,,,,,,,,,,,,,,,,,,,,,,,,,,,,,,,,,,,459985,001,2024-11-28_10h43.38.236,Test,2024.2.4,None,2024-11-28 10h43.44.588764 +0100,
32,150,180,3,None,16,16,0,,,,,,,,0,16,16,31,,,,,,,,,,,,,78.41454191700905,,,,,,,,,,,,,,,,,,,,,,,78.409613292024,78.41930245800177,78.61659000001964,78.61659000001964,78.61659000001964,80.31394166700193,80.31394166700193,80.30089904202032,,,,,,,,,,,,,,,,,,,,,,,,,,,,,,,,,,,,,,,,,,,,,,,,,,,,,,,,,459985,001,2024-11-28_10h43.38.236,Test,2024.2.4,None,2024-11-28 10h43.44.588764 +0100,
9,150,30,7,None,17,17,0,,,,,,,,0,17,17,8,,,,,,,,,,,,,80.31394166700193,,,,,,,,,,,,,,,,,,,,,,,80.30918316700263,80.31869991702843,80.51668833300937,80.51668833300937,80.51668833300937,82.21456037502503,82.21456037502503,82.2007900000026,,,,,,,,,,,,,,,,,,,,,,,,,,,,,,,,,,,,,,,,,,,,,,,,,,,,,,,,,459985,001,2024-11-28_10h43.38.236,Test,2024.2.4,None,2024-11-28 10h43.44.588764 +0100,
4,150,0,6,None,18,18,0,,,,,,,,0,18,18,3,,,,,,,,,,,,,82.21456037502503,,,,,,,,,,,,,,,,,,,,,,,82.20961150000221,82.21849483301048,82.41658520800411,82.41658520800411,82.41658520800411,84.11419641700923,84.11419641700923,84.10086420801235,,,,,,,,,,,,,,,,,,,,,,,,,,,,,,,,,,,,,,,,,,,,,,,,,,,,,,,,,459985,001,2024-11-28_10h43.38.236,Test,2024.2.4,None,2024-11-28 10h43.44.588764 +0100,
24,150,120,58,None,19,19,0,,,,,,,,0,19,19,23,,,,,,,,,,,,,84.11419641700923,,,,,,,,,,,,,,,,,,,,,,,84.10919333301717,84.11919320802554,84.31663191702683,84.31663191702683,84.31663191702683,86.01565008301986,86.01565008301986,86.0012542080076,,,,,,,,,,,,,,,,,,,,,,,,,,,,,,,,,,,,,,,,,,,,,,,,,,,,,,,,,459985,001,2024-11-28_10h43.38.236,Test,2024.2.4,None,2024-11-28 10h43.44.588764 +0100,
3,150,0,27,None,20,20,0,,,,,,,,0,20,20,2,,,,,,,,,,,,,86.01565008301986,,,,,,,,,,,,,,,,,,,,,,,86.01065454201307,86.02044729201589,86.2165722080099,86.2165722080099,86.2165722080099,87.91412862500874,87.91412862500874,87.90081412502332,,,,,,,,,,,,,,,,,,,,,,,,,,,,,,,,,,,,,,,,,,,,,,,,,,,,,,,,,459985,001,2024-11-28_10h43.38.236,Test,2024.2.4,None,2024-11-28 10h43.44.588764 +0100,
29,150,150,28,None,21,21,0,,,,,,,,0,21,21,28,,,,,,,,,,,,,87.91412862500874,,,,,,,,,,,,,,,,,,,,,,,87.90942900002119,87.91889558301773,88.11660441700951,88.11660441700951,88.11660441700951,89.81434958300088,89.81434958300088,89.80093570801546,,,,,,,,,,,,,,,,,,,,,,,,,,,,,,,,,,,,,,,,,,,,,,,,,,,,,,,,,459985,001,2024-11-28_10h43.38.236,Test,2024.2.4,None,2024-11-28 10h43.44.588764 +0100,
17,150,90,32,None,22,22,0,,,,,,,,0,22,22,16,,,,,,,,,,,,,89.81434958300088,,,,,,,,,,,,,,,,,,,,,,,89.80936145802843,89.81918395802495,90.01660941701266,90.01660941701266,90.01660941701266,91.71402500002296,91.71402500002296,91.70076383301057,,,,,,,,,,,,,,,,,,,,,,,,,,,,,,,,,,,,,,,,,,,,,,,,,,,,,,,,,459985,001,2024-11-28_10h43.38.236,Test,2024.2.4,None,2024-11-28 10h43.44.588764 +0100,
18,150,90,26,None,23,23,0,,,,,,,,0,23,23,17,,,,,,,,,,,,,91.71402500002296,,,,,,,,,,,,,,,,,,,,,,,91.70930279200547,91.71797054202762,91.91679258301156,91.91679258301156,91.91679258301156,93.61433829201269,93.61433829201269,93.60079133301042,,,,,,,,,,,,,,,,,,,,,,,,,,,,,,,,,,,,,,,,,,,,,,,,,,,,,,,,,459985,001,2024-11-28_10h43.38.236,Test,2024.2.4,None,2024-11-28 10h43.44.588764 +0100,
26,150,150,42,None,24,24,0,,,,,,,,0,24,24,25,,,,,,,,,,,,,93.61433829201269,,,,,,,,,,,,,,,,,,,,,,,93.60949295799946,93.61937104200479,93.81664945802186,93.81664945802186,93.81664945802186,95.51427150002564,95.51427150002564,95.50094533301308,,,,,,,,,,,,,,,,,,,,,,,,,,,,,,,,,,,,,,,,,,,,,,,,,,,,,,,,,459985,001,2024-11-28_10h43.38.236,Test,2024.2.4,None,2024-11-28 10h43.44.588764 +0100,
16,150,90,10,None,25,25,0,,,,,,,,0,25,25,15,,,,,,,,,,,,,95.51427150002564,,,,,,,,,,,,,,,,,,,,,,,95.50940029200865,95.5192882080155,95.71670200000517,95.71670200000517,95.71670200000517,97.41411133302609,97.41411133302609,97.40079795802012,,,,,,,,,,,,,,,,,,,,,,,,,,,,,,,,,,,,,,,,,,,,,,,,,,,,,,,,,459985,001,2024-11-28_10h43.38.236,Test,2024.2.4,None,2024-11-28 10h43.44.588764 +0100,
30,150,150,1,None,26,26,0,,,,,,,,0,26,26,29,,,,,,,,,,,,,97.41411133302609,,,,,,,,,,,,,,,,,,,,,,,97.40929837501608,97.41910504200496,97.61655370800872,97.61655370800872,97.61655370800872,99.31366758301738,99.31366758301738,99.30090729202493,,,,,,,,,,,,,,,,,,,,,,,,,,,,,,,,,,,,,,,,,,,,,,,,,,,,,,,,,459985,001,2024-11-28_10h43.38.236,Test,2024.2.4,None,2024-11-28 10h43.44.588764 +0100,
31,150,180,56,None,27,27,0,,,,,,,,0,27,27,30,,,,,,,,,,,,,99.31366758301738,,,,,,,,,,,,,,,,,,,,,,,99.30872545801685,99.31847658302286,99.51657529201475,99.51657529201475,99.51657529201475,101.21397100001923,101.21397100001923,101.20080833300017,,,,,,,,,,,,,,,,,,,,,,,,,,,,,,,,,,,,,,,,,,,,,,,,,,,,,,,,,459985,001,2024-11-28_10h43.38.236,Test,2024.2.4,None,2024-11-28 10h43.44.588764 +0100,
8,150,30,57,None,28,28,0,,,,,,,,0,28,28,7,,,,,,,,,,,,,101.21397100001923,,,,,,,,,,,,,,,,,,,,,,,101.20917200000258,101.21905641700141,101.4165396669996,101.4165396669996,101.4165396669996,103.11467770801391,103.11467770801391,103.10134800002561,,,,,,,,,,,,,,,,,,,,,,,,,,,,,,,,,,,,,,,,,,,,,,,,,,,,,,,,,459985,001,2024-11-28_10h43.38.236,Test,2024.2.4,None,2024-11-28 10h43.44.588764 +0100,
6,150,30,49,None,29,29,0,,,,,,,,0,29,29,5,,,,,,,,,,,,,103.11467770801391,,,,,,,,,,,,,,,,,,,,,,,103.10974225000245,103.11940441702609,103.31665737502044,103.31665737502044,103.31665737502044,105.01394133301801,105.01394133301801,105.00070995802525,,,,,,,,,,,,,,,,,,,,,,,,,,,,,,,,,,,,,,,,,,,,,,,,,,,,,,,,,459985,001,2024-11-28_10h43.38.236,Test,2024.2.4,None,2024-11-28 10h43.44.588764 +0100,
23,150,120,18,None,30,30,0,,,,,,,,0,30,30,22,,,,,,,,,,,,,105.01394133301801,,,,,,,,,,,,,,,,,,,,,,,105.00916237500496,105.01865758301574,105.21671037501073,105.21671037501073,105.21671037501073,106.9135604170151,106.9135604170151,106.90106862501125,,,,,,,,,,,,,,,,,,,,,,,,,,,,,,,,,,,,,,,,,,,,,,,,,,,,,,,,,459985,001,2024-11-28_10h43.38.236,Test,2024.2.4,None,2024-11-28 10h43.44.588764 +0100,
11,150,60,70,None,31,31,0,,,,,,,,0,31,31,10,,,,,,,,,,,,,106.9135604170151,,,,,,,,,,,,,,,,,,,,,,,106.90877179201925,106.91832691701711,107.11657995800488,107.11657995800488,107.11657995800488,108.81415187500534,108.81415187500534,108.8010533330089,,,,,,,,,,,,,,,,,,,,,,,,,,,,,,,,,,,,,,,,,,,,,,,,,,,,,,,,,459985,001,2024-11-28_10h43.38.236,Test,2024.2.4,None,2024-11-28 10h43.44.588764 +0100,
2,150,0,55,None,32,32,0,,,,,,,,0,32,32,1,,,,,,,,,,,,,108.81415187500534,,,,,,,,,,,,,,,,,,,,,,,108.80925287501304,108.8191646670166,109.01665391700226,109.01665391700226,109.01665391700226,110.71448129200144,110.71448129200144,110.70106312501593,,,,,,,,,,,,,,,,,,,,,,,,,,,,,,,,,,,,,,,,,,,,,,,,,,,,,,,,,459985,001,2024-11-28_10h43.38.236,Test,2024.2.4,None,2024-11-28 10h43.44.588764 +0100,
27,150,150,35,None,33,33,0,,,,,,,,0,33,33,26,,,,,,,,,,,,,110.71448129200144,,,,,,,,,,,,,,,,,,,,,,,110.70971179200569,110.71941070799949,110.91651854201336,110.91651854201336,110.91651854201336,112.6143037500151,112.6143037500151,112.60081891700975,,,,,,,,,,,,,,,,,,,,,,,,,,,,,,,,,,,,,,,,,,,,,,,,,,,,,,,,,459985,001,2024-11-28_10h43.38.236,Test,2024.2.4,None,2024-11-28 10h43.44.588764 +0100,
34,150,180,40,None,34,34,0,,,,,,,,0,34,34,33,,,,,,,,,,,,,112.6143037500151,,,,,,,,,,,,,,,,,,,,,,,112.60937750001904,112.61914966700715,112.8166077080241,112.8166077080241,112.8166077080241,114.5068646670261,114.5068646670261,114.50137883302523,,,,,,,,,,,,,,,,,,,,,,,,,,,,,,,,,,,,,,,,,,,,,,,,,,,,,,,,,459985,001,2024-11-28_10h43.38.236,Test,2024.2.4,None,2024-11-28 10h43.44.588764 +0100,
,,,,,,,,,,,,,,,,,,,,,,,,,,,,,,,,,,,,,,,,,,,,,,,,,,,,,,,,,,,,,,114.50166687500314,114.51497941702837,114.51497941702837,130.96874608300277,space,16.443396167014726,None,,,,,,,,,,,,,,,,,,,,,,,,,,,,,,,,,,,,,,,,,,,,,,,,,,459985,001,2024-11-28_10h43.38.236,Test,2024.2.4,None,2024-11-28 10h43.44.588764 +0100,
45,150,30,53,None,0,0,0,True,left,0.7209593330044299,None,,,,,,,,0,0,0,0,,,,,,,,,131.00006729201414,,,,,,,,,,,,,,,,,,,,,,,,,,,,,,,,,,,,,,130.9913257920125,131.00006729201414,131.9881833330146,132.9666394170199,132.9666394170199,132.9666394170199,133.69132658300805,left,0.7209593330044299,None,,,,,,,,,,,,,,,,,,,,,,,,,,,,,,,,,,,,,,,,459985,001,2024-11-28_10h43.38.236,Test,2024.2.4,None,2024-11-28 10h43.44.588764 +0100,
50,150,60,68,None,1,1,0,True,right,0.7606500420079101,None,,,,,,,,0,1,1,1,,,,,,,,,133.85258316702675,,,,,,,,,,,,,,,,,,,,,,,,,,,,,,,,,,,,,,133.69931941700634,133.85258316702675,134.84981987500214,135.69021137501113,135.69021137501113,135.69021137501113,136.4578351250093,right,0.7606500420079101,None,,,,,,,,,,,,,,,,,,,,,,,,,,,,,,,,,,,,,,,,459985,001,2024-11-28_10h43.38.236,Test,2024.2.4,None,2024-11-28 10h43.44.588764 +0100,
60,150,120,37,None,2,2,0,True,right,0.7030384590034373,None,,,,,,,,0,2,2,2,,,,,,,,,136.4731960830104,,,,,,,,,,,,,,,,,,,,,,,,,,,,,,,,,,,,,,136.46681558300043,136.4731960830104,137.46667341701686,138.4569531250163,138.4569531250163,138.4569531250163,139.16875550002442,right,0.7030384590034373,None,,,,,,,,,,,,,,,,,,,,,,,,,,,,,,,,,,,,,,,,459985,001,2024-11-28_10h43.38.236,Test,2024.2.4,None,2024-11-28 10h43.44.588764 +0100,
20,150,90,33,None,3,3,0,False,right,0.874280957999872,None,,,,,,,,0,3,3,3,,,,,,,,,139.18501179202576,,,,,,,,,,,,,,,,,,,,,,,,,,,,,,,,,,,,,,139.17767820801237,139.18501179202576,140.1832628750126,141.1665924580011,141.1665924580011,141.1665924580011,142.05267454200657,right,0.874280957999872,None,,,,,,,,,,,,,,,,,,,,,,,,,,,,,,,,,,,,,,,,459985,001,2024-11-28_10h43.38.236,Test,2024.2.4,None,2024-11-28 10h43.44.588764 +0100,
37,150,0,11,None,4,4,0,True,right,0.7136222499830183,None,,,,,,,,0,4,4,4,,,,,,,,,142.06837470800383,,,,,,,,,,,,,,,,,,,,,,,,,,,,,,,,,,,,,,142.06150775001151,142.06837470800383,143.06658691700432,144.04993729200214,144.04993729200214,144.04993729200214,144.76944329202524,right,0.7136222499830183,None,,,,,,,,,,,,,,,,,,,,,,,,,,,,,,,,,,,,,,,,459985,001,2024-11-28_10h43.38.236,Test,2024.2.4,None,2024-11-28 10h43.44.588764 +0100,
63,150,150,23,None,5,5,0,True,left,1.2275147920008749,None,,,,,,,,0,5,5,5,,,,,,,,,144.78535304201068,,,,,,,,,,,,,,,,,,,,,,,,,,,,,,,,,,,,,,144.77919616701547,144.78535304201068,145.78318495801068,146.76669866702287,146.76669866702287,146.76669866702287,148.00184079201426,left,1.2275147920008749,None,,,,,,,,,,,,,,,,,,,,,,,,,,,,,,,,,,,,,,,,459985,001,2024-11-28_10h43.38.236,Test,2024.2.4,None,2024-11-28 10h43.44.588764 +0100,
61,150,150,59,None,6,6,0,True,right,0.8476098329992965,None,,,,,,,,0,6,6,6,,,,,,,,,148.016909167025,,,,,,,,,,,,,,,,,,,,,,,,,,,,,,,,,,,,,,148.01045566701214,148.016909167025,149.0042798750219,149.99986258300487,149.99986258300487,149.99986258300487,150.8517535420251,right,0.8476098329992965,None,,,,,,,,,,,,,,,,,,,,,,,,,,,,,,,,,,,,,,,,459985,001,2024-11-28_10h43.38.236,Test,2024.2.4,None,2024-11-28 10h43.44.588764 +0100,
56,150,120,38,None,7,7,0,True,right,1.0667305419920012,None,,,,,,,,0,7,7,7,,,,,,,,,150.8666083330172,,,,,,,,,,,,,,,,,,,,,,,,,,,,,,,,,,,,,,150.86036895800498,150.8666083330172,151.85555741700227,152.84996908300673,152.84996908300673,152.84996908300673,153.91895054202178,right,1.0667305419920012,None,,,,,,,,,,,,,,,,,,,,,,,,,,,,,,,,,,,,,,,,459985,001,2024-11-28_10h43.38.236,Test,2024.2.4,None,2024-11-28 10h43.44.588764 +0100,
38,150,0,67,None,8,8,0,True,left,1.3687880839861464,None,,,,,,,,0,8,8,8,,,,,,,,,153.93426925002132,,,,,,,,,,,,,,,,,,,,,,,,,,,,,,,,,,,,,,153.92772458301624,153.93426925002132,154.93312266701832,155.91653841701918,155.91653841701918,155.91653841701918,157.29183091700543,left,1.3687880839861464,None,,,,,,,,,,,,,,,,,,,,,,,,,,,,,,,,,,,,,,,,459985,001,2024-11-28_10h43.38.236,Test,2024.2.4,None,2024-11-28 10h43.44.588764 +0100,
26,150,150,42,None,9,9,0,False,right,1.1393684170034248,None,,,,,,,,0,9,9,9,,,,,,,,,157.30613575002644,,,,,,,,,,,,,,,,,,,,,,,,,,,,,,,,,,,,,,157.2992999580165,157.30613575002644,158.29986887500854,159.29075262500555,159.29075262500555,159.29075262500555,160.43574575000093,right,1.1393684170034248,None,,,,,,,,,,,,,,,,,,,,,,,,,,,,,,,,,,,,,,,,459985,001,2024-11-28_10h43.38.236,Test,2024.2.4,None,2024-11-28 10h43.44.588764 +0100,
64,150,150,21,None,10,10,0,True,left,1.1339984580117743,None,,,,,,,,0,10,10,10,,,,,,,,,160.45144741702825,,,,,,,,,,,,,,,,,,,,,,,,,,,,,,,,,,,,,,160.44464445800986,160.45144741702825,161.44984795802156,162.43325125001138,162.43325125001138,162.43325125001138,163.57044529201812,left,1.1339984580117743,None,,,,,,,,,,,,,,,,,,,,,,,,,,,,,,,,,,,,,,,,459985,001,2024-11-28_10h43.38.236,Test,2024.2.4,None,2024-11-28 10h43.44.588764 +0100,
69,150,180,25,None,11,11,0,True,left,0.8267692080116831,None,,,,,,,,0,11,11,11,,,,,,,,,163.58560362501885,,,,,,,,,,,,,,,,,,,,,,,,,,,,,,,,,,,,,,163.5795644580212,163.58560362501885,164.58312616701005,165.56701858300949,165.56701858300949,165.56701858300949,166.40206229200703,left,0.8267692080116831,None,,,,,,,,,,,,,,,,,,,,,,,,,,,,,,,,,,,,,,,,459985,001,2024-11-28_10h43.38.236,Test,2024.2.4,None,2024-11-28 10h43.44.588764 +0100,
28,150,150,24,None,12,12,0,False,right,0.7169159579789266,None,,,,,,,,0,12,12,12,,,,,,,,,166.41660516700358,,,,,,,,,,,,,,,,,,,,,,,,,,,,,,,,,,,,,,166.40970379201462,166.41660516700358,167.40512604202377,168.40001608300372,168.40001608300372,168.40001608300372,169.1199024170055,right,0.7169159579789266,None,,,,,,,,,,,,,,,,,,,,,,,,,,,,,,,,,,,,,,,,459985,001,2024-11-28_10h43.38.236,Test,2024.2.4,None,2024-11-28 10h43.44.588764 +0100,
3,150,0,27,None,13,13,0,False,left,0.8500496249762364,None,,,,,,,,0,13,13,13,,,,,,,,,169.134727208002,,,,,,,,,,,,,,,,,,,,,,,,,,,,,,,,,,,,,,169.12774233301752,169.134727208002,170.13315675000194,171.11658204201376,171.11658204201376,171.11658204201376,171.9694566670223,left,0.8500496249762364,None,,,,,,,,,,,,,,,,,,,,,,,,,,,,,,,,,,,,,,,,459985,001,2024-11-28_10h43.38.236,Test,2024.2.4,None,2024-11-28 10h43.44.588764 +0100,
14,150,60,61,None,14,14,0,False,right,1.0059438329772092,None,,,,,,,,0,14,14,14,,,,,,,,,171.98399966701982,,,,,,,,,,,,,,,,,,,,,,,,,,,,,,,,,,,,,,171.97727266701986,171.98399966701982,172.9709248750005,173.96668400001363,173.96668400001363,173.96668400001363,174.97499570800574,right,1.0059438329772092,None,,,,,,,,,,,,,,,,,,,,,,,,,,,,,,,,,,,,,,,,459985,001,2024-11-28_10h43.38.236,Test,2024.2.4,None,2024-11-28 10h43.44.588764 +0100,
12,150,60,43,None,15,15,0,False,right,0.7317432499839924,None,,,,,,,,0,15,15,15,,,,,,,,,174.99062245801906,,,,,,,,,,,,,,,,,,,,,,,,,,,,,,,,,,,,,,174.98408620801638,174.99062245801906,175.98795750000863,176.973918417003,176.973918417003,176.973918417003,177.70832283300115,right,0.7317432499839924,None,,,,,,,,,,,,,,,,,,,,,,,,,,,,,,,,,,,,,,,,459985,001,2024-11-28_10h43.38.236,Test,2024.2.4,None,2024-11-28 10h43.44.588764 +0100,
59,150,120,12,None,16,16,0,True,left,0.8280123329896014,None,,,,,,,,0,16,16,16,,,,,,,,,177.72171008301666,,,,,,,,,,,,,,,,,,,,,,,,,,,,,,,,,,,,,,177.7160578330222,177.72171008301666,178.7167537920177,179.7078404580243,179.7078404580243,179.7078404580243,180.54195720801363,left,0.8280123329896014,None,,,,,,,,,,,,,,,,,,,,,,,,,,,,,,,,,,,,,,,,459985,001,2024-11-28_10h43.38.236,Test,2024.2.4,None,2024-11-28 10h43.44.588764 +0100,
33,150,180,64,None,17,17,0,False,right,0.9648355410026852,None,,,,,,,,0,17,17,17,,,,,,,,,180.5564210000157,,,,,,,,,,,,,,,,,,,,,,,,,,,,,,,,,,,,,,180.54957841700525,180.5564210000157,181.54984466702444,182.5404037500266,182.5404037500266,182.5404037500266,183.5080842919997,right,0.9648355410026852,None,,,,,,,,,,,,,,,,,,,,,,,,,,,,,,,,,,,,,,,,459985,001,2024-11-28_10h43.38.236,Test,2024.2.4,None,2024-11-28 10h43.44.588764 +0100,
57,150,120,14,None,18,18,0,True,left,0.9217386250093114,None,,,,,,,,0,18,18,18,,,,,,,,,183.52194187502027,,,,,,,,,,,,,,,,,,,,,,,,,,,,,,,,,,,,,,183.51597679202678,183.52194187502027,184.5166990830039,185.50716433301568,185.50716433301568,185.50716433301568,186.4352095000213,left,0.9217386250093114,None,,,,,,,,,,,,,,,,,,,,,,,,,,,,,,,,,,,,,,,,459985,001,2024-11-28_10h43.38.236,Test,2024.2.4,None,2024-11-28 10h43.44.588764 +0100,
9,150,30,7,None,19,19,0,False,left,0.8801610000082292,None,,,,,,,,0,19,19,19,,,,,,,,,186.44867591702496,,,,,,,,,,,,,,,,,,,,,,,,,,,,,,,,,,,,,,186.44244408301893,186.44867591702496,187.4383360420179,188.43352837502607,188.43352837502607,188.43352837502607,189.31920787499985,left,0.8801610000082292,None,,,,,,,,,,,,,,,,,,,,,,,,,,,,,,,,,,,,,,,,459985,001,2024-11-28_10h43.38.236,Test,2024.2.4,None,2024-11-28 10h43.44.588764 +0100,
68,150,180,69,None,20,20,0,True,right,0.6050733339798171,None,,,,,,,,0,20,20,20,,,,,,,,,189.33426887501264,,,,,,,,,,,,,,,,,,,,,,,,,,,,,,,,,,,,,,189.3278993750282,189.33426887501264,190.3330994170101,191.31670741701964,191.31670741701964,191.31670741701964,191.92507541700616,right,0.6050733339798171,None,,,,,,,,,,,,,,,,,,,,,,,,,,,,,,,,,,,,,,,,459985,001,2024-11-28_10h43.38.236,Test,2024.2.4,None,2024-11-28 10h43.44.588764 +0100,
40,150,0,16,None,21,21,0,True,left,0.9433022919984069,None,,,,,,,,0,21,21,21,,,,,,,,,191.93968320800923,,,,,,,,,,,,,,,,,,,,,,,,,,,,,,,,,,,,,,191.9330909170094,191.93968320800923,192.93309712500195,193.9233722500212,193.9233722500212,193.9233722500212,194.86952712500351,left,0.9433022919984069,None,,,,,,,,,,,,,,,,,,,,,,,,,,,,,,,,,,,,,,,,459985,001,2024-11-28_10h43.38.236,Test,2024.2.4,None,2024-11-28 10h43.44.588764 +0100,
24,150,120,58,None,22,22,0,False,right,0.7013064580096398,None,,,,,,,,0,22,22,22,,,,,,,,,194.88384000002407,,,,,,,,,,,,,,,,,,,,,,,,,,,,,,,,,,,,,,194.87732795800548,194.88384000002407,195.87149354201392,196.8669197500276,196.8669197500276,196.8669197500276,197.57550358300796,right,0.7013064580096398,None,,,,,,,,,,,,,,,,,,,,,,,,,,,,,,,,,,,,,,,,459985,001,2024-11-28_10h43.38.236,Test,2024.2.4,None,2024-11-28 10h43.44.588764 +0100,
39,150,0,66,None,23,23,0,True,left,0.7178617089812178,None,,,,,,,,0,23,23,23,,,,,,,,,197.5903320000216,,,,,,,,,,,,,,,,,,,,,,,,,,,,,,,,,,,,,,197.5840503750078,197.5903320000216,198.58806008301326,199.57319254201138,199.57319254201138,199.57319254201138,200.3020052080101,left,0.7178617089812178,None,,,,,,,,,,,,,,,,,,,,,,,,,,,,,,,,,,,,,,,,459985,001,2024-11-28_10h43.38.236,Test,2024.2.4,None,2024-11-28 10h43.44.588764 +0100,
47,150,60,9,None,24,24,0,True,right,0.7969952500134241,None,,,,,,,,0,24,24,24,,,,,,,,,200.31602904200554,,,,,,,,,,,,,,,,,,,,,,,,,,,,,,,,,,,,,,200.3100474580133,200.31602904200554,201.31675729202107,202.3000666250009,202.3000666250009,202.3000666250009,203.10177900001872,right,0.7969952500134241,None,,,,,,,,,,,,,,,,,,,,,,,,,,,,,,,,,,,,,,,,459985,001,2024-11-28_10h43.38.236,Test,2024.2.4,None,2024-11-28 10h43.44.588764 +0100,
35,150,180,19,None,25,25,0,False,right,0.9220239169953857,None,,,,,,,,0,25,25,25,,,,,,,,,203.11697125001228,,,,,,,,,,,,,,,,,,,,,,,,,,,,,,,,,,,,,,203.11011075001443,203.11697125001228,204.10471604202758,205.09937662500306,205.09937662500306,205.09937662500306,206.02497929200763,right,0.9220239169953857,None,,,,,,,,,,,,,,,,,,,,,,,,,,,,,,,,,,,,,,,,459985,001,2024-11-28_10h43.38.236,Test,2024.2.4,None,2024-11-28 10h43.44.588764 +0100,
18,150,90,26,None,26,26,0,False,right,0.8008340829983354,None,,,,,,,,0,26,26,26,,,,,,,,,206.03827200000524,,,,,,,,,,,,,,,,,,,,,,,,,,,,,,,,,,,,,,206.03229683300015,206.03827200000524,207.03315120801562,208.02332295800443,208.02332295800443,208.02332295800443,208.83525508301682,right,0.8008340829983354,None,,,,,,,,,,,,,,,,,,,,,,,,,,,,,,,,,,,,,,,,459985,001,2024-11-28_10h43.38.236,Test,2024.2.4,None,2024-11-28 10h43.44.588764 +0100,
1,150,0,47,None,27,27,0,False,left,0.8411873750155792,None,,,,,,,,0,27,27,27,,,,,,,,,208.84996433299966,,,,,,,,,,,,,,,,,,,,,,,,,,,,,,,,,,,,,,208.84381658301572,208.84996433299966,209.83815029202378,210.8334627080185,210.8334627080185,210.8334627080185,211.68532983300975,left,0.8411873750155792,None,,,,,,,,,,,,,,,,,,,,,,,,,,,,,,,,,,,,,,,,459985,001,2024-11-28_10h43.38.236,Test,2024.2.4,None,2024-11-28 10h43.44.588764 +0100,
51,150,90,5,None,28,28,0,True,left,0.8501768329879269,None,,,,,,,,0,28,28,28,,,,,,,,,211.70104912502575,,,,,,,,,,,,,,,,,,,,,,,,,,,,,,,,,,,,,,211.69417912501376,211.70104912502575,212.69996654201532,213.68359337502625,213.68359337502625,213.68359337502625,214.53658541702316,left,0.8501768329879269,None,,,,,,,,,,,,,,,,,,,,,,,,,,,,,,,,,,,,,,,,459985,001,2024-11-28_10h43.38.236,Test,2024.2.4,None,2024-11-28 10h43.44.588764 +0100,
44,150,30,41,None,29,29,0,True,left,0.866792125016218,None,,,,,,,,0,29,29,29,,,,,,,,,214.55048291702406,,,,,,,,,,,,,,,,,,,,,,,,,,,,,,,,,,,,,,214.54452108300757,214.55048291702406,215.53856025001733,216.53323983302107,216.53323983302107,216.53323983302107,217.40295862502535,left,0.866792125016218,None,,,,,,,,,,,,,,,,,,,,,,,,,,,,,,,,,,,,,,,,459985,001,2024-11-28_10h43.38.236,Test,2024.2.4,None,2024-11-28 10h43.44.588764 +0100,
21,150,120,50,None,30,30,0,False,left,0.9727640000055544,None,,,,,,,,0,30,30,30,,,,,,,,,217.41747991699958,,,,,,,,,,,,,,,,,,,,,,,,,,,,,,,,,,,,,,217.4117299580248,217.41747991699958,218.41659695800627,219.40002704202197,219.40002704202197,219.40002704202197,220.37496533300146,left,0.9727640000055544,None,,,,,,,,,,,,,,,,,,,,,,,,,,,,,,,,,,,,,,,,459985,001,2024-11-28_10h43.38.236,Test,2024.2.4,None,2024-11-28 10h43.44.588764 +0100,
16,150,90,10,None,31,31,0,False,right,0.9632358749804553,None,,,,,,,,0,31,31,31,,,,,,,,,220.39031754201278,,,,,,,,,,,,,,,,,,,,,,,,,,,,,,,,,,,,,,220.384142875002,220.39031754201278,221.3881647500093,222.37352079202537,222.37352079202537,222.37352079202537,223.34161870801472,right,0.9632358749804553,None,,,,,,,,,,,,,,,,,,,,,,,,,,,,,,,,,,,,,,,,459985,001,2024-11-28_10h43.38.236,Test,2024.2.4,None,2024-11-28 10h43.44.588764 +0100,
58,150,120,48,None,32,32,0,True,right,1.0643404579896014,None,,,,,,,,0,32,32,32,,,,,,,,,223.35538854202605,,,,,,,,,,,,,,,,,,,,,,,,,,,,,,,,,,,,,,223.3496618750214,223.35538854202605,224.34987100001308,225.34087500002352,225.34087500002352,225.34087500002352,226.40850087502622,right,1.0643404579896014,None,,,,,,,,,,,,,,,,,,,,,,,,,,,,,,,,,,,,,,,,459985,001,2024-11-28_10h43.38.236,Test,2024.2.4,None,2024-11-28 10h43.44.588764 +0100,
62,150,150,4,None,33,33,0,True,right,0.9016174589924049,None,,,,,,,,0,33,33,33,,,,,,,,,226.42321737500606,,,,,,,,,,,,,,,,,,,,,,,,,,,,,,,,,,,,,,226.41725716702058,226.42321737500606,227.42137662501773,228.40781329202582,228.40781329202582,228.40781329202582,229.3187968750135,right,0.9016174589924049,None,,,,,,,,,,,,,,,,,,,,,,,,,,,,,,,,,,,,,,,,459985,001,2024-11-28_10h43.38.236,Test,2024.2.4,None,2024-11-28 10h43.44.588764 +0100,
46,150,60,45,None,34,34,0,True,left,0.69389916700311,None,,,,,,,,0,34,34,34,,,,,,,,,229.33409458302776,,,,,,,,,,,,,,,,,,,,,,,,,,,,,,,,,,,,,,229.32746875000885,229.33409458302776,230.32154958302272,231.31684170800145,231.31684170800145,231.31684170800145,232.0184129580157,left,0.69389916700311,None,,,,,,,,,,,,,,,,,,,,,,,,,,,,,,,,,,,,,,,,459985,001,2024-11-28_10h43.38.236,Test,2024.2.4,None,2024-11-28 10h43.44.588764 +0100,
11,150,60,70,None,35,35,0,False,left,0.8673407080059405,None,,,,,,,,0,35,35,35,,,,,,,,,232.0323745420028,,,,,,,,,,,,,,,,,,,,,,,,,,,,,,,,,,,,,,232.02514595800312,232.0323745420028,233.02151458300068,234.01672962500015,234.01672962500015,234.01672962500015,234.89485441701254,left,0.8673407080059405,None,,,,,,,,,,,,,,,,,,,,,,,,,,,,,,,,,,,,,,,,459985,001,2024-11-28_10h43.38.236,Test,2024.2.4,None,2024-11-28 10h43.44.588764 +0100,
22,150,120,60,None,36,36,0,False,left,0.8621117910079192,None,,,,,,,,0,36,36,36,,,,,,,,,234.90669437500765,,,,,,,,,,,,,,,,,,,,,,,,,,,,,,,,,,,,,,234.90211379202083,234.90669437500765,235.90487479200237,236.8897710420133,236.8897710420133,236.8897710420133,237.75823250002577,left,0.8621117910079192,None,,,,,,,,,,,,,,,,,,,,,,,,,,,,,,,,,,,,,,,,459985,001,2024-11-28_10h43.38.236,Test,2024.2.4,None,2024-11-28 10h43.44.588764 +0100,
17,150,90,32,None,37,37,0,False,right,0.8971090419800021,None,,,,,,,,0,37,37,37,,,,,,,,,237.77416079200339,,,,,,,,,,,,,,,,,,,,,,,,,,,,,,,,,,,,,,237.76742395802285,237.77416079200339,238.77218391702627,239.7567319170048,239.7567319170048,239.7567319170048,240.6579192080244,right,0.8971090419800021,None,,,,,,,,,,,,,,,,,,,,,,,,,,,,,,,,,,,,,,,,459985,001,2024-11-28_10h43.38.236,Test,2024.2.4,None,2024-11-28 10h43.44.588764 +0100,
23,150,120,18,None,38,38,0,False,left,0.9493617920088582,None,,,,,,,,0,38,38,38,,,,,,,,,240.67260137500125,,,,,,,,,,,,,,,,,,,,,,,,,,,,,,,,,,,,,,240.66674616700038,240.67260137500125,241.66661450001993,242.65765620800084,242.65765620800084,242.65765620800084,243.61699841701193,left,0.9493617920088582,None,,,,,,,,,,,,,,,,,,,,,,,,,,,,,,,,,,,,,,,,459985,001,2024-11-28_10h43.38.236,Test,2024.2.4,None,2024-11-28 10h43.44.588764 +0100,
15,150,60,46,None,39,39,0,False,left,1.2299625000159722,None,,,,,,,,0,39,39,39,,,,,,,,,243.62939895800082,,,,,,,,,,,,,,,,,,,,,,,,,,,,,,,,,,,,,,243.624731583026,243.62939895800082,244.62119254202116,245.60740191701916,245.60740191701916,245.60740191701916,246.84186391701223,left,1.2299625000159722,None,,,,,,,,,,,,,,,,,,,,,,,,,,,,,,,,,,,,,,,,459985,001,2024-11-28_10h43.38.236,Test,2024.2.4,None,2024-11-28 10h43.44.588764 +0100,
66,150,180,62,None,40,40,0,True,right,0.9394972909940407,None,,,,,,,,0,40,40,40,,,,,,,,,246.8561884170049,,,,,,,,,,,,,,,,,,,,,,,,,,,,,,,,,,,,,,246.8502238750225,246.8561884170049,247.85008925001603,248.84029008302605,248.84029008302605,248.84029008302605,249.78547300002538,right,0.9394972909940407,None,,,,,,,,,,,,,,,,,,,,,,,,,,,,,,,,,,,,,,,,459985,001,2024-11-28_10h43.38.236,Test,2024.2.4,None,2024-11-28 10h43.44.588764 +0100,
43,150,30,2,None,41,41,0,True,right,1.0510171669884585,None,,,,,,,,0,41,41,41,,,,,,,,,249.79933400001028,,,,,,,,,,,,,,,,,,,,,,,,,,,,,,,,,,,,,,249.79281287500635,249.79933400001028,250.7877908750088,251.7834151670104,251.7834151670104,251.7834151670104,252.84177045800607,right,1.0510171669884585,None,,,,,,,,,,,,,,,,,,,,,,,,,,,,,,,,,,,,,,,,459985,001,2024-11-28_10h43.38.236,Test,2024.2.4,None,2024-11-28 10h43.44.588764 +0100,
53,150,90,39,None,42,42,0,True,left,0.8330040000146255,None,,,,,,,,0,42,42,42,,,,,,,,,252.85722512501525,,,,,,,,,,,,,,,,,,,,,,,,,,,,,,,,,,,,,,252.8507300830097,252.85722512501525,253.85485537501518,254.84160574999987,254.84160574999987,254.84160574999987,255.68536900001345,left,0.8330040000146255,None,,,,,,,,,,,,,,,,,,,,,,,,,,,,,,,,,,,,,,,,459985,001,2024-11-28_10h43.38.236,Test,2024.2.4,None,2024-11-28 10h43.44.588764 +0100,
25,150,120,8,None,43,43,0,False,right,0.7895745830028318,None,,,,,,,,0,43,43,43,,,,,,,,,255.700777458027,,,,,,,,,,,,,,,,,,,,,,,,,,,,,,,,,,,,,,255.69416483302484,255.700777458027,256.68768970802194,257.6832872920204,257.6832872920204,257.6832872920204,258.475837667007,right,0.7895745830028318,None,,,,,,,,,,,,,,,,,,,,,,,,,,,,,,,,,,,,,,,,459985,001,2024-11-28_10h43.38.236,Test,2024.2.4,None,2024-11-28 10h43.44.588764 +0100,
70,150,180,20,None,44,44,0,True,left,0.9498863750195596,None,,,,,,,,0,44,44,44,,,,,,,,,258.491022333008,,,,,,,,,,,,,,,,,,,,,,,,,,,,,,,,,,,,,,258.48469508302514,258.491022333008,259.4883595830179,260.4740632500034,260.4740632500034,260.4740632500034,261.435319583019,left,0.9498863750195596,None,,,,,,,,,,,,,,,,,,,,,,,,,,,,,,,,,,,,,,,,459985,001,2024-11-28_10h43.38.236,Test,2024.2.4,None,2024-11-28 10h43.44.588764 +0100,
48,150,60,34,None,45,45,0,True,left,0.830830374994548,None,,,,,,,,0,45,45,45,,,,,,,,,261.46042441701866,,,,,,,,,,,,,,,,,,,,,,,,,,,,,,,,,,,,,,261.454610958026,261.46042441701866,262.4544872500119,263.432115625008,263.432115625008,263.432115625008,264.2695740830095,left,0.830830374994548,None,,,,,,,,,,,,,,,,,,,,,,,,,,,,,,,,,,,,,,,,459985,001,2024-11-28_10h43.38.236,Test,2024.2.4,None,2024-11-28 10h43.44.588764 +0100,
5,150,0,63,None,46,46,0,False,left,1.0053010419942439,None,,,,,,,,0,46,46,46,,,,,,,,,264.2866416670149,,,,,,,,,,,,,,,,,,,,,,,,,,,,,,,,,,,,,,264.2796666670183,264.2866416670149,265.2832600000256,266.2666356670088,266.2666356670088,266.2666356670088,267.2746077500051,left,1.0053010419942439,None,,,,,,,,,,,,,,,,,,,,,,,,,,,,,,,,,,,,,,,,459985,001,2024-11-28_10h43.38.236,Test,2024.2.4,None,2024-11-28 10h43.44.588764 +0100,
7,150,30,54,None,47,47,0,False,left,0.7762553750071675,None,,,,,,,,0,47,47,47,,,,,,,,,267.28873441700125,,,,,,,,,,,,,,,,,,,,,,,,,,,,,,,,,,,,,,267.2827246670204,267.28873441700125,268.28315470801317,269.27437062500394,269.27437062500394,269.27437062500394,270.0540695420059,left,0.7762553750071675,None,,,,,,,,,,,,,,,,,,,,,,,,,,,,,,,,,,,,,,,,459985,001,2024-11-28_10h43.38.236,Test,2024.2.4,None,2024-11-28 10h43.44.588764 +0100,
41,150,30,17,None,48,48,0,True,left,0.8215867500111926,None,,,,,,,,0,48,48,48,,,,,,,,,270.0690666670271,,,,,,,,,,,,,,,,,,,,,,,,,,,,,,,,,,,,,,270.0629865420051,270.0690666670271,271.06679770801566,272.04996245802613,272.04996245802613,272.04996245802613,272.87488016701536,left,0.8215867500111926,None,,,,,,,,,,,,,,,,,,,,,,,,,,,,,,,,,,,,,,,,459985,001,2024-11-28_10h43.38.236,Test,2024.2.4,None,2024-11-28 10h43.44.588764 +0100,
29,150,150,28,None,49,49,0,False,left,1.117382250027731,None,,,,,,,,0,49,49,49,,,,,,,,,272.89027950001764,,,,,,,,,,,,,,,,,,,,,,,,,,,,,,,,,,,,,,272.88378462500987,272.89027950001764,273.88854112502304,274.87426054201205,274.87426054201205,274.87426054201205,276.0019371250237,left,1.117382250027731,None,,,,,,,,,,,,,,,,,,,,,,,,,,,,,,,,,,,,,,,,459985,001,2024-11-28_10h43.38.236,Test,2024.2.4,None,2024-11-28 10h43.44.588764 +0100,
6,150,30,49,None,50,50,0,False,right,0.7669753750087693,None,,,,,,,,0,50,50,50,,,,,,,,,276.0164949580212,,,,,,,,,,,,,,,,,,,,,,,,,,,,,,,,,,,,,,276.01007658301387,276.0164949580212,277.00591295800405,278.0000016670092,278.0000016670092,278.0000016670092,278.77003420802066,right,0.7669753750087693,None,,,,,,,,,,,,,,,,,,,,,,,,,,,,,,,,,,,,,,,,459985,001,2024-11-28_10h43.38.236,Test,2024.2.4,None,2024-11-28 10h43.44.588764 +0100,
27,150,150,35,None,51,51,0,False,right,0.9789280419936404,None,,,,,,,,0,51,51,51,,,,,,,,,278.78557616702165,,,,,,,,,,,,,,,,,,,,,,,,,,,,,,,,,,,,,,278.7793935830123,278.78557616702165,279.7831291250186,280.766884917015,280.766884917015,280.766884917015,281.75212687501335,right,0.9789280419936404,None,,,,,,,,,,,,,,,,,,,,,,,,,,,,,,,,,,,,,,,,459985,001,2024-11-28_10h43.38.236,Test,2024.2.4,None,2024-11-28 10h43.44.588764 +0100,
55,150,90,22,None,52,52,0,True,left,1.0712343329796568,None,,,,,,,,0,52,52,52,,,,,,,,,281.7668700830254,,,,,,,,,,,,,,,,,,,,,,,,,,,,,,,,,,,,,,281.7604836250248,281.7668700830254,282.75502275000326,283.7499475830118,283.7499475830118,283.7499475830118,284.82403041701764,left,1.0712343329796568,None,,,,,,,,,,,,,,,,,,,,,,,,,,,,,,,,,,,,,,,,459985,001,2024-11-28_10h43.38.236,Test,2024.2.4,None,2024-11-28 10h43.44.588764 +0100,
32,150,180,3,None,53,53,0,False,left,1.0326574170030653,None,,,,,,,,0,53,53,53,,,,,,,,,284.8383155000047,,,,,,,,,,,,,,,,,,,,,,,,,,,,,,,,,,,,,,284.83219529202324,284.8383155000047,285.83312137500616,286.823656958004,286.823656958004,286.823656958004,287.85846383302123,left,1.0326574170030653,None,,,,,,,,,,,,,,,,,,,,,,,,,,,,,,,,,,,,,,,,459985,001,2024-11-28_10h43.38.236,Test,2024.2.4,None,2024-11-28 10h43.44.588764 +0100,
13,150,60,51,None,54,54,0,False,left,0.8830349580093753,None,,,,,,,,0,54,54,54,,,,,,,,,287.8734909580089,,,,,,,,,,,,,,,,,,,,,,,,,,,,,,,,,,,,,,287.8676714580215,287.8734909580089,288.87168229202507,289.8567887080135,289.8567887080135,289.8567887080135,290.74209404201247,left,0.8830349580093753,None,,,,,,,,,,,,,,,,,,,,,,,,,,,,,,,,,,,,,,,,459985,001,2024-11-28_10h43.38.236,Test,2024.2.4,None,2024-11-28 10h43.44.588764 +0100,
2,150,0,55,None,55,55,0,False,right,1.0837918749894015,None,,,,,,,,0,55,55,55,,,,,,,,,290.7570422080171,,,,,,,,,,,,,,,,,,,,,,,,,,,,,,,,,,,,,,290.7510381670145,290.7570422080171,291.7548182500177,292.74053966702195,292.74053966702195,292.74053966702195,293.8344073330227,right,1.0837918749894015,None,,,,,,,,,,,,,,,,,,,,,,,,,,,,,,,,,,,,,,,,459985,001,2024-11-28_10h43.38.236,Test,2024.2.4,None,2024-11-28 10h43.44.588764 +0100,
10,150,30,36,None,56,56,0,False,right,0.8926468749996275,None,,,,,,,,0,56,56,56,,,,,,,,,293.8461825000122,,,,,,,,,,,,,,,,,,,,,,,,,,,,,,,,,,,,,,293.841339333012,293.8461825000122,294.8381031670142,295.8333449580241,295.8333449580241,295.8333449580241,296.73545620799996,right,0.8926468749996275,None,,,,,,,,,,,,,,,,,,,,,,,,,,,,,,,,,,,,,,,,459985,001,2024-11-28_10h43.38.236,Test,2024.2.4,None,2024-11-28 10h43.44.588764 +0100,
30,150,150,1,None,57,57,0,False,left,0.884386124991579,None,,,,,,,,0,57,57,57,,,,,,,,,296.750904333021,,,,,,,,,,,,,,,,,,,,,,,,,,,,,,,,,,,,,,296.74404012502055,296.750904333021,297.7393480419996,298.7335152500018,298.7335152500018,298.7335152500018,299.62464120800723,left,0.884386124991579,None,,,,,,,,,,,,,,,,,,,,,,,,,,,,,,,,,,,,,,,,459985,001,2024-11-28_10h43.38.236,Test,2024.2.4,None,2024-11-28 10h43.44.588764 +0100,
8,150,30,57,None,58,58,0,False,left,0.9437612920009997,None,,,,,,,,0,58,58,58,,,,,,,,,299.63938954201876,,,,,,,,,,,,,,,,,,,,,,,,,,,,,,,,,,,,,,299.6332473750226,299.63938954201876,300.6331465000112,301.623410292028,301.623410292028,301.623410292028,302.5693343330058,left,0.9437612920009997,None,,,,,,,,,,,,,,,,,,,,,,,,,,,,,,,,,,,,,,,,459985,001,2024-11-28_10h43.38.236,Test,2024.2.4,None,2024-11-28 10h43.44.588764 +0100,
54,150,90,31,None,59,59,0,True,left,0.9375337089877576,None,,,,,,,,0,59,59,59,,,,,,,,,302.5820651250251,,,,,,,,,,,,,,,,,,,,,,,,,,,,,,,,,,,,,,302.5762248330284,302.5820651250251,303.5712479170179,304.5670425830176,304.5670425830176,304.5670425830176,305.50837991700973,left,0.9375337089877576,None,,,,,,,,,,,,,,,,,,,,,,,,,,,,,,,,,,,,,,,,459985,001,2024-11-28_10h43.38.236,Test,2024.2.4,None,2024-11-28 10h43.44.588764 +0100,
49,150,60,52,None,60,60,0,True,left,1.038011333992472,None,,,,,,,,0,60,60,60,,,,,,,,,305.5226505000028,,,,,,,,,,,,,,,,,,,,,,,,,,,,,,,,,,,,,,305.5160790000227,305.5226505000028,306.52190195801086,307.50711900001625,307.50711900001625,307.50711900001625,308.5524054580019,left,1.038011333992472,None,,,,,,,,,,,,,,,,,,,,,,,,,,,,,,,,,,,,,,,,459985,001,2024-11-28_10h43.38.236,Test,2024.2.4,None,2024-11-28 10h43.44.588764 +0100,
65,150,150,13,None,61,61,0,True,left,1.1763698750000913,None,,,,,,,,0,61,61,61,,,,,,,,,308.5677031670057,,,,,,,,,,,,,,,,,,,,,,,,,,,,,,,,,,,,,,308.56117625001934,308.5677031670057,309.5665714170027,310.5500344580214,310.5500344580214,310.5500344580214,311.73601479202625,left,1.1763698750000913,None,,,,,,,,,,,,,,,,,,,,,,,,,,,,,,,,,,,,,,,,459985,001,2024-11-28_10h43.38.236,Test,2024.2.4,None,2024-11-28 10h43.44.588764 +0100,
4,150,0,6,None,62,62,0,False,right,0.7673752920236439,None,,,,,,,,0,62,62,62,,,,,,,,,311.7517828330165,,,,,,,,,,,,,,,,,,,,,,,,,,,,,,,,,,,,,,311.7449711250083,311.7517828330165,312.7499623330077,313.7333240000007,313.7333240000007,313.7333240000007,314.50377112501883,right,0.7673752920236439,None,,,,,,,,,,,,,,,,,,,,,,,,,,,,,,,,,,,,,,,,459985,001,2024-11-28_10h43.38.236,Test,2024.2.4,None,2024-11-28 10h43.44.588764 +0100,
31,150,180,56,None,63,63,0,False,right,1.1045788750052452,None,,,,,,,,0,63,63,63,,,,,,,,,314.5186344580143,,,,,,,,,,,,,,,,,,,,,,,,,,,,,,,,,,,,,,314.5121734170243,314.5186344580143,315.5168463330192,316.49998991700704,316.49998991700704,316.49998991700704,317.60849379200954,right,1.1045788750052452,None,,,,,,,,,,,,,,,,,,,,,,,,,,,,,,,,,,,,,,,,459985,001,2024-11-28_10h43.38.236,Test,2024.2.4,None,2024-11-28 10h43.44.588764 +0100,
42,150,30,65,None,64,64,0,True,left,0.7336263750039507,None,,,,,,,,0,64,64,64,,,,,,,,,317.6227039580117,,,,,,,,,,,,,,,,,,,,,,,,,,,,,,,,,,,,,,317.6166380830109,317.6227039580117,318.6210678330099,319.607113917009,319.607113917009,319.607113917009,320.35226829201565,left,0.7336263750039507,None,,,,,,,,,,,,,,,,,,,,,,,,,,,,,,,,,,,,,,,,459985,001,2024-11-28_10h43.38.236,Test,2024.2.4,None,2024-11-28 10h43.44.588764 +0100,
19,150,90,15,None,65,65,0,False,right,0.7343033749784809,None,,,,,,,,0,65,65,65,,,,,,,,,320.367029792018,,,,,,,,,,,,,,,,,,,,,,,,,,,,,,,,,,,,,,320.3612019580032,320.367029792018,321.3552324580087,322.35023108302266,322.35023108302266,322.35023108302266,323.0916558750032,right,0.7343033749784809,None,,,,,,,,,,,,,,,,,,,,,,,,,,,,,,,,,,,,,,,,459985,001,2024-11-28_10h43.38.236,Test,2024.2.4,None,2024-11-28 10h43.44.588764 +0100,
34,150,180,40,None,66,66,0,False,left,1.0774048340099398,None,,,,,,,,0,66,66,66,,,,,,,,,323.10607191702,,,,,,,,,,,,,,,,,,,,,,,,,,,,,,,,,,,,,,323.1001426670118,323.10607191702,324.0999578330084,325.0903685830126,325.0903685830126,325.0903685830126,326.17483695800183,left,1.0774048340099398,None,,,,,,,,,,,,,,,,,,,,,,,,,,,,,,,,,,,,,,,,459985,001,2024-11-28_10h43.38.236,Test,2024.2.4,None,2024-11-28 10h43.44.588764 +0100,
67,150,180,29,None,67,67,0,True,left,0.9826071249844972,None,,,,,,,,0,67,67,67,,,,,,,,,326.18904762502643,,,,,,,,,,,,,,,,,,,,,,,,,,,,,,,,,,,,,,326.1829870000074,326.18904762502643,327.1833620000107,328.1738822500047,328.1738822500047,328.1738822500047,329.16658166702837,left,0.9826071249844972,None,,,,,,,,,,,,,,,,,,,,,,,,,,,,,,,,,,,,,,,,459985,001,2024-11-28_10h43.38.236,Test,2024.2.4,None,2024-11-28 10h43.44.588764 +0100,
52,150,90,30,None,68,68,0,True,right,0.823795833013719,None,,,,,,,,0,68,68,68,,,,,,,,,329.17756887502037,,,,,,,,,,,,,,,,,,,,,,,,,,,,,,,,,,,,,,329.17309179200674,329.17756887502037,330.17200045802747,331.156918875,331.156918875,331.156918875,331.9853947920201,right,0.823795833013719,None,,,,,,,,,,,,,,,,,,,,,,,,,,,,,,,,,,,,,,,,459985,001,2024-11-28_10h43.38.236,Test,2024.2.4,None,2024-11-28 10h43.44.588764 +0100,
36,150,0,44,None,69,69,0,True,left,0.8357670839759521,None,,,,,,,,0,69,69,69,,,,,,,,,332.00173295801505,,,,,,,,,,,,,,,,,,,,,,,,,,,,,,,,,,,,,,331.9941602080071,332.00173295801505,332.99992466700496,333.98334175001946,333.98334175001946,333.98334175001946,334.824584417016,left,0.8357670839759521,None,,,,,,,,,,,,,,,,,,,,,,,,,,,,,,,,,,,,,,,,459985,001,2024-11-28_10h43.38.236,Test,2024.2.4,None,2024-11-28 10h43.44.588764 +0100,
,,,,,,,,,,,,,,,,,,,,,,,,,,,,,,,,,,,,,,,,,,,,,,,,,,,,,,,,,,,,,,,,,,,,,,,,,,,,,,,334.8248591670126,334.8353377500025,334.8353377500025,343.48371941701043,space,8.631940041988855,None,,,,,,,,,,,,,,,,,,,,,,,,,,,,,,,,,459985,001,2024-11-28_10h43.38.236,Test,2024.2.4,None,2024-11-28 10h43.44.588764 +0100,
10,150,30,36,None,0,0,0,,,,,,,,,,,,,,,,0,0,0,9,,,,,343.5026924170088,,,,,,,,,,,,,,,,,,,,,,,,,,,,,,,,,,,,,,,,,,,,,,,,,,,,,,,343.49768420800683,343.5026924170088,343.6734480000159,343.6734480000159,343.6999254170223,345.3696668330231,345.3696668330231,345.35731900000246,,,,,,,,,,,,,,,,,,,,,,,,,459985,001,2024-11-28_10h43.38.236,Test,2024.2.4,None,2024-11-28 10h43.44.588764 +0100,
13,150,60,51,None,1,1,0,,,,,,,,,,,,,,,,0,1,1,12,,,,,345.3696668330231,,,,,,,,,,,,,,,,,,,,,,,,,,,,,,,,,,,,,,,,,,,,,,,,,,,,,,,345.3653674580273,345.3832787920255,345.57416341701173,345.57416341701173,345.57416341701173,347.28116283300915,347.28116283300915,347.26762520801276,,,,,,,,,,,,,,,,,,,,,,,,,459985,001,2024-11-28_10h43.38.236,Test,2024.2.4,None,2024-11-28 10h43.44.588764 +0100,
26,150,150,42,None,2,2,0,,,,,,,,,,,,,,,,0,2,2,25,,,,,347.28116283300915,,,,,,,,,,,,,,,,,,,,,,,,,,,,,,,,,,,,,,,,,,,,,,,,,,,,,,,347.2759150000056,347.28116283300915,347.47340025001904,347.47340025001904,347.47340025001904,349.1694590000261,349.1694590000261,349.15679837501375,,,,,,,,,,,,,,,,,,,,,,,,,459985,001,2024-11-28_10h43.38.236,Test,2024.2.4,None,2024-11-28 10h43.44.588764 +0100,
3,150,0,27,None,3,3,0,,,,,,,,,,,,,,,,0,3,3,2,,,,,349.1694590000261,,,,,,,,,,,,,,,,,,,,,,,,,,,,,,,,,,,,,,,,,,,,,,,,,,,,,,,349.16514775002724,349.1832300830283,349.3735977920005,349.3735977920005,349.3735977920005,351.0690208330052,351.0690208330052,351.0566407080041,,,,,,,,,,,,,,,,,,,,,,,,,459985,001,2024-11-28_10h43.38.236,Test,2024.2.4,None,2024-11-28 10h43.44.588764 +0100,
32,150,180,3,None,4,4,0,,,,,,,,,,,,,,,,0,4,4,31,,,,,351.0690208330052,,,,,,,,,,,,,,,,,,,,,,,,,,,,,,,,,,,,,,,,,,,,,,,,,,,,,,,351.06461920801667,351.0830847500183,351.273258583009,351.273258583009,351.273258583009,352.9685869580135,352.9685869580135,352.9567813750182,,,,,,,,,,,,,,,,,,,,,,,,,459985,001,2024-11-28_10h43.38.236,Test,2024.2.4,None,2024-11-28 10h43.44.588764 +0100,
6,150,30,49,None,5,5,0,,,,,,,,,,,,,,,,0,5,5,5,,,,,352.9685869580135,,,,,,,,,,,,,,,,,,,,,,,,,,,,,,,,,,,,,,,,,,,,,,,,,,,,,,,352.9639989999996,352.98318312500487,353.17288866700255,353.17288866700255,353.17288866700255,354.86844929200015,354.86844929200015,354.8561130000162,,,,,,,,,,,,,,,,,,,,,,,,,459985,001,2024-11-28_10h43.38.236,Test,2024.2.4,None,2024-11-28 10h43.44.588764 +0100,
9,150,30,7,None,6,6,0,,,,,,,,,,,,,,,,0,6,6,8,,,,,354.86844929200015,,,,,,,,,,,,,,,,,,,,,,,,,,,,,,,,,,,,,,,,,,,,,,,,,,,,,,,354.8634708750178,354.88316575001227,355.07347525001387,355.07347525001387,355.07347525001387,356.7691917500051,356.7691917500051,356.756884833012,,,,,,,,,,,,,,,,,,,,,,,,,459985,001,2024-11-28_10h43.38.236,Test,2024.2.4,None,2024-11-28 10h43.44.588764 +0100,
27,150,150,35,None,7,7,0,,,,,,,,,,,,,,,,0,7,7,26,,,,,356.7691917500051,,,,,,,,,,,,,,,,,,,,,,,,,,,,,,,,,,,,,,,,,,,,,,,,,,,,,,,356.76486354201916,356.78336670802673,356.9735981670092,356.9735981670092,356.9735981670092,358.6695702080033,358.6695702080033,358.65721295800176,,,,,,,,,,,,,,,,,,,,,,,,,459985,001,2024-11-28_10h43.38.236,Test,2024.2.4,None,2024-11-28 10h43.44.588764 +0100,
17,150,90,32,None,8,8,0,,,,,,,,,,,,,,,,0,8,8,16,,,,,358.6695702080033,,,,,,,,,,,,,,,,,,,,,,,,,,,,,,,,,,,,,,,,,,,,,,,,,,,,,,,358.6652557920024,358.6832895420084,358.8734405830037,358.8734405830037,358.8734405830037,360.5689700000221,360.5689700000221,360.55669704201864,,,,,,,,,,,,,,,,,,,,,,,,,459985,001,2024-11-28_10h43.38.236,Test,2024.2.4,None,2024-11-28 10h43.44.588764 +0100,
8,150,30,57,None,9,9,0,,,,,,,,,,,,,,,,0,9,9,7,,,,,360.5689700000221,,,,,,,,,,,,,,,,,,,,,,,,,,,,,,,,,,,,,,,,,,,,,,,,,,,,,,,360.56459449999966,360.58310991700273,360.773469000007,360.773469000007,360.773469000007,362.4686927500006,362.4686927500006,362.4565465420019,,,,,,,,,,,,,,,,,,,,,,,,,459985,001,2024-11-28_10h43.38.236,Test,2024.2.4,None,2024-11-28 10h43.44.588764 +0100,
5,150,0,63,None,10,10,0,,,,,,,,,,,,,,,,0,10,10,4,,,,,362.4686927500006,,,,,,,,,,,,,,,,,,,,,,,,,,,,,,,,,,,,,,,,,,,,,,,,,,,,,,,362.46477662501275,362.48317916700034,362.6733926250017,362.6733926250017,362.6733926250017,364.3711530830187,364.3711530830187,364.3578284580144,,,,,,,,,,,,,,,,,,,,,,,,,459985,001,2024-11-28_10h43.38.236,Test,2024.2.4,None,2024-11-28 10h43.44.588764 +0100,
14,150,60,61,None,11,11,0,,,,,,,,,,,,,,,,0,11,11,13,,,,,364.3711530830187,,,,,,,,,,,,,,,,,,,,,,,,,,,,,,,,,,,,,,,,,,,,,,,,,,,,,,,364.3661742080003,364.3832035420055,364.57354008301627,364.57354008301627,364.57354008301627,366.2691455000022,366.2691455000022,366.25692970800446,,,,,,,,,,,,,,,,,,,,,,,,,459985,001,2024-11-28_10h43.38.236,Test,2024.2.4,None,2024-11-28 10h43.44.588764 +0100,
23,150,120,18,None,12,12,0,,,,,,,,,,,,,,,,0,12,12,22,,,,,366.2691455000022,,,,,,,,,,,,,,,,,,,,,,,,,,,,,,,,,,,,,,,,,,,,,,,,,,,,,,,366.26448770801653,366.2831603750237,366.47357825000654,366.47357825000654,366.47357825000654,368.1808362080192,368.1808362080192,368.16763441701187,,,,,,,,,,,,,,,,,,,,,,,,,459985,001,2024-11-28_10h43.38.236,Test,2024.2.4,None,2024-11-28 10h43.44.588764 +0100,
34,150,180,40,None,13,13,0,,,,,,,,,,,,,,,,0,13,13,33,,,,,368.1808362080192,,,,,,,,,,,,,,,,,,,,,,,,,,,,,,,,,,,,,,,,,,,,,,,,,,,,,,,368.17556783300824,368.1808362080192,368.37361870802124,368.37361870802124,368.37361870802124,370.0686778750096,370.0686778750096,370.0567762500141,,,,,,,,,,,,,,,,,,,,,,,,,459985,001,2024-11-28_10h43.38.236,Test,2024.2.4,None,2024-11-28 10h43.44.588764 +0100,
31,150,180,56,None,14,14,0,,,,,,,,,,,,,,,,0,14,14,30,,,,,370.0686778750096,,,,,,,,,,,,,,,,,,,,,,,,,,,,,,,,,,,,,,,,,,,,,,,,,,,,,,,370.06408541701967,370.083250375028,370.2734648330079,370.2734648330079,370.2734648330079,371.9696955420077,371.9696955420077,371.956784583017,,,,,,,,,,,,,,,,,,,,,,,,,459985,001,2024-11-28_10h43.38.236,Test,2024.2.4,None,2024-11-28 10h43.44.588764 +0100,
28,150,150,24,None,15,15,0,,,,,,,,,,,,,,,,0,15,15,27,,,,,371.9696955420077,,,,,,,,,,,,,,,,,,,,,,,,,,,,,,,,,,,,,,,,,,,,,,,,,,,,,,,371.96529512500274,371.98316562501714,372.1728972500132,372.1728972500132,372.1728972500132,373.8688557080168,373.8688557080168,373.85658062502625,,,,,,,,,,,,,,,,,,,,,,,,,459985,001,2024-11-28_10h43.38.236,Test,2024.2.4,None,2024-11-28 10h43.44.588764 +0100,
29,150,150,28,None,16,16,0,,,,,,,,,,,,,,,,0,16,16,28,,,,,373.8688557080168,,,,,,,,,,,,,,,,,,,,,,,,,,,,,,,,,,,,,,,,,,,,,,,,,,,,,,,373.8643470420211,373.883219750016,374.07297091701184,374.07297091701184,374.07297091701184,375.7686587080243,375.7686587080243,375.7569544580183,,,,,,,,,,,,,,,,,,,,,,,,,459985,001,2024-11-28_10h43.38.236,Test,2024.2.4,None,2024-11-28 10h43.44.588764 +0100,
21,150,120,50,None,17,17,0,,,,,,,,,,,,,,,,0,17,17,20,,,,,375.7686587080243,,,,,,,,,,,,,,,,,,,,,,,,,,,,,,,,,,,,,,,,,,,,,,,,,,,,,,,375.7642252500227,375.78315891700913,375.9738327500236,375.9738327500236,375.9738327500236,377.6824198329996,377.6824198329996,377.66801583301276,,,,,,,,,,,,,,,,,,,,,,,,,459985,001,2024-11-28_10h43.38.236,Test,2024.2.4,None,2024-11-28 10h43.44.588764 +0100,
2,150,0,55,None,18,18,0,,,,,,,,,,,,,,,,0,18,18,1,,,,,377.6824198329996,,,,,,,,,,,,,,,,,,,,,,,,,,,,,,,,,,,,,,,,,,,,,,,,,,,,,,,377.67700166700524,377.6824198329996,377.87356820801506,377.87356820801506,377.87356820801506,379.5704997080029,379.5704997080029,379.55703308302327,,,,,,,,,,,,,,,,,,,,,,,,,459985,001,2024-11-28_10h43.38.236,Test,2024.2.4,None,2024-11-28 10h43.44.588764 +0100,
24,150,120,58,None,19,19,0,,,,,,,,,,,,,,,,0,19,19,23,,,,,379.5704997080029,,,,,,,,,,,,,,,,,,,,,,,,,,,,,,,,,,,,,,,,,,,,,,,,,,,,,,,379.56568975001574,379.58323920800467,379.7734465000103,379.7734465000103,379.7734465000103,381.46982245802064,381.46982245802064,381.4569649580226,,,,,,,,,,,,,,,,,,,,,,,,,459985,001,2024-11-28_10h43.38.236,Test,2024.2.4,None,2024-11-28 10h43.44.588764 +0100,
7,150,30,54,None,20,20,0,,,,,,,,,,,,,,,,0,20,20,6,,,,,381.46982245802064,,,,,,,,,,,,,,,,,,,,,,,,,,,,,,,,,,,,,,,,,,,,,,,,,,,,,,,381.46509908302687,381.48317866702564,381.6735457080067,381.6735457080067,381.6735457080067,383.36860408302164,383.36860408302164,383.3567979580257,,,,,,,,,,,,,,,,,,,,,,,,,459985,001,2024-11-28_10h43.38.236,Test,2024.2.4,None,2024-11-28 10h43.44.588764 +0100,
35,150,180,19,None,21,21,0,,,,,,,,,,,,,,,,0,21,21,34,,,,,383.36860408302164,,,,,,,,,,,,,,,,,,,,,,,,,,,,,,,,,,,,,,,,,,,,,,,,,,,,,,,383.364074083016,383.3832311670121,383.57361450002645,383.57361450002645,383.57361450002645,385.28162183301174,385.28162183301174,385.26781054202,,,,,,,,,,,,,,,,,,,,,,,,,459985,001,2024-11-28_10h43.38.236,Test,2024.2.4,None,2024-11-28 10h43.44.588764 +0100,
19,150,90,15,None,22,22,0,,,,,,,,,,,,,,,,0,22,22,18,,,,,385.28162183301174,,,,,,,,,,,,,,,,,,,,,,,,,,,,,,,,,,,,,,,,,,,,,,,,,,,,,,,385.2763292500167,385.28162183301174,385.4734721670102,385.4734721670102,385.4734721670102,387.1689929580025,387.1689929580025,387.15753525000764,,,,,,,,,,,,,,,,,,,,,,,,,459985,001,2024-11-28_10h43.38.236,Test,2024.2.4,None,2024-11-28 10h43.44.588764 +0100,
11,150,60,70,None,23,23,0,,,,,,,,,,,,,,,,0,23,23,10,,,,,387.1689929580025,,,,,,,,,,,,,,,,,,,,,,,,,,,,,,,,,,,,,,,,,,,,,,,,,,,,,,,387.1644737920142,387.18318241700763,387.3735807920166,387.3735807920166,387.3735807920166,389.0693296670215,389.0693296670215,389.05685841702507,,,,,,,,,,,,,,,,,,,,,,,,,459985,001,2024-11-28_10h43.38.236,Test,2024.2.4,None,2024-11-28 10h43.44.588764 +0100,
18,150,90,26,None,24,24,0,,,,,,,,,,,,,,,,0,24,24,17,,,,,389.0693296670215,,,,,,,,,,,,,,,,,,,,,,,,,,,,,,,,,,,,,,,,,,,,,,,,,,,,,,,389.06501483300235,389.0832927500014,389.27346366702113,389.27346366702113,389.27346366702113,390.96958979201736,390.96958979201736,390.9567240420147,,,,,,,,,,,,,,,,,,,,,,,,,459985,001,2024-11-28_10h43.38.236,Test,2024.2.4,None,2024-11-28 10h43.44.588764 +0100,
22,150,120,60,None,25,25,0,,,,,,,,,,,,,,,,0,25,25,21,,,,,390.96958979201736,,,,,,,,,,,,,,,,,,,,,,,,,,,,,,,,,,,,,,,,,,,,,,,,,,,,,,,390.96519262500806,390.9831860830018,391.17336100002285,391.17336100002285,391.17336100002285,392.8689046250074,392.8689046250074,392.856512792001,,,,,,,,,,,,,,,,,,,,,,,,,459985,001,2024-11-28_10h43.38.236,Test,2024.2.4,None,2024-11-28 10h43.44.588764 +0100,
4,150,0,6,None,26,26,0,,,,,,,,,,,,,,,,0,26,26,3,,,,,392.8689046250074,,,,,,,,,,,,,,,,,,,,,,,,,,,,,,,,,,,,,,,,,,,,,,,,,,,,,,,392.86439675002475,392.88319695802056,393.0731510000187,393.0731510000187,393.0731510000187,394.78192658300395,394.78192658300395,394.7677913750231,,,,,,,,,,,,,,,,,,,,,,,,,459985,001,2024-11-28_10h43.38.236,Test,2024.2.4,None,2024-11-28 10h43.44.588764 +0100,
25,150,120,8,None,27,27,0,,,,,,,,,,,,,,,,0,27,27,24,,,,,394.78192658300395,,,,,,,,,,,,,,,,,,,,,,,,,,,,,,,,,,,,,,,,,,,,,,,,,,,,,,,394.7764504170045,394.78192658300395,394.97282975001144,394.97282975001144,394.97282975001144,396.66882787502254,396.66882787502254,396.6566125000245,,,,,,,,,,,,,,,,,,,,,,,,,459985,001,2024-11-28_10h43.38.236,Test,2024.2.4,None,2024-11-28 10h43.44.588764 +0100,
16,150,90,10,None,28,28,0,,,,,,,,,,,,,,,,0,28,28,15,,,,,396.66882787502254,,,,,,,,,,,,,,,,,,,,,,,,,,,,,,,,,,,,,,,,,,,,,,,,,,,,,,,396.66368629201315,396.6834859170194,396.87338412500685,396.87338412500685,396.87338412500685,398.5687263330037,398.5687263330037,398.55681891701533,,,,,,,,,,,,,,,,,,,,,,,,,459985,001,2024-11-28_10h43.38.236,Test,2024.2.4,None,2024-11-28 10h43.44.588764 +0100,
15,150,60,46,None,29,29,0,,,,,,,,,,,,,,,,0,29,29,14,,,,,398.5687263330037,,,,,,,,,,,,,,,,,,,,,,,,,,,,,,,,,,,,,,,,,,,,,,,,,,,,,,,398.56416737500695,398.58328433302813,398.77324004200636,398.77324004200636,398.77324004200636,400.469564042025,400.469564042025,400.45674641701044,,,,,,,,,,,,,,,,,,,,,,,,,459985,001,2024-11-28_10h43.38.236,Test,2024.2.4,None,2024-11-28 10h43.44.588764 +0100,
1,150,0,47,None,30,30,0,,,,,,,,,,,,,,,,0,30,30,0,,,,,400.469564042025,,,,,,,,,,,,,,,,,,,,,,,,,,,,,,,,,,,,,,,,,,,,,,,,,,,,,,,400.4649329170061,400.48313587502344,400.6728542080091,400.6728542080091,400.6728542080091,402.3815087500261,402.3815087500261,402.36763166700257,,,,,,,,,,,,,,,,,,,,,,,,,459985,001,2024-11-28_10h43.38.236,Test,2024.2.4,None,2024-11-28 10h43.44.588764 +0100,
20,150,90,33,None,31,31,0,,,,,,,,,,,,,,,,0,31,31,19,,,,,402.3815087500261,,,,,,,,,,,,,,,,,,,,,,,,,,,,,,,,,,,,,,,,,,,,,,,,,,,,,,,402.376153292018,402.3815087500261,402.5736269170011,402.5736269170011,402.5736269170011,404.28116912502446,404.28116912502446,404.2676869580173,,,,,,,,,,,,,,,,,,,,,,,,,459985,001,2024-11-28_10h43.38.236,Test,2024.2.4,None,2024-11-28 10h43.44.588764 +0100,
30,150,150,1,None,32,32,0,,,,,,,,,,,,,,,,0,32,32,29,,,,,404.28116912502446,,,,,,,,,,,,,,,,,,,,,,,,,,,,,,,,,,,,,,,,,,,,,,,,,,,,,,,404.27591795800254,404.28116912502446,404.473902208003,404.473902208003,404.473902208003,406.18124100001296,406.18124100001296,406.16737995800213,,,,,,,,,,,,,,,,,,,,,,,,,459985,001,2024-11-28_10h43.38.236,Test,2024.2.4,None,2024-11-28 10h43.44.588764 +0100,
12,150,60,43,None,33,33,0,,,,,,,,,,,,,,,,0,33,33,11,,,,,406.18124100001296,,,,,,,,,,,,,,,,,,,,,,,,,,,,,,,,,,,,,,,,,,,,,,,,,,,,,,,406.17580629201257,406.18124100001296,406.3733568750031,406.3733568750031,406.3733568750031,408.06918412502273,408.06918412502273,408.0571275000111,,,,,,,,,,,,,,,,,,,,,,,,,459985,001,2024-11-28_10h43.38.236,Test,2024.2.4,None,2024-11-28 10h43.44.588764 +0100,
33,150,180,64,None,34,34,0,,,,,,,,,,,,,,,,0,34,34,32,,,,,408.06918412502273,,,,,,,,,,,,,,,,,,,,,,,,,,,,,,,,,,,,,,,,,,,,,,,,,,,,,,,408.0645427920099,408.08327150001423,408.27361100001144,408.27361100001144,408.27361100001144,409.975448333018,409.975448333018,409.9675299170194,,,,,,,,,,,,,,,,,,,,,,,,,459985,001,2024-11-28_10h43.38.236,Test,2024.2.4,None,2024-11-28 10h43.44.588764 +0100,
,,,,,,,,,,,,,,,,,,,,,,,,,,,,,,,,,,,,,,,,,,,,,,,,,,,,,,,,,,,,,,,,,,,,,,,,,,,,,,,,,,,,,,,,,,,,,,409.96776150001097,409.975448333018,409.975448333018,420.285318750015,space,10.302822165976977,None,,,,,,,,,,,,,,,,,,459985,001,2024-11-28_10h43.38.236,Test,2024.2.4,None,2024-11-28 10h43.44.588764 +0100,
45,150,30,53,None,0,0,0,True,,,,left,0.6263753749954049,None,,,,,,,,,,,,,0,0,0,0,420.3843445000239,,,,,,,,,,,,,,,,,,,,,,,,,,,,,,,,,,,,,,,,,,,,,,,,,,,,,,,,,,,,,,,,,,,,,,420.378758958017,420.3843445000239,421.38342745800037,422.28345095802797,422.28345095802797,422.28345095802797,422.9194695830229,left,0.6263753749954049,None,,,,,,,,459985,001,2024-11-28_10h43.38.236,Test,2024.2.4,None,2024-11-28 10h43.44.588764 +0100,
50,150,60,68,None,1,1,0,True,,,,left,0.8851192080182955,None,,,,,,,,,,,,,0,1,1,1,422.9354432079999,,,,,,,,,,,,,,,,,,,,,,,,,,,,,,,,,,,,,,,,,,,,,,,,,,,,,,,,,,,,,,,,,,,,,,422.92829270800576,422.9354432079999,423.9332319580135,424.9167883330083,424.9167883330083,424.9167883330083,425.80841495800996,left,0.8851192080182955,None,,,,,,,,459985,001,2024-11-28_10h43.38.236,Test,2024.2.4,None,2024-11-28 10h43.44.588764 +0100,
60,150,120,37,None,2,2,0,True,,,,right,0.6350431249884423,None,,,,,,,,,,,,,0,2,2,2,425.82377633301076,,,,,,,,,,,,,,,,,,,,,,,,,,,,,,,,,,,,,,,,,,,,,,,,,,,,,,,,,,,,,,,,,,,,,,425.8171854579996,425.82377633301076,426.8210353750037,427.8070524580253,427.8070524580253,427.8070524580253,428.45204895801726,right,0.6350431249884423,None,,,,,,,,459985,001,2024-11-28_10h43.38.236,Test,2024.2.4,None,2024-11-28 10h43.44.588764 +0100,
20,150,90,33,None,3,3,0,False,,,,right,0.6098739999870304,None,,,,,,,,,,,,,0,3,3,3,428.4668761670182,,,,,,,,,,,,,,,,,,,,,,,,,,,,,,,,,,,,,,,,,,,,,,,,,,,,,,,,,,,,,,,,,,,,,,428.4596310830093,428.4668761670182,429.45518437502324,430.4500711670262,430.4500711670262,430.4500711670262,431.06885045801755,right,0.6098739999870304,None,,,,,,,,459985,001,2024-11-28_10h43.38.236,Test,2024.2.4,None,2024-11-28 10h43.44.588764 +0100,
37,150,0,11,None,4,4,0,True,,,,left,0.8728441660059616,None,,,,,,,,,,,,,0,4,4,4,431.08846774999984,,,,,,,,,,,,,,,,,,,,,,,,,,,,,,,,,,,,,,,,,,,,,,,,,,,,,,,,,,,,,,,,,,,,,,431.0822963330138,431.08846774999984,432.08330366702285,433.06573575001676,433.06573575001676,433.06573575001676,433.9412550420093,left,0.8728441660059616,None,,,,,,,,459985,001,2024-11-28_10h43.38.236,Test,2024.2.4,None,2024-11-28 10h43.44.588764 +0100,
63,150,150,23,None,5,5,0,True,,,,right,0.6635086669994052,None,,,,,,,,,,,,,0,5,5,5,433.9561380420055,,,,,,,,,,,,,,,,,,,,,,,,,,,,,,,,,,,,,,,,,,,,,,,,,,,,,,,,,,,,,,,,,,,,,,433.9503540000005,433.9561380420055,434.9550672500045,435.9399199580075,435.9399199580075,435.9399199580075,436.60841312501,right,0.6635086669994052,None,,,,,,,,459985,001,2024-11-28_10h43.38.236,Test,2024.2.4,None,2024-11-28 10h43.44.588764 +0100,
61,150,150,59,None,6,6,0,True,,,,left,1.0364893339865375,None,,,,,,,,,,,,,0,6,6,6,436.6238178330241,,,,,,,,,,,,,,,,,,,,,,,,,,,,,,,,,,,,,,,,,,,,,,,,,,,,,,,,,,,,,,,,,,,,,,436.6168371250096,436.6238178330241,437.6215257500007,438.6072941250168,438.6072941250168,438.6072941250168,439.6524685830227,left,1.0364893339865375,None,,,,,,,,459985,001,2024-11-28_10h43.38.236,Test,2024.2.4,None,2024-11-28 10h43.44.588764 +0100,
56,150,120,38,None,7,7,0,True,,,,left,1.0334103339991998,None,,,,,,,,,,,,,0,7,7,7,439.66900591700687,,,,,,,,,,,,,,,,,,,,,,,,,,,,,,,,,,,,,,,,,,,,,,,,,,,,,,,,,,,,,,,,,,,,,,439.6619897080236,439.66900591700687,440.66646875001607,441.6501112920232,441.6501112920232,441.6501112920232,442.68650470802095,left,1.0334103339991998,None,,,,,,,,459985,001,2024-11-28_10h43.38.236,Test,2024.2.4,None,2024-11-28 10h43.44.588764 +0100,
38,150,0,67,None,8,8,0,True,,,,right,1.107386415998917,None,,,,,,,,,,,,,0,8,8,8,442.70177391701145,,,,,,,,,,,,,,,,,,,,,,,,,,,,,,,,,,,,,,,,,,,,,,,,,,,,,,,,,,,,,,,,,,,,,,442.6950447500276,442.70177391701145,443.70002441701945,444.68320695802686,444.68320695802686,444.68320695802686,445.8019578330277,right,1.107386415998917,None,,,,,,,,459985,001,2024-11-28_10h43.38.236,Test,2024.2.4,None,2024-11-28 10h43.44.588764 +0100,
26,150,150,42,None,9,9,0,False,,,,right,0.8942192500107922,None,,,,,,,,,,,,,0,9,9,9,445.8170984580065,,,,,,,,,,,,,,,,,,,,,,,,,,,,,,,,,,,,,,,,,,,,,,,,,,,,,,,,,,,,,,,,,,,,,,445.80977379201795,445.8170984580065,446.8048200000194,447.80004887501127,447.80004887501127,447.80004887501127,448.701998583012,right,0.8942192500107922,None,,,,,,,,459985,001,2024-11-28_10h43.38.236,Test,2024.2.4,None,2024-11-28 10h43.44.588764 +0100,
64,150,150,21,None,10,10,0,True,,,,left,1.0855778749973979,None,,,,,,,,,,,,,0,10,10,10,448.71768875001,,,,,,,,,,,,,,,,,,,,,,,,,,,,,,,,,,,,,,,,,,,,,,,,,,,,,,,,,,,,,,,,,,,,,,448.7110188330116,448.71768875001,449.7165729580156,450.70014395800536,450.70014395800536,450.70014395800536,451.791495500016,left,1.0855778749973979,None,,,,,,,,459985,001,2024-11-28_10h43.38.236,Test,2024.2.4,None,2024-11-28 10h43.44.588764 +0100,
69,150,180,25,None,11,11,0,True,,,,left,1.3494504170084838,None,,,,,,,,,,,,,0,11,11,11,451.80628358302056,,,,,,,,,,,,,,,,,,,,,,,,,,,,,,,,,,,,,,,,,,,,,,,,,,,,,,,,,,,,,,,,,,,,,,451.7995795420138,451.80628358302056,452.8000078750192,453.7900427500135,453.7900427500135,453.7900427500135,455.14184616701095,left,1.3494504170084838,None,,,,,,,,459985,001,2024-11-28_10h43.38.236,Test,2024.2.4,None,2024-11-28 10h43.44.588764 +0100,
28,150,150,24,None,12,12,0,False,,,,right,1.081568541994784,None,,,,,,,,,,,,,0,12,12,12,455.15636591700604,,,,,,,,,,,,,,,,,,,,,,,,,,,,,,,,,,,,,,,,,,,,,,,,,,,,,,,,,,,,,,,,,,,,,,455.1496487080003,455.15636591700604,456.14983041700907,457.1403762920236,457.1403762920236,457.1403762920236,458.22520054201595,right,1.081568541994784,None,,,,,,,,459985,001,2024-11-28_10h43.38.236,Test,2024.2.4,None,2024-11-28 10h43.44.588764 +0100,
3,150,0,27,None,13,13,0,False,,,,right,0.8601823750068434,None,,,,,,,,,,,,,0,13,13,13,458.23999716702383,,,,,,,,,,,,,,,,,,,,,,,,,,,,,,,,,,,,,,,,,,,,,,,,,,,,,,,,,,,,,,,,,,,,,,458.23311504200683,458.23999716702383,459.23875075002434,460.2241309170204,460.2241309170204,460.2241309170204,461.09146904200315,right,0.8601823750068434,None,,,,,,,,459985,001,2024-11-28_10h43.38.236,Test,2024.2.4,None,2024-11-28 10h43.44.588764 +0100,
14,150,60,61,None,14,14,0,False,,,,right,0.8373481250018813,None,,,,,,,,,,,,,0,14,14,14,461.1059074170189,,,,,,,,,,,,,,,,,,,,,,,,,,,,,,,,,,,,,,,,,,,,,,,,,,,,,,,,,,,,,,,,,,,,,,461.0993282920099,461.1059074170189,462.09994687500875,463.0907289170136,463.0907289170136,463.0907289170136,463.93522025001585,right,0.8373481250018813,None,,,,,,,,459985,001,2024-11-28_10h43.38.236,Test,2024.2.4,None,2024-11-28 10h43.44.588764 +0100,
12,150,60,43,None,15,15,0,False,,,,right,0.7904542920005042,None,,,,,,,,,,,,,0,15,15,15,463.9495977080078,,,,,,,,,,,,,,,,,,,,,,,,,,,,,,,,,,,,,,,,,,,,,,,,,,,,,,,,,,,,,,,,,,,,,,463.9428403750062,463.9495977080078,464.93819733301643,465.93321183300577,465.93321183300577,465.93321183300577,466.73530812500394,right,0.7904542920005042,None,,,,,,,,459985,001,2024-11-28_10h43.38.236,Test,2024.2.4,None,2024-11-28 10h43.44.588764 +0100,
59,150,120,12,None,16,16,0,True,,,,right,0.9528184160008095,None,,,,,,,,,,,,,0,16,16,16,466.75008979201084,,,,,,,,,,,,,,,,,,,,,,,,,,,,,,,,,,,,,,,,,,,,,,,,,,,,,,,,,,,,,,,,,,,,,,466.7437205000024,466.75008979201084,467.7386762080132,468.73330158300814,468.73330158300814,468.73330158300814,469.69119404201047,right,0.9528184160008095,None,,,,,,,,459985,001,2024-11-28_10h43.38.236,Test,2024.2.4,None,2024-11-28 10h43.44.588764 +0100,
33,150,180,64,None,17,17,0,False,,,,left,0.9967865830112714,None,,,,,,,,,,,,,0,17,17,17,469.7053692500049,,,,,,,,,,,,,,,,,,,,,,,,,,,,,,,,,,,,,,,,,,,,,,,,,,,,,,,,,,,,,,,,,,,,,,469.69852550001815,469.7053692500049,470.69993520801654,471.69110916700447,471.69110916700447,471.69110916700447,472.691633792012,left,0.9967865830112714,None,,,,,,,,459985,001,2024-11-28_10h43.38.236,Test,2024.2.4,None,2024-11-28 10h43.44.588764 +0100,
57,150,120,14,None,18,18,0,True,,,,left,0.9945053750125226,None,,,,,,,,,,,,,0,18,18,18,472.7067972920195,,,,,,,,,,,,,,,,,,,,,,,,,,,,,,,,,,,,,,,,,,,,,,,,,,,,,,,,,,,,,,,,,,,,,,472.70063875001506,472.7067972920195,473.70528820800246,474.69079712501843,474.69079712501843,474.69079712501843,475.691719125025,left,0.9945053750125226,None,,,,,,,,459985,001,2024-11-28_10h43.38.236,Test,2024.2.4,None,2024-11-28 10h43.44.588764 +0100,
9,150,30,7,None,19,19,0,False,,,,right,0.6719640420051292,None,,,,,,,,,,,,,0,19,19,19,475.70668816700345,,,,,,,,,,,,,,,,,,,,,,,,,,,,,,,,,,,,,,,,,,,,,,,,,,,,,,,,,,,,,,,,,,,,,,475.6996003750246,475.70668816700345,476.6999005000107,477.69133620802313,477.69133620802313,477.69133620802313,478.3686912500125,right,0.6719640420051292,None,,,,,,,,459985,001,2024-11-28_10h43.38.236,Test,2024.2.4,None,2024-11-28 10h43.44.588764 +0100,
68,150,180,69,None,20,20,0,True,,,,right,0.810818083002232,None,,,,,,,,,,,,,0,20,20,20,478.38343833302497,,,,,,,,,,,,,,,,,,,,,,,,,,,,,,,,,,,,,,,,,,,,,,,,,,,,,,,,,,,,,,,,,,,,,,478.37692229202366,478.38343833302497,479.37190979201114,480.3668474580045,480.3668474580045,480.3668474580045,481.18541758300853,right,0.810818083002232,None,,,,,,,,459985,001,2024-11-28_10h43.38.236,Test,2024.2.4,None,2024-11-28 10h43.44.588764 +0100,
40,150,0,16,None,21,21,0,True,,,,left,1.416879374999553,None,,,,,,,,,,,,,0,21,21,21,481.20079566701315,,,,,,,,,,,,,,,,,,,,,,,,,,,,,,,,,,,,,,,,,,,,,,,,,,,,,,,,,,,,,,,,,,,,,,481.1945068750065,481.20079566701315,482.1883788330015,483.1833025000233,483.1833025000233,483.1833025000233,484.60254308301955,left,1.416879374999553,None,,,,,,,,459985,001,2024-11-28_10h43.38.236,Test,2024.2.4,None,2024-11-28 10h43.44.588764 +0100,
24,150,120,58,None,22,22,0,False,,,,right,0.9715190830174834,None,,,,,,,,,,,,,0,22,22,22,484.6173204170191,,,,,,,,,,,,,,,,,,,,,,,,,,,,,,,,,,,,,,,,,,,,,,,,,,,,,,,,,,,,,,,,,,,,,,484.610531333019,484.6173204170191,485.604794917017,486.6000775420107,486.6000775420107,486.6000775420107,487.5746409170097,right,0.9715190830174834,None,,,,,,,,459985,001,2024-11-28_10h43.38.236,Test,2024.2.4,None,2024-11-28 10h43.44.588764 +0100,
39,150,0,66,None,23,23,0,True,,,,left,1.0113276669871993,None,,,,,,,,,,,,,0,23,23,23,487.58892366700456,,,,,,,,,,,,,,,,,,,,,,,,,,,,,,,,,,,,,,,,,,,,,,,,,,,,,,,,,,,,,,,,,,,,,,487.58276000001933,487.58892366700456,488.5833544580091,489.57356958300807,489.57356958300807,489.57356958300807,490.5921640830056,left,1.0113276669871993,None,,,,,,,,459985,001,2024-11-28_10h43.38.236,Test,2024.2.4,None,2024-11-28 10h43.44.588764 +0100,
47,150,60,9,None,24,24,0,True,,,,right,1.587703291006619,None,,,,,,,,,,,,,0,24,24,24,490.6070317920239,,,,,,,,,,,,,,,,,,,,,,,,,,,,,,,,,,,,,,,,,,,,,,,,,,,,,,,,,,,,,,,,,,,,,,490.60107825000887,490.6070317920239,491.6050049170153,492.5903116670088,492.5903116670088,492.5903116670088,494.1853502500162,right,1.587703291006619,None,,,,,,,,459985,001,2024-11-28_10h43.38.236,Test,2024.2.4,None,2024-11-28 10h43.44.588764 +0100,
35,150,180,19,None,25,25,0,False,,,,left,1.0010266249882989,None,,,,,,,,,,,,,0,25,25,25,494.19870812501176,,,,,,,,,,,,,,,,,,,,,,,,,,,,,,,,,,,,,,,,,,,,,,,,,,,,,,,,,,,,,,,,,,,,,,494.1926972500223,494.19870812501176,495.1886105420126,496.18331304201274,496.18331304201274,496.18331304201274,497.1911309999996,left,1.0010266249882989,None,,,,,,,,459985,001,2024-11-28_10h43.38.236,Test,2024.2.4,None,2024-11-28 10h43.44.588764 +0100,
18,150,90,26,None,26,26,0,False,,,,left,1.5140306249959394,None,,,,,,,,,,,,,0,26,26,26,497.20523695801967,,,,,,,,,,,,,,,,,,,,,,,,,,,,,,,,,,,,,,,,,,,,,,,,,,,,,,,,,,,,,,,,,,,,,,497.1985009170021,497.20523695801967,498.1998344580061,499.19026850000955,499.19026850000955,499.19026850000955,500.70840408300865,left,1.5140306249959394,None,,,,,,,,459985,001,2024-11-28_10h43.38.236,Test,2024.2.4,None,2024-11-28 10h43.44.588764 +0100,
1,150,0,47,None,27,27,0,False,,,,left,0.9360137500043493,None,,,,,,,,,,,,,0,27,27,27,500.72231612500036,,,,,,,,,,,,,,,,,,,,,,,,,,,,,,,,,,,,,,,,,,,,,,,,,,,,,,,,,,,,,,,,,,,,,,500.71599533301196,500.72231612500036,501.71647725001094,502.7071836250252,502.7071836250252,502.7071836250252,503.6522346670099,left,0.9360137500043493,None,,,,,,,,459985,001,2024-11-28_10h43.38.236,Test,2024.2.4,None,2024-11-28 10h43.44.588764 +0100,
51,150,90,5,None,28,28,0,True,,,,right,0.8013018750061747,None,,,,,,,,,,,,,0,28,28,28,503.66712625001674,,,,,,,,,,,,,,,,,,,,,,,,,,,,,,,,,,,,,,,,,,,,,,,,,,,,,,,,,,,,,,,,,,,,,,503.66098420802155,503.66712625001674,504.65517416701186,505.6498567080125,505.6498567080125,505.6498567080125,506.4583410830237,right,0.8013018750061747,None,,,,,,,,459985,001,2024-11-28_10h43.38.236,Test,2024.2.4,None,2024-11-28 10h43.44.588764 +0100,
44,150,30,41,None,29,29,0,True,,,,left,0.9113487919967156,None,,,,,,,,,,,,,0,29,29,29,506.4724351670011,,,,,,,,,,,,,,,,,,,,,,,,,,,,,,,,,,,,,,,,,,,,,,,,,,,,,,,,,,,,,,,,,,,,,,506.4662249580142,506.4724351670011,507.46655545802787,508.4568240000226,508.4568240000226,508.4568240000226,509.3759652080189,left,0.9113487919967156,None,,,,,,,,459985,001,2024-11-28_10h43.38.236,Test,2024.2.4,None,2024-11-28 10h43.44.588764 +0100,
21,150,120,50,None,30,30,0,False,,,,right,0.6097420000005513,None,,,,,,,,,,,,,0,30,30,30,509.3903991250263,,,,,,,,,,,,,,,,,,,,,,,,,,,,,,,,,,,,,,,,,,,,,,,,,,,,,,,,,,,,,,,,,,,,,,509.3837905830005,509.3903991250263,510.38842050000676,511.373843917012,511.373843917012,511.373843917012,511.9861931250198,right,0.6097420000005513,None,,,,,,,,459985,001,2024-11-28_10h43.38.236,Test,2024.2.4,None,2024-11-28 10h43.44.588764 +0100,
16,150,90,10,None,31,31,0,False,,,,left,0.8010338750027586,None,,,,,,,,,,,,,0,31,31,31,512.0011606250191,,,,,,,,,,,,,,,,,,,,,,,,,,,,,,,,,,,,,,,,,,,,,,,,,,,,,,,,,,,,,,,,,,,,,,511.9942610420112,512.0011606250191,512.9998190420156,513.9834211670095,513.9834211670095,513.9834211670095,514.791721000016,left,0.8010338750027586,None,,,,,,,,459985,001,2024-11-28_10h43.38.236,Test,2024.2.4,None,2024-11-28 10h43.44.588764 +0100,
58,150,120,48,None,32,32,0,True,,,,left,0.8799050410161726,None,,,,,,,,,,,,,0,32,32,32,514.8061666249996,,,,,,,,,,,,,,,,,,,,,,,,,,,,,,,,,,,,,,,,,,,,,,,,,,,,,,,,,,,,,,,,,,,,,,514.799841333006,514.8061666249996,515.7998728750099,516.7894893750199,516.7894893750199,516.7894893750199,517.6750170000014,left,0.8799050410161726,None,,,,,,,,459985,001,2024-11-28_10h43.38.236,Test,2024.2.4,None,2024-11-28 10h43.44.588764 +0100,
62,150,150,4,None,33,33,0,True,,,,left,1.0603111250093207,None,,,,,,,,,,,,,0,33,33,33,517.6902170000249,,,,,,,,,,,,,,,,,,,,,,,,,,,,,,,,,,,,,,,,,,,,,,,,,,,,,,,,,,,,,,,,,,,,,,517.6833686669997,517.6902170000249,518.6884615420131,519.6744656670198,519.6744656670198,519.6744656670198,520.7419204170001,left,1.0603111250093207,None,,,,,,,,459985,001,2024-11-28_10h43.38.236,Test,2024.2.4,None,2024-11-28 10h43.44.588764 +0100,
46,150,60,45,None,34,34,0,True,,,,left,0.7636355830181856,None,,,,,,,,,,,,,0,34,34,34,520.7563636670238,,,,,,,,,,,,,,,,,,,,,,,,,,,,,,,,,,,,,,,,,,,,,,,,,,,,,,,,,,,,,,,,,,,,,,520.7505463330017,520.7563636670238,521.7500137080206,522.740927958017,522.740927958017,522.740927958017,523.5075858750206,left,0.7636355830181856,None,,,,,,,,459985,001,2024-11-28_10h43.38.236,Test,2024.2.4,None,2024-11-28 10h43.44.588764 +0100,
11,150,60,70,None,35,35,0,False,,,,left,0.8015445409982931,None,,,,,,,,,,,,,0,35,35,35,523.5211046250188,,,,,,,,,,,,,,,,,,,,,,,,,,,,,,,,,,,,,,,,,,,,,,,,,,,,,,,,,,,,,,,,,,,,,,523.5145555000054,523.5211046250188,524.5166208750161,525.5072834580205,525.5072834580205,525.5072834580205,526.3188607920019,left,0.8015445409982931,None,,,,,,,,459985,001,2024-11-28_10h43.38.236,Test,2024.2.4,None,2024-11-28 10h43.44.588764 +0100,
22,150,120,60,None,36,36,0,False,,,,left,0.9173259160015732,None,,,,,,,,,,,,,0,36,36,36,526.3335289170209,,,,,,,,,,,,,,,,,,,,,,,,,,,,,,,,,,,,,,,,,,,,,,,,,,,,,,,,,,,,,,,,,,,,,,526.3268042920099,526.3335289170209,527.3219209170202,528.3168759580003,528.3168759580003,528.3168759580003,529.2448505000211,left,0.9173259160015732,None,,,,,,,,459985,001,2024-11-28_10h43.38.236,Test,2024.2.4,None,2024-11-28 10h43.44.588764 +0100,
17,150,90,32,None,37,37,0,False,,,,left,0.8709593329986092,None,,,,,,,,,,,,,0,37,37,37,529.2566980830161,,,,,,,,,,,,,,,,,,,,,,,,,,,,,,,,,,,,,,,,,,,,,,,,,,,,,,,,,,,,,,,,,,,,,,529.251662167022,529.2566980830161,530.2551510420162,531.2407768330013,531.2407768330013,531.2407768330013,532.1188681670174,left,0.8709593329986092,None,,,,,,,,459985,001,2024-11-28_10h43.38.236,Test,2024.2.4,None,2024-11-28 10h43.44.588764 +0100,
23,150,120,18,None,38,38,0,False,,,,right,1.0568112079927232,None,,,,,,,,,,,,,0,38,38,38,532.1336802080041,,,,,,,,,,,,,,,,,,,,,,,,,,,,,,,,,,,,,,,,,,,,,,,,,,,,,,,,,,,,,,,,,,,,,,532.1265057500277,532.1336802080041,533.121886708017,534.1166314580187,534.1166314580187,534.1166314580187,535.175706708018,right,1.0568112079927232,None,,,,,,,,459985,001,2024-11-28_10h43.38.236,Test,2024.2.4,None,2024-11-28 10h43.44.588764 +0100,
15,150,60,46,None,39,39,0,False,,,,left,1.0432303749839775,None,,,,,,,,,,,,,0,39,39,39,535.1899492080265,,,,,,,,,,,,,,,,,,,,,,,,,,,,,,,,,,,,,,,,,,,,,,,,,,,,,,,,,,,,,,,,,,,,,,535.1835474580002,535.1899492080265,536.1884348330204,537.1736549170164,537.1736549170164,537.1736549170164,538.2195967500156,left,1.0432303749839775,None,,,,,,,,459985,001,2024-11-28_10h43.38.236,Test,2024.2.4,None,2024-11-28 10h43.44.588764 +0100,
66,150,180,62,None,40,40,0,True,,,,right,0.85158666598727,None,,,,,,,,,,,,,0,40,40,40,538.2389725829998,,,,,,,,,,,,,,,,,,,,,,,,,,,,,,,,,,,,,,,,,,,,,,,,,,,,,,,,,,,,,,,,,,,,,,538.2329441250185,538.2389725829998,539.2333362500067,540.2154362500005,540.2154362500005,540.2154362500005,541.0700466250128,right,0.85158666598727,None,,,,,,,,459985,001,2024-11-28_10h43.38.236,Test,2024.2.4,None,2024-11-28 10h43.44.588764 +0100,
43,150,30,2,None,41,41,0,True,,,,left,1.0350509170093574,None,,,,,,,,,,,,,0,41,41,41,541.0858888330113,,,,,,,,,,,,,,,,,,,,,,,,,,,,,,,,,,,,,,,,,,,,,,,,,,,,,,,,,,,,,,,,,,,,,,541.0802980830194,541.0858888330113,542.0832254580164,543.0668456250278,543.0668456250278,543.0668456250278,544.1084393330093,left,1.0350509170093574,None,,,,,,,,459985,001,2024-11-28_10h43.38.236,Test,2024.2.4,None,2024-11-28 10h43.44.588764 +0100,
53,150,90,39,None,42,42,0,True,,,,left,0.8433464170084335,None,,,,,,,,,,,,,0,42,42,42,544.1228565420024,,,,,,,,,,,,,,,,,,,,,,,,,,,,,,,,,,,,,,,,,,,,,,,,,,,,,,,,,,,,,,,,,,,,,,544.1168807920185,544.1228565420024,545.1167146250082,546.107267208019,546.107267208019,546.107267208019,546.9609497080091,left,0.8433464170084335,None,,,,,,,,459985,001,2024-11-28_10h43.38.236,Test,2024.2.4,None,2024-11-28 10h43.44.588764 +0100,
25,150,120,8,None,43,43,0,False,,,,left,1.426620374986669,None,,,,,,,,,,,,,0,43,43,43,546.9723631670058,,,,,,,,,,,,,,,,,,,,,,,,,,,,,,,,,,,,,,,,,,,,,,,,,,,,,,,,,,,,,,,,,,,,,,546.9675854170055,546.9723631670058,547.9667289170029,548.957581500028,548.957581500028,548.957581500028,550.3911135830276,left,1.426620374986669,None,,,,,,,,459985,001,2024-11-28_10h43.38.236,Test,2024.2.4,None,2024-11-28 10h43.44.588764 +0100,
70,150,180,20,None,44,44,0,True,,,,right,0.8712232500256505,None,,,,,,,,,,,,,0,44,44,44,550.4063223330013,,,,,,,,,,,,,,,,,,,,,,,,,,,,,,,,,,,,,,,,,,,,,,,,,,,,,,,,,,,,,,,,,,,,,,550.3999322500022,550.4063223330013,551.4000018750085,552.3903270420269,552.3903270420269,552.3903270420269,553.270234208001,right,0.8712232500256505,None,,,,,,,,459985,001,2024-11-28_10h43.38.236,Test,2024.2.4,None,2024-11-28 10h43.44.588764 +0100,
48,150,60,34,None,45,45,0,True,,,,left,0.9278453749720939,None,,,,,,,,,,,,,0,45,45,45,553.2853453330172,,,,,,,,,,,,,,,,,,,,,,,,,,,,,,,,,,,,,,,,,,,,,,,,,,,,,,,,,,,,,,,,,,,,,,553.2785928750236,553.2853453330172,554.2832033750019,555.2667295830033,555.2667295830033,555.2667295830033,556.2018825000268,left,0.9278453749720939,None,,,,,,,,459985,001,2024-11-28_10h43.38.236,Test,2024.2.4,None,2024-11-28 10h43.44.588764 +0100,
5,150,0,63,None,46,46,0,False,,,,right,0.8221909999847412,None,,,,,,,,,,,,,0,46,46,46,556.2142852920224,,,,,,,,,,,,,,,,,,,,,,,,,,,,,,,,,,,,,,,,,,,,,,,,,,,,,,,,,,,,,,,,,,,,,,556.2084100000211,556.2142852920224,557.204358750023,558.199926167028,558.199926167028,558.199926167028,559.0254544580239,right,0.8221909999847412,None,,,,,,,,459985,001,2024-11-28_10h43.38.236,Test,2024.2.4,None,2024-11-28 10h43.44.588764 +0100,
7,150,30,54,None,47,47,0,False,,,,right,0.9108532920072321,None,,,,,,,,,,,,,0,47,47,47,559.0393739170104,,,,,,,,,,,,,,,,,,,,,,,,,,,,,,,,,,,,,,,,,,,,,,,,,,,,,,,,,,,,,,,,,,,,,,559.033016500005,559.0393739170104,560.0332454170275,561.0231792500126,561.0231792500126,561.0231792500126,561.9445575000136,right,0.9108532920072321,None,,,,,,,,459985,001,2024-11-28_10h43.38.236,Test,2024.2.4,None,2024-11-28 10h43.44.588764 +0100,
41,150,30,17,None,48,48,0,True,,,,left,0.9135458329983521,None,,,,,,,,,,,,,0,48,48,48,561.956394458015,,,,,,,,,,,,,,,,,,,,,,,,,,,,,,,,,,,,,,,,,,,,,,,,,,,,,,,,,,,,,,,,,,,,,,561.9516166250105,561.956394458015,562.9543286670232,563.9409705420258,563.9409705420258,563.9409705420258,564.858393625007,left,0.9135458329983521,None,,,,,,,,459985,001,2024-11-28_10h43.38.236,Test,2024.2.4,None,2024-11-28 10h43.44.588764 +0100,
29,150,150,28,None,49,49,0,False,,,,right,1.126857374998508,None,,,,,,,,,,,,,0,49,49,49,564.8725097080169,,,,,,,,,,,,,,,,,,,,,,,,,,,,,,,,,,,,,,,,,,,,,,,,,,,,,,,,,,,,,,,,,,,,,,564.8659523750248,564.8725097080169,565.8666354170127,566.8571637920104,566.8571637920104,566.8571637920104,567.994767917,right,1.126857374998508,None,,,,,,,,459985,001,2024-11-28_10h43.38.236,Test,2024.2.4,None,2024-11-28 10h43.44.588764 +0100,
6,150,30,49,None,50,50,0,False,,,,right,0.879023541987408,None,,,,,,,,,,,,,0,50,50,50,568.0055372920178,,,,,,,,,,,,,,,,,,,,,,,,,,,,,,,,,,,,,,,,,,,,,,,,,,,,,,,,,,,,,,,,,,,,,,568.0009929170192,568.0055372920178,568.999869250023,569.9903377920273,569.9903377920273,569.9903377920273,570.874399458,right,0.879023541987408,None,,,,,,,,459985,001,2024-11-28_10h43.38.236,Test,2024.2.4,None,2024-11-28 10h43.44.588764 +0100,
27,150,150,35,None,51,51,0,False,,,,left,1.310234375006985,None,,,,,,,,,,,,,0,51,51,51,570.8886416250025,,,,,,,,,,,,,,,,,,,,,,,,,,,,,,,,,,,,,,,,,,,,,,,,,,,,,,,,,,,,,,,,,,,,,,570.8816763330251,570.8886416250025,571.8832137080026,572.8736832920113,572.8736832920113,572.8736832920113,574.1867289170041,left,1.310234375006985,None,,,,,,,,459985,001,2024-11-28_10h43.38.236,Test,2024.2.4,None,2024-11-28 10h43.44.588764 +0100,
55,150,90,22,None,52,52,0,True,,,,left,1.5939958340022713,None,,,,,,,,,,,,,0,52,52,52,574.2013829170028,,,,,,,,,,,,,,,,,,,,,,,,,,,,,,,,,,,,,,,,,,,,,,,,,,,,,,,,,,,,,,,,,,,,,,574.1953435000032,574.2013829170028,575.199865417002,576.1834123330191,576.1834123330191,576.1834123330191,577.7853293750086,left,1.5939958340022713,None,,,,,,,,459985,001,2024-11-28_10h43.38.236,Test,2024.2.4,None,2024-11-28 10h43.44.588764 +0100,
32,150,180,3,None,53,53,0,False,,,,right,1.2672808339993935,None,,,,,,,,,,,,,0,53,53,53,577.8004987500026,,,,,,,,,,,,,,,,,,,,,,,,,,,,,,,,,,,,,,,,,,,,,,,,,,,,,,,,,,,,,,,,,,,,,,577.7929178750201,577.8004987500026,578.787647500023,579.7833631250251,579.7833631250251,579.7833631250251,581.0615685420053,right,1.2672808339993935,None,,,,,,,,459985,001,2024-11-28_10h43.38.236,Test,2024.2.4,None,2024-11-28 10h43.44.588764 +0100,
13,150,60,51,None,54,54,0,False,,,,left,0.7995510420005303,None,,,,,,,,,,,,,0,54,54,54,581.0726822080032,,,,,,,,,,,,,,,,,,,,,,,,,,,,,,,,,,,,,,,,,,,,,,,,,,,,,,,,,,,,,,,,,,,,,,581.0676896250225,581.0726822080032,582.0667966250039,583.0574734580005,583.0574734580005,583.0574734580005,583.8674906250089,left,0.7995510420005303,None,,,,,,,,459985,001,2024-11-28_10h43.38.236,Test,2024.2.4,None,2024-11-28 10h43.44.588764 +0100,
2,150,0,55,None,55,55,0,False,,,,right,0.8860246669792105,None,,,,,,,,,,,,,0,55,55,55,583.8793886670028,,,,,,,,,,,,,,,,,,,,,,,,,,,,,,,,,,,,,,,,,,,,,,,,,,,,,,,,,,,,,,,,,,,,,,583.8742417080211,583.8793886670028,584.8719064170145,585.8573420419998,585.8573420419998,585.8573420419998,586.7519766250043,right,0.8860246669792105,None,,,,,,,,459985,001,2024-11-28_10h43.38.236,Test,2024.2.4,None,2024-11-28 10h43.44.588764 +0100,
10,150,30,36,None,56,56,0,False,,,,left,0.7669054580037482,None,,,,,,,,,,,,,0,56,56,56,586.7663504170196,,,,,,,,,,,,,,,,,,,,,,,,,,,,,,,,,,,,,,,,,,,,,,,,,,,,,,,,,,,,,,,,,,,,,,586.7594810420123,586.7663504170196,587.7552875830152,588.7499957500258,588.7499957500258,588.7499957500258,589.5194176670047,left,0.7669054580037482,None,,,,,,,,459985,001,2024-11-28_10h43.38.236,Test,2024.2.4,None,2024-11-28 10h43.44.588764 +0100,
30,150,150,1,None,57,57,0,False,,,,left,0.9209814579808153,None,,,,,,,,,,,,,0,57,57,57,589.5338931670121,,,,,,,,,,,,,,,,,,,,,,,,,,,,,,,,,,,,,,,,,,,,,,,,,,,,,,,,,,,,,,,,,,,,,,589.5269272500009,589.5338931670121,590.5215462920023,591.5167548750178,591.5167548750178,591.5167548750178,592.4415975000011,left,0.9209814579808153,None,,,,,,,,459985,001,2024-11-28_10h43.38.236,Test,2024.2.4,None,2024-11-28 10h43.44.588764 +0100,
8,150,30,57,None,58,58,0,False,,,,left,1.114262957999017,None,,,,,,,,,,,,,0,58,58,58,592.4553967920074,,,,,,,,,,,,,,,,,,,,,,,,,,,,,,,,,,,,,,,,,,,,,,,,,,,,,,,,,,,,,,,,,,,,,,592.4488842080173,592.4553967920074,593.4497781250102,594.4405285830144,594.4405285830144,594.4405285830144,595.5576126670057,left,1.114262957999017,None,,,,,,,,459985,001,2024-11-28_10h43.38.236,Test,2024.2.4,None,2024-11-28 10h43.44.588764 +0100,
54,150,90,31,None,59,59,0,True,,,,left,1.061611167009687,None,,,,,,,,,,,,,0,59,59,59,595.5715590000036,,,,,,,,,,,,,,,,,,,,,,,,,,,,,,,,,,,,,,,,,,,,,,,,,,,,,,,,,,,,,,,,,,,,,,595.5654847500264,595.5715590000036,596.5669216250244,597.5569001670228,597.5569001670228,597.5569001670228,598.625295875012,left,1.061611167009687,None,,,,,,,,459985,001,2024-11-28_10h43.38.236,Test,2024.2.4,None,2024-11-28 10h43.44.588764 +0100,
49,150,60,52,None,60,60,0,True,,,,left,1.4969648330006748,None,,,,,,,,,,,,,0,60,60,60,598.6406016670226,,,,,,,,,,,,,,,,,,,,,,,,,,,,,,,,,,,,,,,,,,,,,,,,,,,,,,,,,,,,,,,,,,,,,,598.6341571250232,598.6406016670226,599.6389182920102,600.6245366670191,600.6245366670191,600.6245366670191,602.1247645000112,left,1.4969648330006748,None,,,,,,,,459985,001,2024-11-28_10h43.38.236,Test,2024.2.4,None,2024-11-28 10h43.44.588764 +0100,
65,150,150,13,None,61,61,0,True,,,,left,1.1966251250123605,None,,,,,,,,,,,,,0,61,61,61,602.1399519170227,,,,,,,,,,,,,,,,,,,,,,,,,,,,,,,,,,,,,,,,,,,,,,,,,,,,,,,,,,,,,,,,,,,,,,602.1334821670025,602.1399519170227,603.1331933750189,604.1230359580077,604.1230359580077,604.1230359580077,605.3252835830208,left,1.1966251250123605,None,,,,,,,,459985,001,2024-11-28_10h43.38.236,Test,2024.2.4,None,2024-11-28 10h43.44.588764 +0100,
4,150,0,6,None,62,62,0,False,,,,right,1.5640210419951472,None,,,,,,,,,,,,,0,62,62,62,605.3394058750127,,,,,,,,,,,,,,,,,,,,,,,,,,,,,,,,,,,,,,,,,,,,,,,,,,,,,,,,,,,,,,,,,,,,,,605.3327563750208,605.3394058750127,606.3332883750263,607.3244840000116,607.3244840000116,607.3244840000116,608.8917559580004,right,1.5640210419951472,None,,,,,,,,459985,001,2024-11-28_10h43.38.236,Test,2024.2.4,None,2024-11-28 10h43.44.588764 +0100,
31,150,180,56,None,63,63,0,False,,,,right,1.231409750005696,None,,,,,,,,,,,,,0,63,63,63,608.9058320000186,,,,,,,,,,,,,,,,,,,,,,,,,,,,,,,,,,,,,,,,,,,,,,,,,,,,,,,,,,,,,,,,,,,,,,608.8991462500126,608.9058320000186,609.8999650420155,610.8905363330268,610.8905363330268,610.8905363330268,612.1243741670041,right,1.231409750005696,None,,,,,,,,459985,001,2024-11-28_10h43.38.236,Test,2024.2.4,None,2024-11-28 10h43.44.588764 +0100,
42,150,30,65,None,64,64,0,True,,,,left,0.8006748339976184,None,,,,,,,,,,,,,0,64,64,64,612.1389552920009,,,,,,,,,,,,,,,,,,,,,,,,,,,,,,,,,,,,,,,,,,,,,,,,,,,,,,,,,,,,,,,,,,,,,,612.1325061670213,612.1389552920009,613.1331286250206,614.1229822500027,614.1229822500027,614.1229822500027,614.9358088330191,left,0.8006748339976184,None,,,,,,,,459985,001,2024-11-28_10h43.38.236,Test,2024.2.4,None,2024-11-28 10h43.44.588764 +0100,
19,150,90,15,None,65,65,0,False,,,,right,0.9946292920212727,None,,,,,,,,,,,,,0,65,65,65,614.9506883750146,,,,,,,,,,,,,,,,,,,,,,,,,,,,,,,,,,,,,,,,,,,,,,,,,,,,,,,,,,,,,,,,,,,,,,614.9435618330026,614.9506883750146,615.9377016670187,616.9334133330267,616.9334133330267,616.9334133330267,617.9353715830075,right,0.9946292920212727,None,,,,,,,,459985,001,2024-11-28_10h43.38.236,Test,2024.2.4,None,2024-11-28 10h43.44.588764 +0100,
34,150,180,40,None,66,66,0,False,,,,left,0.9834667499817442,None,,,,,,,,,,,,,0,66,66,66,617.9501084580261,,,,,,,,,,,,,,,,,,,,,,,,,,,,,,,,,,,,,,,,,,,,,,,,,,,,,,,,,,,,,,,,,,,,,,617.9431197920057,617.9501084580261,618.9385480830097,619.9332995830046,619.9332995830046,619.9332995830046,620.9189785420022,left,0.9834667499817442,None,,,,,,,,459985,001,2024-11-28_10h43.38.236,Test,2024.2.4,None,2024-11-28 10h43.44.588764 +0100,
67,150,180,29,None,67,67,0,True,,,,left,0.8559222500189207,None,,,,,,,,,,,,,0,67,67,67,620.9346765000082,,,,,,,,,,,,,,,,,,,,,,,,,,,,,,,,,,,,,,,,,,,,,,,,,,,,,,,,,,,,,,,,,,,,,,620.9282351250004,620.9346765000082,621.9331460420217,622.9167423750041,622.9167423750041,622.9167423750041,623.7750140000135,left,0.8559222500189207,None,,,,,,,,459985,001,2024-11-28_10h43.38.236,Test,2024.2.4,None,2024-11-28 10h43.44.588764 +0100,
52,150,90,30,None,68,68,0,True,,,,left,0.8682774170010816,None,,,,,,,,,,,,,0,68,68,68,623.7902937080071,,,,,,,,,,,,,,,,,,,,,,,,,,,,,,,,,,,,,,,,,,,,,,,,,,,,,,,,,,,,,,,,,,,,,,623.7842629170045,623.7902937080071,624.7877313330246,625.7737870000128,625.7737870000128,625.7737870000128,626.6518842500227,left,0.8682774170010816,None,,,,,,,,459985,001,2024-11-28_10h43.38.236,Test,2024.2.4,None,2024-11-28 10h43.44.588764 +0100,
36,150,0,44,None,69,69,0,True,,,,right,1.1883696659933776,None,,,,,,,,,,,,,0,69,69,69,626.6670620420191,,,,,,,,,,,,,,,,,,,,,,,,,,,,,,,,,,,,,,,,,,,,,,,,,,,,,,,,,,,,,,,,,,,,,,626.6608674580057,626.6670620420191,627.6544482920144,628.6499870830157,628.6499870830157,628.6499870830157,629.8415975420212,right,1.1883696659933776,None,,,,,,,,459985,001,2024-11-28_10h43.38.236,Test,2024.2.4,None,2024-11-28 10h43.44.588764 +0100,
,,,,,,,,,,,,,,,,,,,,,,,,,,,,,,,,,,,,,,,,,,,,,,,,,,,,,,,,,,,,,,,,,,,,,,,,,,,,,,,,,,,,,,,,,,,,,,,,,,,,,,,,,,,,,,,629.8418844170228,629.8511205420073,629.8511205420073,631.4519217920024,space,1.5897008750180248,None,459985,001,2024-11-28_10h43.38.236,Test,2024.2.4,None,2024-11-28 10h43.44.588764 +0100,
