Trial_Number,Exposure_Duration,Displacement_Angle,Stimulus,Response,thisN,thisTrialN,thisRepN,Is_Distractor,key_resp_3.keys,key_resp_3.rt,key_resp_3.duration,key_resp_7.keys,key_resp_7.rt,key_resp_7.duration,trials.thisRepN,trials.thisTrialN,trials.thisN,trials.thisIndex,trials_2.thisRepN,trials_2.thisTrialN,trials_2.thisN,trials_2.thisIndex,trials_3.thisRepN,trials_3.thisTrialN,trials_3.thisN,trials_3.thisIndex,trials_4.thisRepN,trials_4.thisTrialN,trials_4.thisN,trials_4.thisIndex,thisRow.t,notes,Intro_to_experiment.started,important1_2.started,key_resp_8.started,Intro_to_experiment.stopped,key_resp_8.keys,key_resp_8.rt,key_resp_8.duration,important.started,important1.started,key_resp_4.started,important.stopped,key_resp_4.keys,key_resp_4.rt,key_resp_4.duration,instruction.started,text_7.started,key_resp_9.started,text_7.stopped,instruction.stopped,key_resp_9.keys,key_resp_9.rt,key_resp_9.duration,training_trial.started,cross.started,image.started,aperture.started,cross.stopped,image.stopped,aperture.stopped,training_trial.stopped,New_instruction.started,text.started,key_resp_2.started,New_instruction.stopped,key_resp_2.keys,key_resp_2.rt,key_resp_2.duration,test_trial.started,cross2.started,cross2.stopped,image_2.started,key_resp_3.started,aperture_2.started,test_trial.stopped,trials_2.key_resp_3.keys,trials_2.key_resp_3.rt,trials_2.key_resp_3.duration,image_2.stopped,text_3.started,aperture_2.stopped,start_blok_2.started,key_resp_5.started,text_4.started,start_blok_2.stopped,key_resp_5.keys,key_resp_5.rt,key_resp_5.duration,training_2.started,cross_2.started,image_3.started,aperture_3.started,cross_2.stopped,image_3.stopped,aperture_3.stopped,training_2.stopped,nyeste_instruks.started,text_5.started,key_resp_6.started,nyeste_instruks.stopped,key_resp_6.keys,key_resp_6.rt,key_resp_6.duration,test_2.started,cross2_2.started,cross2_2.stopped,image_4.started,key_resp_7.started,aperture_4.started,test_2.stopped,trials_4.key_resp_7.keys,trials_4.key_resp_7.rt,trials_4.key_resp_7.duration,image_4.stopped,text_6.started,aperture_4.stopped,Instruction1.started,Instruktion.started,key_resp.started,Instruction1.stopped,key_resp.keys,key_resp.rt,key_resp.duration,participant,session,date,expName,psychopyVersion,frameRate,expStart,
,,,,,,,,,,,,,,,,,,,,,,,,,,,,,,,,,0.009390277999955288,0.02050095199996349,0.02050095199996349,34.765313599999956,space,34.71333200699996,None,,,,,,,,,,,,,,,,,,,,,,,,,,,,,,,,,,,,,,,,,,,,,,,,,,,,,,,,,,,,,,,,,,,,,,,,,,,,,,,,,,,,,,472923,001,2024-11-28_14h22.43.229,Test,2024.2.1,59.931970501111614,2024-11-28 14h22.54.022083 +0100,
,,,,,,,,,,,,,,,,,,,,,,,,,,,,,,,,,,,,,,,,34.76541381599998,34.79380697899995,34.79380697899995,50.24765076599999,space,15.437191417999998,None,,,,,,,,,,,,,,,,,,,,,,,,,,,,,,,,,,,,,,,,,,,,,,,,,,,,,,,,,,,,,,,,,,,,,,,,,,,,,,,472923,001,2024-11-28_14h22.43.229,Test,2024.2.1,59.931970501111614,2024-11-28 14h22.54.022083 +0100,
,,,,,,,,,,,,,,,,,,,,,,,,,,,,,,,,,,,,,,,,,,,,,,,50.24774098099999,50.26302200199996,50.26302200199996,51.26280291399996,58.63208240399996,space,8.360658349999994,None,,,,,,,,,,,,,,,,,,,,,,,,,,,,,,,,,,,,,,,,,,,,,,,,,,,,,,,,,,,,,,,,,,,,,,,472923,001,2024-11-28_14h22.43.229,Test,2024.2.1,59.931970501111614,2024-11-28 14h22.54.022083 +0100,
16,150,90,35,None,0,0,0,,,,,,,,0,0,0,15,,,,,,,,,,,,,58.71457809499998,,,,,,,,,,,,,,,,,,,,,,,,58.703695169999946,58.71457809499998,58.84650677099995,58.84650677099995,58.92962823399995,60.54857444099997,60.54857444099997,60.53104724099995,,,,,,,,,,,,,,,,,,,,,,,,,,,,,,,,,,,,,,,,,,,,,,,,,,,,,,,,,,,,,,,472923,001,2024-11-28_14h22.43.229,Test,2024.2.1,59.931970501111614,2024-11-28 14h22.54.022083 +0100,
35,150,180,23,None,1,1,0,,,,,,,,0,1,1,34,,,,,,,,,,,,,60.54857444099997,,,,,,,,,,,,,,,,,,,,,,,,60.539801581999996,60.54857444099997,60.74619703299999,60.74619703299999,60.76327006699995,62.448343539999996,62.448343539999996,62.43041011299999,,,,,,,,,,,,,,,,,,,,,,,,,,,,,,,,,,,,,,,,,,,,,,,,,,,,,,,,,,,,,,,472923,001,2024-11-28_14h22.43.229,Test,2024.2.1,59.931970501111614,2024-11-28 14h22.54.022083 +0100,
8,150,30,30,None,2,2,0,,,,,,,,0,2,2,7,,,,,,,,,,,,,62.448343539999996,,,,,,,,,,,,,,,,,,,,,,,,62.43895767099997,62.448343539999996,62.646600208999985,62.646600208999985,62.663320510999995,64.34750390399995,64.34750390399995,64.33095423499998,,,,,,,,,,,,,,,,,,,,,,,,,,,,,,,,,,,,,,,,,,,,,,,,,,,,,,,,,,,,,,,472923,001,2024-11-28_14h22.43.229,Test,2024.2.1,59.931970501111614,2024-11-28 14h22.54.022083 +0100,
34,150,180,27,None,3,3,0,,,,,,,,0,3,3,33,,,,,,,,,,,,,64.34750390399995,,,,,,,,,,,,,,,,,,,,,,,,64.33918970399998,64.34750390399995,64.54682900299997,64.54682900299997,64.54682900299997,66.24810356999996,66.24810356999996,66.23113429099999,,,,,,,,,,,,,,,,,,,,,,,,,,,,,,,,,,,,,,,,,,,,,,,,,,,,,,,,,,,,,,,472923,001,2024-11-28_14h22.43.229,Test,2024.2.1,59.931970501111614,2024-11-28 14h22.54.022083 +0100,
17,150,90,5,None,4,4,0,,,,,,,,0,4,4,16,,,,,,,,,,,,,66.24810356999996,,,,,,,,,,,,,,,,,,,,,,,,66.23954768599998,66.24810356999996,66.44677913299995,66.44677913299995,66.46356824499998,68.14703962399994,68.14703962399994,68.13120680799994,,,,,,,,,,,,,,,,,,,,,,,,,,,,,,,,,,,,,,,,,,,,,,,,,,,,,,,,,,,,,,,472923,001,2024-11-28_14h22.43.229,Test,2024.2.1,59.931970501111614,2024-11-28 14h22.54.022083 +0100,
6,150,30,48,None,5,5,0,,,,,,,,0,5,5,5,,,,,,,,,,,,,68.14703962399994,,,,,,,,,,,,,,,,,,,,,,,,68.13851781299996,68.14703962399994,68.34693732699998,68.34693732699998,68.34693732699998,70.04689296999999,70.04689296999999,70.03107452699999,,,,,,,,,,,,,,,,,,,,,,,,,,,,,,,,,,,,,,,,,,,,,,,,,,,,,,,,,,,,,,,472923,001,2024-11-28_14h22.43.229,Test,2024.2.1,59.931970501111614,2024-11-28 14h22.54.022083 +0100,
31,150,180,59,None,6,6,0,,,,,,,,0,6,6,30,,,,,,,,,,,,,70.04689296999999,,,,,,,,,,,,,,,,,,,,,,,,70.03797603499999,70.04689296999999,70.247016283,70.247016283,70.247016283,71.94753036199995,71.94753036199995,71.93140153099995,,,,,,,,,,,,,,,,,,,,,,,,,,,,,,,,,,,,,,,,,,,,,,,,,,,,,,,,,,,,,,,472923,001,2024-11-28_14h22.43.229,Test,2024.2.1,59.931970501111614,2024-11-28 14h22.54.022083 +0100,
3,150,0,68,None,7,7,0,,,,,,,,0,7,7,2,,,,,,,,,,,,,71.94753036199995,,,,,,,,,,,,,,,,,,,,,,,,71.93777514199996,71.94753036199995,72.14728154199997,72.14728154199997,72.14728154199997,73.84840837899998,73.84840837899998,73.83155795899995,,,,,,,,,,,,,,,,,,,,,,,,,,,,,,,,,,,,,,,,,,,,,,,,,,,,,,,,,,,,,,,472923,001,2024-11-28_14h22.43.229,Test,2024.2.1,59.931970501111614,2024-11-28 14h22.54.022083 +0100,
24,150,120,67,None,8,8,0,,,,,,,,0,8,8,23,,,,,,,,,,,,,73.84840837899998,,,,,,,,,,,,,,,,,,,,,,,,73.83981935399999,73.84840837899998,74.04729998099998,74.04729998099998,74.06427588899999,75.74930418299999,75.74930418299999,75.73200981299999,,,,,,,,,,,,,,,,,,,,,,,,,,,,,,,,,,,,,,,,,,,,,,,,,,,,,,,,,,,,,,,472923,001,2024-11-28_14h22.43.229,Test,2024.2.1,59.931970501111614,2024-11-28 14h22.54.022083 +0100,
25,150,120,15,None,9,9,0,,,,,,,,0,9,9,24,,,,,,,,,,,,,75.74930418299999,,,,,,,,,,,,,,,,,,,,,,,,75.73974460099998,75.74930418299999,75.94733733099997,75.94733733099997,75.96452389399997,77.65466180899995,77.65466180899995,77.63176008899995,,,,,,,,,,,,,,,,,,,,,,,,,,,,,,,,,,,,,,,,,,,,,,,,,,,,,,,,,,,,,,,472923,001,2024-11-28_14h22.43.229,Test,2024.2.1,59.931970501111614,2024-11-28 14h22.54.022083 +0100,
14,150,60,34,None,10,10,0,,,,,,,,0,10,10,13,,,,,,,,,,,,,77.65466180899995,,,,,,,,,,,,,,,,,,,,,,,,77.64624881699996,77.65466180899995,77.84762732099995,77.84762732099995,77.86433953699998,79.54894800199997,79.54894800199997,79.53170780099998,,,,,,,,,,,,,,,,,,,,,,,,,,,,,,,,,,,,,,,,,,,,,,,,,,,,,,,,,,,,,,,472923,001,2024-11-28_14h22.43.229,Test,2024.2.1,59.931970501111614,2024-11-28 14h22.54.022083 +0100,
30,150,150,61,None,11,11,0,,,,,,,,0,11,11,29,,,,,,,,,,,,,79.54894800199997,,,,,,,,,,,,,,,,,,,,,,,,79.54072545499997,79.54894800199997,79.747577063,79.747577063,79.764446013,81.44841528499995,81.44841528499995,81.43228224399996,,,,,,,,,,,,,,,,,,,,,,,,,,,,,,,,,,,,,,,,,,,,,,,,,,,,,,,,,,,,,,,472923,001,2024-11-28_14h22.43.229,Test,2024.2.1,59.931970501111614,2024-11-28 14h22.54.022083 +0100,
15,150,60,6,None,12,12,0,,,,,,,,0,12,12,14,,,,,,,,,,,,,81.44841528499995,,,,,,,,,,,,,,,,,,,,,,,,81.43915434999997,81.44841528499995,81.63153138399997,81.63153138399997,81.64814426599997,83.33143872699998,83.33143872699998,83.31555160199997,,,,,,,,,,,,,,,,,,,,,,,,,,,,,,,,,,,,,,,,,,,,,,,,,,,,,,,,,,,,,,,472923,001,2024-11-28_14h22.43.229,Test,2024.2.1,59.931970501111614,2024-11-28 14h22.54.022083 +0100,
26,150,150,17,None,13,13,0,,,,,,,,0,13,13,25,,,,,,,,,,,,,83.33143872699998,,,,,,,,,,,,,,,,,,,,,,,,83.32329173099998,83.33143872699998,83.53209747599999,83.53209747599999,83.53209747599999,85.23207856199997,85.23207856199997,85.21569961299997,,,,,,,,,,,,,,,,,,,,,,,,,,,,,,,,,,,,,,,,,,,,,,,,,,,,,,,,,,,,,,,472923,001,2024-11-28_14h22.43.229,Test,2024.2.1,59.931970501111614,2024-11-28 14h22.54.022083 +0100,
13,150,60,65,None,14,14,0,,,,,,,,0,14,14,12,,,,,,,,,,,,,85.23207856199997,,,,,,,,,,,,,,,,,,,,,,,,85.22365255999995,85.23207856199997,85.43178237999996,85.43178237999996,85.43178237999996,87.13202346499997,87.13202346499997,87.11559285299995,,,,,,,,,,,,,,,,,,,,,,,,,,,,,,,,,,,,,,,,,,,,,,,,,,,,,,,,,,,,,,,472923,001,2024-11-28_14h22.43.229,Test,2024.2.1,59.931970501111614,2024-11-28 14h22.54.022083 +0100,
1,150,0,69,None,15,15,0,,,,,,,,0,15,15,0,,,,,,,,,,,,,87.13202346499997,,,,,,,,,,,,,,,,,,,,,,,,87.123686061,87.13202346499997,87.33145502099995,87.33145502099995,87.33145502099995,89.03365341799997,89.03365341799997,89.01607944299997,,,,,,,,,,,,,,,,,,,,,,,,,,,,,,,,,,,,,,,,,,,,,,,,,,,,,,,,,,,,,,,472923,001,2024-11-28_14h22.43.229,Test,2024.2.1,59.931970501111614,2024-11-28 14h22.54.022083 +0100,
32,150,180,37,None,16,16,0,,,,,,,,0,16,16,31,,,,,,,,,,,,,89.03365341799997,,,,,,,,,,,,,,,,,,,,,,,,89.02550473499997,89.03365341799997,89.23203252599995,89.23203252599995,89.24846168099998,90.94706429599995,90.94706429599995,90.91597648499999,,,,,,,,,,,,,,,,,,,,,,,,,,,,,,,,,,,,,,,,,,,,,,,,,,,,,,,,,,,,,,,472923,001,2024-11-28_14h22.43.229,Test,2024.2.1,59.931970501111614,2024-11-28 14h22.54.022083 +0100,
5,150,0,64,None,17,17,0,,,,,,,,0,17,17,4,,,,,,,,,,,,,90.94706429599995,,,,,,,,,,,,,,,,,,,,,,,,90.92503179599998,90.94706429599995,91.13187621699996,91.13187621699996,91.14852434,92.83293265499998,92.83293265499998,92.81612844799997,,,,,,,,,,,,,,,,,,,,,,,,,,,,,,,,,,,,,,,,,,,,,,,,,,,,,,,,,,,,,,,472923,001,2024-11-28_14h22.43.229,Test,2024.2.1,59.931970501111614,2024-11-28 14h22.54.022083 +0100,
22,150,120,7,None,18,18,0,,,,,,,,0,18,18,21,,,,,,,,,,,,,92.83293265499998,,,,,,,,,,,,,,,,,,,,,,,,92.82423185699997,92.83293265499998,93.03248060599998,93.03248060599998,93.04938017899997,94.73537962699999,94.73537962699999,94.71747054599996,,,,,,,,,,,,,,,,,,,,,,,,,,,,,,,,,,,,,,,,,,,,,,,,,,,,,,,,,,,,,,,472923,001,2024-11-28_14h22.43.229,Test,2024.2.1,59.931970501111614,2024-11-28 14h22.54.022083 +0100,
2,150,0,2,None,19,19,0,,,,,,,,0,19,19,1,,,,,,,,,,,,,94.73537962699999,,,,,,,,,,,,,,,,,,,,,,,,94.72707654699997,94.73537962699999,94.93211625799995,94.93211625799995,94.94888828299997,96.63313861999995,96.63313861999995,96.61656357299995,,,,,,,,,,,,,,,,,,,,,,,,,,,,,,,,,,,,,,,,,,,,,,,,,,,,,,,,,,,,,,,472923,001,2024-11-28_14h22.43.229,Test,2024.2.1,59.931970501111614,2024-11-28 14h22.54.022083 +0100,
23,150,120,12,None,20,20,0,,,,,,,,0,20,20,22,,,,,,,,,,,,,96.63313861999995,,,,,,,,,,,,,,,,,,,,,,,,96.62454506499995,96.63313861999995,96.83238916099998,96.83238916099998,96.84911451099998,98.53239935399995,98.53239935399995,98.51649465099996,,,,,,,,,,,,,,,,,,,,,,,,,,,,,,,,,,,,,,,,,,,,,,,,,,,,,,,,,,,,,,,472923,001,2024-11-28_14h22.43.229,Test,2024.2.1,59.931970501111614,2024-11-28 14h22.54.022083 +0100,
21,150,120,3,None,21,21,0,,,,,,,,0,21,21,20,,,,,,,,,,,,,98.53239935399995,,,,,,,,,,,,,,,,,,,,,,,,98.52394357399999,98.53239935399995,98.732731199,98.732731199,98.732731199,100.43274085399997,100.43274085399997,100.41671412799997,,,,,,,,,,,,,,,,,,,,,,,,,,,,,,,,,,,,,,,,,,,,,,,,,,,,,,,,,,,,,,,472923,001,2024-11-28_14h22.43.229,Test,2024.2.1,59.931970501111614,2024-11-28 14h22.54.022083 +0100,
27,150,150,53,None,22,22,0,,,,,,,,0,22,22,26,,,,,,,,,,,,,100.43274085399997,,,,,,,,,,,,,,,,,,,,,,,,100.42410872299996,100.43274085399997,100.63236644399996,100.63236644399996,100.63236644399996,102.33391603399997,102.33391603399997,102.31697814099999,,,,,,,,,,,,,,,,,,,,,,,,,,,,,,,,,,,,,,,,,,,,,,,,,,,,,,,,,,,,,,,472923,001,2024-11-28_14h22.43.229,Test,2024.2.1,59.931970501111614,2024-11-28 14h22.54.022083 +0100,
19,150,90,29,None,23,23,0,,,,,,,,0,23,23,18,,,,,,,,,,,,,102.33391603399997,,,,,,,,,,,,,,,,,,,,,,,,102.32546027699999,102.33391603399997,102.532587772,102.532587772,102.54913821699995,104.233717147,104.233717147,104.21673875699997,,,,,,,,,,,,,,,,,,,,,,,,,,,,,,,,,,,,,,,,,,,,,,,,,,,,,,,,,,,,,,,472923,001,2024-11-28_14h22.43.229,Test,2024.2.1,59.931970501111614,2024-11-28 14h22.54.022083 +0100,
18,150,90,70,None,24,24,0,,,,,,,,0,24,24,17,,,,,,,,,,,,,104.233717147,,,,,,,,,,,,,,,,,,,,,,,,104.22548921299995,104.233717147,104.43251329699996,104.43251329699996,104.44954614199997,106.13324383499997,106.13324383499997,106.11715926599999,,,,,,,,,,,,,,,,,,,,,,,,,,,,,,,,,,,,,,,,,,,,,,,,,,,,,,,,,,,,,,,472923,001,2024-11-28_14h22.43.229,Test,2024.2.1,59.931970501111614,2024-11-28 14h22.54.022083 +0100,
11,150,60,22,None,25,25,0,,,,,,,,0,25,25,10,,,,,,,,,,,,,106.13324383499997,,,,,,,,,,,,,,,,,,,,,,,,106.125303358,106.13324383499997,106.33307922999995,106.33307922999995,106.33307922999995,108.03343902399996,108.03343902399996,108.017130442,,,,,,,,,,,,,,,,,,,,,,,,,,,,,,,,,,,,,,,,,,,,,,,,,,,,,,,,,,,,,,,472923,001,2024-11-28_14h22.43.229,Test,2024.2.1,59.931970501111614,2024-11-28 14h22.54.022083 +0100,
4,150,0,54,None,26,26,0,,,,,,,,0,26,26,3,,,,,,,,,,,,,108.03343902399996,,,,,,,,,,,,,,,,,,,,,,,,108.02516703099997,108.03343902399996,108.233117935,108.233117935,108.233117935,109.93318257899995,109.93318257899995,109.91717487,,,,,,,,,,,,,,,,,,,,,,,,,,,,,,,,,,,,,,,,,,,,,,,,,,,,,,,,,,,,,,,472923,001,2024-11-28_14h22.43.229,Test,2024.2.1,59.931970501111614,2024-11-28 14h22.54.022083 +0100,
12,150,60,45,None,27,27,0,,,,,,,,0,27,27,11,,,,,,,,,,,,,109.93318257899995,,,,,,,,,,,,,,,,,,,,,,,,109.92442161399998,109.93318257899995,110.13316248799998,110.13316248799998,110.13316248799998,111.833103021,111.833103021,111.81736142699998,,,,,,,,,,,,,,,,,,,,,,,,,,,,,,,,,,,,,,,,,,,,,,,,,,,,,,,,,,,,,,,472923,001,2024-11-28_14h22.43.229,Test,2024.2.1,59.931970501111614,2024-11-28 14h22.54.022083 +0100,
28,150,150,19,None,28,28,0,,,,,,,,0,28,28,27,,,,,,,,,,,,,111.833103021,,,,,,,,,,,,,,,,,,,,,,,,111.82435476999996,111.833103021,112.03308337899995,112.03308337899995,112.03308337899995,113.74867990899997,113.74867990899997,113.71825517699995,,,,,,,,,,,,,,,,,,,,,,,,,,,,,,,,,,,,,,,,,,,,,,,,,,,,,,,,,,,,,,,472923,001,2024-11-28_14h22.43.229,Test,2024.2.1,59.931970501111614,2024-11-28 14h22.54.022083 +0100,
7,150,30,58,None,29,29,0,,,,,,,,0,29,29,6,,,,,,,,,,,,,113.74867990899997,,,,,,,,,,,,,,,,,,,,,,,,113.726394003,113.74867990899997,113.93336078399994,113.93336078399994,113.950382419,115.633515757,115.633515757,115.61746017899998,,,,,,,,,,,,,,,,,,,,,,,,,,,,,,,,,,,,,,,,,,,,,,,,,,,,,,,,,,,,,,,472923,001,2024-11-28_14h22.43.229,Test,2024.2.1,59.931970501111614,2024-11-28 14h22.54.022083 +0100,
10,150,30,4,None,30,30,0,,,,,,,,0,30,30,9,,,,,,,,,,,,,115.633515757,,,,,,,,,,,,,,,,,,,,,,,,115.62442171799995,115.633515757,115.83342497299998,115.83342497299998,115.83342497299998,117.53349902699995,117.53349902699995,117.51784303799997,,,,,,,,,,,,,,,,,,,,,,,,,,,,,,,,,,,,,,,,,,,,,,,,,,,,,,,,,,,,,,,472923,001,2024-11-28_14h22.43.229,Test,2024.2.1,59.931970501111614,2024-11-28 14h22.54.022083 +0100,
33,150,180,41,None,31,31,0,,,,,,,,0,31,31,32,,,,,,,,,,,,,117.53349902699995,,,,,,,,,,,,,,,,,,,,,,,,117.524788495,117.53349902699995,117.73343111699995,117.73343111699995,117.73343111699995,119.43423394099995,119.43423394099995,119.41798714599997,,,,,,,,,,,,,,,,,,,,,,,,,,,,,,,,,,,,,,,,,,,,,,,,,,,,,,,,,,,,,,,472923,001,2024-11-28_14h22.43.229,Test,2024.2.1,59.931970501111614,2024-11-28 14h22.54.022083 +0100,
20,150,90,44,None,32,32,0,,,,,,,,0,32,32,19,,,,,,,,,,,,,119.43423394099995,,,,,,,,,,,,,,,,,,,,,,,,119.42585311599998,119.43423394099995,119.63381523499999,119.63381523499999,119.63381523499999,121.33383874599997,121.33383874599997,121.31779553799998,,,,,,,,,,,,,,,,,,,,,,,,,,,,,,,,,,,,,,,,,,,,,,,,,,,,,,,,,,,,,,,472923,001,2024-11-28_14h22.43.229,Test,2024.2.1,59.931970501111614,2024-11-28 14h22.54.022083 +0100,
29,150,150,9,None,33,33,0,,,,,,,,0,33,33,28,,,,,,,,,,,,,121.33383874599997,,,,,,,,,,,,,,,,,,,,,,,,121.32489614299999,121.33383874599997,121.53399216199995,121.53399216199995,121.53399216199995,123.23417939399997,123.23417939399997,123.218438763,,,,,,,,,,,,,,,,,,,,,,,,,,,,,,,,,,,,,,,,,,,,,,,,,,,,,,,,,,,,,,,472923,001,2024-11-28_14h22.43.229,Test,2024.2.1,59.931970501111614,2024-11-28 14h22.54.022083 +0100,
9,150,30,39,None,34,34,0,,,,,,,,0,34,34,8,,,,,,,,,,,,,123.23417939399997,,,,,,,,,,,,,,,,,,,,,,,,123.22589797899997,123.23417939399997,123.43472820899996,123.43472820899996,123.43472820899996,125.13431149399997,125.13431149399997,125.118650527,,,,,,,,,,,,,,,,,,,,,,,,,,,,,,,,,,,,,,,,,,,,,,,,,,,,,,,,,,,,,,,472923,001,2024-11-28_14h22.43.229,Test,2024.2.1,59.931970501111614,2024-11-28 14h22.54.022083 +0100,
,,,,,,,,,,,,,,,,,,,,,,,,,,,,,,,,,,,,,,,,,,,,,,,,,,,,,,,,,,,,,,,125.11884105899998,125.13431149399997,125.13431149399997,135.01959510999995,space,9.868261024999981,None,,,,,,,,,,,,,,,,,,,,,,,,,,,,,,,,,,,,,,,,,,,,,,,,,,,,,,,,472923,001,2024-11-28_14h22.43.229,Test,2024.2.1,59.931970501111614,2024-11-28 14h22.54.022083 +0100,
8,150,30,30,None,0,0,0,False,right,1.0561526430000185,None,,,,,,,,0,0,0,0,,,,,,,,,135.05023453399997,,,,,,,,,,,,,,,,,,,,,,,,,,,,,,,,,,,,,,,135.042311074,135.05023453399997,136.05130054899996,137.01814116599996,137.01814116599996,137.01814116599996,138.08723856299997,right,1.0561526430000185,None,,,,,,,,,,,,,,,,,,,,,,,,,,,,,,,,,,,,,,,,,,,,,,472923,001,2024-11-28_14h22.43.229,Test,2024.2.1,59.931970501111614,2024-11-28 14h22.54.022083 +0100,
10,150,30,4,None,1,1,0,False,right,0.966102434999982,None,,,,,,,,0,1,1,1,,,,,,,,,138.12050031899997,,,,,,,,,,,,,,,,,,,,,,,,,,,,,,,,,,,,,,,138.09528995699998,138.12050031899997,139.13497617099995,140.10172292599998,140.10172292599998,140.10172292599998,141.071071588,right,0.966102434999982,None,,,,,,,,,,,,,,,,,,,,,,,,,,,,,,,,,,,,,,,,,,,,,,472923,001,2024-11-28_14h22.43.229,Test,2024.2.1,59.931970501111614,2024-11-28 14h22.54.022083 +0100,
32,150,180,37,None,2,2,0,False,left,2.2682829039999888,None,,,,,,,,0,2,2,2,,,,,,,,,141.088920245,,,,,,,,,,,,,,,,,,,,,,,,,,,,,,,,,,,,,,,141.07920853399997,141.088920245,142.10219723499995,143.08539555199997,143.08539555199997,143.08539555199997,145.37121164299998,left,2.2682829039999888,None,,,,,,,,,,,,,,,,,,,,,,,,,,,,,,,,,,,,,,,,,,,,,,472923,001,2024-11-28_14h22.43.229,Test,2024.2.1,59.931970501111614,2024-11-28 14h22.54.022083 +0100,
15,150,60,6,None,3,3,0,False,right,0.7518640370000185,None,,,,,,,,0,3,3,3,,,,,,,,,145.38881543899998,,,,,,,,,,,,,,,,,,,,,,,,,,,,,,,,,,,,,,,145.37943060099997,145.38881543899998,146.40231007399996,147.38552762999996,147.38552762999996,147.38552762999996,148.15464481199996,right,0.7518640370000185,None,,,,,,,,,,,,,,,,,,,,,,,,,,,,,,,,,,,,,,,,,,,,,,472923,001,2024-11-28_14h22.43.229,Test,2024.2.1,59.931970501111614,2024-11-28 14h22.54.022083 +0100,
41,150,30,20,None,4,4,0,True,left,1.6384420580000096,None,,,,,,,,0,4,4,4,,,,,,,,,148.17202421599995,,,,,,,,,,,,,,,,,,,,,,,,,,,,,,,,,,,,,,,148.16282979599998,148.17202421599995,149.185722914,150.169714501,150.169714501,150.169714501,151.82147490799997,left,1.6384420580000096,None,,,,,,,,,,,,,,,,,,,,,,,,,,,,,,,,,,,,,,,,,,,,,,472923,001,2024-11-28_14h22.43.229,Test,2024.2.1,59.931970501111614,2024-11-28 14h22.54.022083 +0100,
55,150,90,26,None,5,5,0,True,left,0.9140884990000018,None,,,,,,,,0,5,5,5,,,,,,,,,151.83866564799996,,,,,,,,,,,,,,,,,,,,,,,,,,,,,,,,,,,,,,,151.82974081799995,151.83866564799996,152.85303685399998,153.836197799,153.836197799,153.836197799,154.755222883,left,0.9140884990000018,None,,,,,,,,,,,,,,,,,,,,,,,,,,,,,,,,,,,,,,,,,,,,,,472923,001,2024-11-28_14h22.43.229,Test,2024.2.1,59.931970501111614,2024-11-28 14h22.54.022083 +0100,
27,150,150,53,None,6,6,0,False,right,1.4845591499999955,None,,,,,,,,0,6,6,6,,,,,,,,,154.77287080099995,,,,,,,,,,,,,,,,,,,,,,,,,,,,,,,,,,,,,,,154.76342788699998,154.77287080099995,155.78656315799998,156.76975642999997,156.76975642999997,156.76975642999997,158.27167092099995,right,1.4845591499999955,None,,,,,,,,,,,,,,,,,,,,,,,,,,,,,,,,,,,,,,,,,,,,,,472923,001,2024-11-28_14h22.43.229,Test,2024.2.1,59.931970501111614,2024-11-28 14h22.54.022083 +0100,
20,150,90,44,None,7,7,0,False,left,0.9269362709999882,None,,,,,,,,0,7,7,7,,,,,,,,,158.290052033,,,,,,,,,,,,,,,,,,,,,,,,,,,,,,,,,,,,,,,158.28046487399996,158.290052033,159.30317935999994,160.28644024,160.28644024,160.28644024,161.222351066,left,0.9269362709999882,None,,,,,,,,,,,,,,,,,,,,,,,,,,,,,,,,,,,,,,,,,,,,,,472923,001,2024-11-28_14h22.43.229,Test,2024.2.1,59.931970501111614,2024-11-28 14h22.54.022083 +0100,
52,150,90,31,None,8,8,0,True,left,7.007458892000045,None,,,,,,,,0,8,8,8,,,,,,,,,161.23988387499998,,,,,,,,,,,,,,,,,,,,,,,,,,,,,,,,,,,,,,,161.23047576099998,161.23988387499998,162.25393451999997,163.236837692,163.236837692,163.236837692,170.25606061699995,left,7.007458892000045,None,166.23703522699998,166.23703522699998,166.23703522699998,,,,,,,,,,,,,,,,,,,,,,,,,,,,,,,,,,,,,,,,,,,472923,001,2024-11-28_14h22.43.229,Test,2024.2.1,59.931970501111614,2024-11-28 14h22.54.022083 +0100,
58,150,120,63,None,9,9,0,True,left,2.5692718089999858,None,,,,,,,,0,9,9,9,,,,,,,,,170.273833814,,,,,,,,,,,,,,,,,,,,,,,,,,,,,,,,,,,,,,,170.26437349599996,170.273833814,171.28747405499996,172.27079221599996,172.27079221599996,172.27079221599996,174.85633486399996,left,2.5692718089999858,None,,,,,,,,,,,,,,,,,,,,,,,,,,,,,,,,,,,,,,,,,,,,,,472923,001,2024-11-28_14h22.43.229,Test,2024.2.1,59.931970501111614,2024-11-28 14h22.54.022083 +0100,
25,150,120,15,None,10,10,0,False,right,1.0246579829999973,None,,,,,,,,0,10,10,10,,,,,,,,,174.87402109299995,,,,,,,,,,,,,,,,,,,,,,,,,,,,,,,,,,,,,,,174.86460707599997,174.87402109299995,175.88770977499996,176.87107157599996,176.87107157599996,176.87107157599996,177.906471539,right,1.0246579829999973,None,,,,,,,,,,,,,,,,,,,,,,,,,,,,,,,,,,,,,,,,,,,,,,472923,001,2024-11-28_14h22.43.229,Test,2024.2.1,59.931970501111614,2024-11-28 14h22.54.022083 +0100,
9,150,30,39,None,11,11,0,False,left,0.8872356580000087,None,,,,,,,,0,11,11,11,,,,,,,,,177.92440516799996,,,,,,,,,,,,,,,,,,,,,,,,,,,,,,,,,,,,,,,177.91483128899995,177.92440516799996,178.93808838499996,179.921232875,179.921232875,179.921232875,180.823845667,left,0.8872356580000087,None,,,,,,,,,,,,,,,,,,,,,,,,,,,,,,,,,,,,,,,,,,,,,,472923,001,2024-11-28_14h22.43.229,Test,2024.2.1,59.931970501111614,2024-11-28 14h22.54.022083 +0100,
50,150,60,8,None,12,12,0,True,left,1.6300164240000186,None,,,,,,,,0,12,12,12,,,,,,,,,180.84046496999997,,,,,,,,,,,,,,,,,,,,,,,,,,,,,,,,,,,,,,,180.83158631999999,180.84046496999997,181.854707314,182.83886482999998,182.83886482999998,182.83886482999998,184.47353826799997,left,1.6300164240000186,None,,,,,,,,,,,,,,,,,,,,,,,,,,,,,,,,,,,,,,,,,,,,,,472923,001,2024-11-28_14h22.43.229,Test,2024.2.1,59.931970501111614,2024-11-28 14h22.54.022083 +0100,
46,150,60,43,None,13,13,0,True,left,0.6702758679999761,None,,,,,,,,0,13,13,13,,,,,,,,,184.49016771599997,,,,,,,,,,,,,,,,,,,,,,,,,,,,,,,,,,,,,,,184.480977903,184.49016771599997,185.50492552999998,186.48841439999995,186.48841439999995,186.48841439999995,187.17405978899995,left,0.6702758679999761,None,,,,,,,,,,,,,,,,,,,,,,,,,,,,,,,,,,,,,,,,,,,,,,472923,001,2024-11-28_14h22.43.229,Test,2024.2.1,59.931970501111614,2024-11-28 14h22.54.022083 +0100,
49,150,60,18,None,14,14,0,True,left,2.0034070379999775,None,,,,,,,,0,14,14,14,,,,,,,,,187.19071332299995,,,,,,,,,,,,,,,,,,,,,,,,,,,,,,,,,,,,,,,187.18235522099997,187.19071332299995,188.20533221299996,189.18838715599998,189.18838715599998,189.18838715599998,191.20731926899998,left,2.0034070379999775,None,,,,,,,,,,,,,,,,,,,,,,,,,,,,,,,,,,,,,,,,,,,,,,472923,001,2024-11-28_14h22.43.229,Test,2024.2.1,59.931970501111614,2024-11-28 14h22.54.022083 +0100,
57,150,120,40,None,15,15,0,True,left,1.1806956020000143,None,,,,,,,,0,15,15,15,,,,,,,,,191.224474854,,,,,,,,,,,,,,,,,,,,,,,,,,,,,,,,,,,,,,,191.21498731199995,191.224474854,192.23875773999998,193.222137031,193.222137031,193.222137031,194.40782463299996,left,1.1806956020000143,None,,,,,,,,,,,,,,,,,,,,,,,,,,,,,,,,,,,,,,,,,,,,,,472923,001,2024-11-28_14h22.43.229,Test,2024.2.1,59.931970501111614,2024-11-28 14h22.54.022083 +0100,
36,150,0,62,None,16,16,0,True,left,0.6683935500000189,None,,,,,,,,0,16,16,16,,,,,,,,,194.42418140999996,,,,,,,,,,,,,,,,,,,,,,,,,,,,,,,,,,,,,,,194.41515671999997,194.42418140999996,195.43932125499998,196.42280606999998,196.42280606999998,196.42280606999998,197.108201662,left,0.6683935500000189,None,,,,,,,,,,,,,,,,,,,,,,,,,,,,,,,,,,,,,,,,,,,,,,472923,001,2024-11-28_14h22.43.229,Test,2024.2.1,59.931970501111614,2024-11-28 14h22.54.022083 +0100,
62,150,150,42,None,17,17,0,True,right,1.5783054409999977,None,,,,,,,,0,17,17,17,,,,,,,,,197.12540670899995,,,,,,,,,,,,,,,,,,,,,,,,,,,,,,,,,,,,,,,197.115958224,197.12540670899995,198.13939311599995,199.12266746499995,199.12266746499995,199.12266746499995,200.70819627199995,right,1.5783054409999977,None,,,,,,,,,,,,,,,,,,,,,,,,,,,,,,,,,,,,,,,,,,,,,,472923,001,2024-11-28_14h22.43.229,Test,2024.2.1,59.931970501111614,2024-11-28 14h22.54.022083 +0100,
34,150,180,27,None,18,18,0,False,left,2.6298740859999725,None,,,,,,,,0,18,18,18,,,,,,,,,200.725793733,,,,,,,,,,,,,,,,,,,,,,,,,,,,,,,,,,,,,,,200.71636006399996,200.725793733,201.74001032999996,202.72290030799996,202.72290030799996,202.72290030799996,205.35852035799996,left,2.6298740859999725,None,,,,,,,,,,,,,,,,,,,,,,,,,,,,,,,,,,,,,,,,,,,,,,472923,001,2024-11-28_14h22.43.229,Test,2024.2.1,59.931970501111614,2024-11-28 14h22.54.022083 +0100,
56,150,120,28,None,19,19,0,True,right,2.1273470309999993,None,,,,,,,,0,19,19,19,,,,,,,,,205.373674736,,,,,,,,,,,,,,,,,,,,,,,,,,,,,,,,,,,,,,,205.36448455099998,205.373674736,206.37298041499997,207.37348338099997,207.37348338099997,207.37348338099997,209.508811923,right,2.1273470309999993,None,,,,,,,,,,,,,,,,,,,,,,,,,,,,,,,,,,,,,,,,,,,,,,472923,001,2024-11-28_14h22.43.229,Test,2024.2.1,59.931970501111614,2024-11-28 14h22.54.022083 +0100,
37,150,0,46,None,20,20,0,True,left,0.8766240359999529,None,,,,,,,,0,20,20,20,,,,,,,,,209.52595441299997,,,,,,,,,,,,,,,,,,,,,,,,,,,,,,,,,,,,,,,209.51733333199996,209.52595441299997,210.53989818699995,211.52334184399996,211.52334184399996,211.52334184399996,212.40876303599998,left,0.8766240359999529,None,,,,,,,,,,,,,,,,,,,,,,,,,,,,,,,,,,,,,,,,,,,,,,472923,001,2024-11-28_14h22.43.229,Test,2024.2.1,59.931970501111614,2024-11-28 14h22.54.022083 +0100,
48,150,60,16,None,21,21,0,True,left,1.0804263050000031,None,,,,,,,,0,21,21,21,,,,,,,,,212.427467284,,,,,,,,,,,,,,,,,,,,,,,,,,,,,,,,,,,,,,,212.41778170799995,212.427467284,213.44042664499995,214.42391791899996,214.42391791899996,214.42391791899996,215.50915067999995,left,1.0804263050000031,None,,,,,,,,,,,,,,,,,,,,,,,,,,,,,,,,,,,,,,,,,,,,,,472923,001,2024-11-28_14h22.43.229,Test,2024.2.1,59.931970501111614,2024-11-28 14h22.54.022083 +0100,
29,150,150,9,None,22,22,0,False,left,0.7251702859999796,None,,,,,,,,0,22,22,22,,,,,,,,,215.52580954399997,,,,,,,,,,,,,,,,,,,,,,,,,,,,,,,,,,,,,,,215.51636939499997,215.52580954399997,216.54059065499996,217.52385292199995,217.52385292199995,217.52385292199995,218.25932458,left,0.7251702859999796,None,,,,,,,,,,,,,,,,,,,,,,,,,,,,,,,,,,,,,,,,,,,,,,472923,001,2024-11-28_14h22.43.229,Test,2024.2.1,59.931970501111614,2024-11-28 14h22.54.022083 +0100,
42,150,30,52,None,23,23,0,True,left,0.6230373100000293,None,,,,,,,,0,23,23,23,,,,,,,,,218.27376826199998,,,,,,,,,,,,,,,,,,,,,,,,,,,,,,,,,,,,,,,218.26346018299995,218.27376826199998,219.27382622899995,220.27417455,220.27417455,220.27417455,220.909193911,left,0.6230373100000293,None,,,,,,,,,,,,,,,,,,,,,,,,,,,,,,,,,,,,,,,,,,,,,,472923,001,2024-11-28_14h22.43.229,Test,2024.2.1,59.931970501111614,2024-11-28 14h22.54.022083 +0100,
40,150,0,55,None,24,24,0,True,left,0.9638032209999778,None,,,,,,,,0,24,24,24,,,,,,,,,220.92663884599995,,,,,,,,,,,,,,,,,,,,,,,,,,,,,,,,,,,,,,,220.91729098599995,220.92663884599995,221.94103565299997,222.924614519,222.924614519,222.924614519,223.89315011499997,left,0.9638032209999778,None,,,,,,,,,,,,,,,,,,,,,,,,,,,,,,,,,,,,,,,,,,,,,,472923,001,2024-11-28_14h22.43.229,Test,2024.2.1,59.931970501111614,2024-11-28 14h22.54.022083 +0100,
7,150,30,58,None,25,25,0,False,right,0.8108824230000096,None,,,,,,,,0,25,25,25,,,,,,,,,223.90990478599997,,,,,,,,,,,,,,,,,,,,,,,,,,,,,,,,,,,,,,,223.90079105799998,223.90990478599997,224.92455531499996,225.908861501,225.908861501,225.908861501,226.72681102599995,right,0.8108824230000096,None,,,,,,,,,,,,,,,,,,,,,,,,,,,,,,,,,,,,,,,,,,,,,,472923,001,2024-11-28_14h22.43.229,Test,2024.2.1,59.931970501111614,2024-11-28 14h22.54.022083 +0100,
19,150,90,29,None,26,26,0,False,right,1.753253772999983,None,,,,,,,,0,26,26,26,,,,,,,,,226.74449324999995,,,,,,,,,,,,,,,,,,,,,,,,,,,,,,,,,,,,,,,226.735191988,226.74449324999995,227.75780817799995,228.74127877299998,228.74127877299998,228.74127877299998,230.51009596299997,right,1.753253772999983,None,,,,,,,,,,,,,,,,,,,,,,,,,,,,,,,,,,,,,,,,,,,,,,472923,001,2024-11-28_14h22.43.229,Test,2024.2.1,59.931970501111614,2024-11-28 14h22.54.022083 +0100,
21,150,120,3,None,27,27,0,False,left,1.7558136210000157,None,,,,,,,,0,27,27,27,,,,,,,,,230.52645417099995,,,,,,,,,,,,,,,,,,,,,,,,,,,,,,,,,,,,,,,230.51717074799996,230.52645417099995,231.541436154,232.52481954599995,232.52481954599995,232.52481954599995,234.29371487599997,left,1.7558136210000157,None,,,,,,,,,,,,,,,,,,,,,,,,,,,,,,,,,,,,,,,,,,,,,,472923,001,2024-11-28_14h22.43.229,Test,2024.2.1,59.931970501111614,2024-11-28 14h22.54.022083 +0100,
17,150,90,5,None,28,28,0,False,left,0.9373214299999972,None,,,,,,,,0,28,28,28,,,,,,,,,234.30954405199998,,,,,,,,,,,,,,,,,,,,,,,,,,,,,,,,,,,,,,,234.30016921499998,234.30954405199998,235.324818054,236.30860405199996,236.30860405199996,236.30860405199996,237.26038285599998,left,0.9373214299999972,None,,,,,,,,,,,,,,,,,,,,,,,,,,,,,,,,,,,,,,,,,,,,,,472923,001,2024-11-28_14h22.43.229,Test,2024.2.1,59.931970501111614,2024-11-28 14h22.54.022083 +0100,
4,150,0,54,None,29,29,0,False,left,2.06796827200003,None,,,,,,,,0,29,29,29,,,,,,,,,237.27518646099998,,,,,,,,,,,,,,,,,,,,,,,,,,,,,,,,,,,,,,,237.265920086,237.27518646099998,238.27555049799997,239.27552780699995,239.27552780699995,239.27552780699995,241.360936279,left,2.06796827200003,None,,,,,,,,,,,,,,,,,,,,,,,,,,,,,,,,,,,,,,,,,,,,,,472923,001,2024-11-28_14h22.43.229,Test,2024.2.1,59.931970501111614,2024-11-28 14h22.54.022083 +0100,
2,150,0,2,None,30,30,0,False,left,0.6221719199999711,None,,,,,,,,0,30,30,30,,,,,,,,,241.37875117699997,,,,,,,,,,,,,,,,,,,,,,,,,,,,,,,,,,,,,,,241.36928670599997,241.37875117699997,242.39199175399995,243.375717904,243.375717904,243.375717904,244.01071122399998,left,0.6221719199999711,None,,,,,,,,,,,,,,,,,,,,,,,,,,,,,,,,,,,,,,,,,,,,,,472923,001,2024-11-28_14h22.43.229,Test,2024.2.1,59.931970501111614,2024-11-28 14h22.54.022083 +0100,
67,150,180,24,None,31,31,0,True,right,1.1314904330000104,None,,,,,,,,0,31,31,31,,,,,,,,,244.02680657599996,,,,,,,,,,,,,,,,,,,,,,,,,,,,,,,,,,,,,,,244.01773722099995,244.02680657599996,245.02565061499996,246.02812704999997,246.02812704999997,246.02812704999997,247.16303121200002,right,1.1314904330000104,None,,,,,,,,,,,,,,,,,,,,,,,,,,,,,,,,,,,,,,,,,,,,,,472923,001,2024-11-28_14h22.43.229,Test,2024.2.1,59.931970501111614,2024-11-28 14h22.54.022083 +0100,
53,150,90,60,None,32,32,0,True,right,1.1900039079999942,None,,,,,,,,0,32,32,32,,,,,,,,,247.17985577099995,,,,,,,,,,,,,,,,,,,,,,,,,,,,,,,,,,,,,,,247.16974673099998,247.17985577099995,248.19278669,249.17659592899992,249.17659592899992,249.17659592899992,250.37788294,right,1.1900039079999942,None,,,,,,,,,,,,,,,,,,,,,,,,,,,,,,,,,,,,,,,,,,,,,,472923,001,2024-11-28_14h22.43.229,Test,2024.2.1,59.931970501111614,2024-11-28 14h22.54.022083 +0100,
66,150,180,21,None,33,33,0,True,left,1.1934838639999725,None,,,,,,,,0,33,33,33,,,,,,,,,250.39427468999992,,,,,,,,,,,,,,,,,,,,,,,,,,,,,,,,,,,,,,,250.38580110200002,250.39427468999992,251.40966214600002,252.39308727299994,252.39308727299994,252.39308727299994,253.595251562,left,1.1934838639999725,None,,,,,,,,,,,,,,,,,,,,,,,,,,,,,,,,,,,,,,,,,,,,,,472923,001,2024-11-28_14h22.43.229,Test,2024.2.1,59.931970501111614,2024-11-28 14h22.54.022083 +0100,
64,150,150,32,None,34,34,0,True,left,1.60466674099996,None,,,,,,,,0,34,34,34,,,,,,,,,253.60972892,,,,,,,,,,,,,,,,,,,,,,,,,,,,,,,,,,,,,,,253.60075917,253.60972892,254.61024345999994,255.61004657999996,255.61004657999996,255.61004657999996,257.228707241,left,1.60466674099996,None,,,,,,,,,,,,,,,,,,,,,,,,,,,,,,,,,,,,,,,,,,,,,,472923,001,2024-11-28_14h22.43.229,Test,2024.2.1,59.931970501111614,2024-11-28 14h22.54.022083 +0100,
65,150,150,56,None,35,35,0,True,right,2.60632057600003,None,,,,,,,,0,35,35,35,,,,,,,,,257.2458866509999,,,,,,,,,,,,,,,,,,,,,,,,,,,,,,,,,,,,,,,257.23652652899995,257.2458866509999,258.25988219699997,259.24337061399996,259.24337061399996,259.24337061399996,261.86231951099995,right,2.60632057600003,None,,,,,,,,,,,,,,,,,,,,,,,,,,,,,,,,,,,,,,,,,,,,,,472923,001,2024-11-28_14h22.43.229,Test,2024.2.1,59.931970501111614,2024-11-28 14h22.54.022083 +0100,
28,150,150,19,None,36,36,0,False,left,1.0060867900000403,None,,,,,,,,0,36,36,36,,,,,,,,,261.879157044,,,,,,,,,,,,,,,,,,,,,,,,,,,,,,,,,,,,,,,261.86993745499996,261.879157044,262.89384416499996,263.877096762,263.877096762,263.877096762,264.896505119,left,1.0060867900000403,None,,,,,,,,,,,,,,,,,,,,,,,,,,,,,,,,,,,,,,,,,,,,,,472923,001,2024-11-28_14h22.43.229,Test,2024.2.1,59.931970501111614,2024-11-28 14h22.54.022083 +0100,
13,150,60,65,None,37,37,0,False,left,1.2734024369999588,None,,,,,,,,0,37,37,37,,,,,,,,,264.913867296,,,,,,,,,,,,,,,,,,,,,,,,,,,,,,,,,,,,,,,264.904863811,264.913867296,265.92713475399995,266.910575749,266.910575749,266.910575749,268.19574699899994,left,1.2734024369999588,None,,,,,,,,,,,,,,,,,,,,,,,,,,,,,,,,,,,,,,,,,,,,,,472923,001,2024-11-28_14h22.43.229,Test,2024.2.1,59.931970501111614,2024-11-28 14h22.54.022083 +0100,
44,150,30,51,None,38,38,0,True,left,0.7196318989999781,None,,,,,,,,0,38,38,38,,,,,,,,,268.213008677,,,,,,,,,,,,,,,,,,,,,,,,,,,,,,,,,,,,,,,268.20386739299994,268.213008677,269.22732932699995,270.21106649999996,270.21106649999996,270.21106649999996,270.94630249899996,left,0.7196318989999781,None,,,,,,,,,,,,,,,,,,,,,,,,,,,,,,,,,,,,,,,,,,,,,,472923,001,2024-11-28_14h22.43.229,Test,2024.2.1,59.931970501111614,2024-11-28 14h22.54.022083 +0100,
68,150,180,13,None,39,39,0,True,left,1.1255901910000148,None,,,,,,,,0,39,39,39,,,,,,,,,270.963705951,,,,,,,,,,,,,,,,,,,,,,,,,,,,,,,,,,,,,,,270.95434638399996,270.963705951,271.97827170299996,272.960999846,272.960999846,272.960999846,274.09668965,left,1.1255901910000148,None,,,,,,,,,,,,,,,,,,,,,,,,,,,,,,,,,,,,,,,,,,,,,,472923,001,2024-11-28_14h22.43.229,Test,2024.2.1,59.931970501111614,2024-11-28 14h22.54.022083 +0100,
6,150,30,48,None,40,40,0,False,right,0.7887397990000409,None,,,,,,,,0,40,40,40,,,,,,,,,274.11318416399996,,,,,,,,,,,,,,,,,,,,,,,,,,,,,,,,,,,,,,,274.1041139999999,274.11318416399996,275.12797774999996,276.11157733299996,276.11157733299996,276.11157733299996,276.913225866,right,0.7887397990000409,None,,,,,,,,,,,,,,,,,,,,,,,,,,,,,,,,,,,,,,,,,,,,,,472923,001,2024-11-28_14h22.43.229,Test,2024.2.1,59.931970501111614,2024-11-28 14h22.54.022083 +0100,
11,150,60,22,None,41,41,0,False,right,1.595598156000051,None,,,,,,,,0,41,41,41,,,,,,,,,276.93370767899995,,,,,,,,,,,,,,,,,,,,,,,,,,,,,,,,,,,,,,,276.92543589099995,276.93370767899995,277.94477479099993,278.928218031,278.928218031,278.928218031,280.5304206729999,right,1.595598156000051,None,,,,,,,,,,,,,,,,,,,,,,,,,,,,,,,,,,,,,,,,,,,,,,472923,001,2024-11-28_14h22.43.229,Test,2024.2.1,59.931970501111614,2024-11-28 14h22.54.022083 +0100,
23,150,120,12,None,42,42,0,False,left,1.0408661710000615,None,,,,,,,,0,42,42,42,,,,,,,,,280.54692914599997,,,,,,,,,,,,,,,,,,,,,,,,,,,,,,,,,,,,,,,280.537765353,280.54692914599997,281.561600477,282.54494393499994,282.54494393499994,282.54494393499994,283.596911745,left,1.0408661710000615,None,,,,,,,,,,,,,,,,,,,,,,,,,,,,,,,,,,,,,,,,,,,,,,472923,001,2024-11-28_14h22.43.229,Test,2024.2.1,59.931970501111614,2024-11-28 14h22.54.022083 +0100,
38,150,0,38,None,43,43,0,True,left,1.06984098800001,None,,,,,,,,0,43,43,43,,,,,,,,,283.613906234,,,,,,,,,,,,,,,,,,,,,,,,,,,,,,,,,,,,,,,283.6048638429999,283.613906234,284.628576464,285.61243283999994,285.61243283999994,285.61243283999994,286.698071601,left,1.06984098800001,None,,,,,,,,,,,,,,,,,,,,,,,,,,,,,,,,,,,,,,,,,,,,,,472923,001,2024-11-28_14h22.43.229,Test,2024.2.1,59.931970501111614,2024-11-28 14h22.54.022083 +0100,
43,150,30,1,None,44,44,0,True,right,0.9005343790000779,None,,,,,,,,0,44,44,44,,,,,,,,,286.7151075389999,,,,,,,,,,,,,,,,,,,,,,,,,,,,,,,,,,,,,,,286.706076775,286.7151075389999,287.72883845199993,288.711996089,288.711996089,288.711996089,289.615008156,right,0.9005343790000779,None,,,,,,,,,,,,,,,,,,,,,,,,,,,,,,,,,,,,,,,,,,,,,,472923,001,2024-11-28_14h22.43.229,Test,2024.2.1,59.931970501111614,2024-11-28 14h22.54.022083 +0100,
24,150,120,67,None,45,45,0,False,left,1.1685019649999049,None,,,,,,,,0,45,45,45,,,,,,,,,289.6316054459999,,,,,,,,,,,,,,,,,,,,,,,,,,,,,,,,,,,,,,,289.622779678,289.6316054459999,290.6454127839999,291.629051885,291.629051885,291.629051885,292.81438226899996,left,1.1685019649999049,None,,,,,,,,,,,,,,,,,,,,,,,,,,,,,,,,,,,,,,,,,,,,,,472923,001,2024-11-28_14h22.43.229,Test,2024.2.1,59.931970501111614,2024-11-28 14h22.54.022083 +0100,
70,150,180,47,None,46,46,0,True,left,1.5574017559999902,None,,,,,,,,0,46,46,46,,,,,,,,,292.828990905,,,,,,,,,,,,,,,,,,,,,,,,,,,,,,,,,,,,,,,292.81988668,292.828990905,293.82924350799993,294.829403334,294.829403334,294.829403334,296.3979399329999,left,1.5574017559999902,None,,,,,,,,,,,,,,,,,,,,,,,,,,,,,,,,,,,,,,,,,,,,,,472923,001,2024-11-28_14h22.43.229,Test,2024.2.1,59.931970501111614,2024-11-28 14h22.54.022083 +0100,
33,150,180,41,None,47,47,0,False,right,1.9799937450000016,None,,,,,,,,0,47,47,47,,,,,,,,,296.4145210479999,,,,,,,,,,,,,,,,,,,,,,,,,,,,,,,,,,,,,,,296.404940298,296.4145210479999,297.4295070929999,298.39731526099996,298.39731526099996,298.39731526099996,300.382153062,right,1.9799937450000016,None,,,,,,,,,,,,,,,,,,,,,,,,,,,,,,,,,,,,,,,,,,,,,,472923,001,2024-11-28_14h22.43.229,Test,2024.2.1,59.931970501111614,2024-11-28 14h22.54.022083 +0100,
1,150,0,69,None,48,48,0,False,left,1.9296430869999313,None,,,,,,,,0,48,48,48,,,,,,,,,300.399039533,,,,,,,,,,,,,,,,,,,,,,,,,,,,,,,,,,,,,,,300.39013563099996,300.399039533,301.4140916779999,302.3978860099999,302.3978860099999,302.3978860099999,304.334158425,left,1.9296430869999313,None,,,,,,,,,,,,,,,,,,,,,,,,,,,,,,,,,,,,,,,,,,,,,,472923,001,2024-11-28_14h22.43.229,Test,2024.2.1,59.931970501111614,2024-11-28 14h22.54.022083 +0100,
63,150,150,33,None,49,49,0,True,right,1.126184792999993,None,,,,,,,,0,49,49,49,,,,,,,,,304.349015877,,,,,,,,,,,,,,,,,,,,,,,,,,,,,,,,,,,,,,,304.34022569999996,304.349015877,305.3636655799999,306.34699470799995,306.34699470799995,306.34699470799995,307.4823511739999,right,1.126184792999993,None,,,,,,,,,,,,,,,,,,,,,,,,,,,,,,,,,,,,,,,,,,,,,,472923,001,2024-11-28_14h22.43.229,Test,2024.2.1,59.931970501111614,2024-11-28 14h22.54.022083 +0100,
69,150,180,57,None,50,50,0,True,right,2.804806650000046,None,,,,,,,,0,50,50,50,,,,,,,,,307.497915912,,,,,,,,,,,,,,,,,,,,,,,,,,,,,,,,,,,,,,,307.48897033099996,307.497915912,308.497248373,309.49804930299996,309.49804930299996,309.49804930299996,312.315922556,right,2.804806650000046,None,,,,,,,,,,,,,,,,,,,,,,,,,,,,,,,,,,,,,,,,,,,,,,472923,001,2024-11-28_14h22.43.229,Test,2024.2.1,59.931970501111614,2024-11-28 14h22.54.022083 +0100,
45,150,30,25,None,51,51,0,True,left,1.0076867379999612,None,,,,,,,,0,51,51,51,,,,,,,,,312.33214626599994,,,,,,,,,,,,,,,,,,,,,,,,,,,,,,,,,,,,,,,312.323035681,312.33214626599994,313.347509161,314.31515473299993,314.31515473299993,314.31515473299993,315.333877504,left,1.0076867379999612,None,,,,,,,,,,,,,,,,,,,,,,,,,,,,,,,,,,,,,,,,,,,,,,472923,001,2024-11-28_14h22.43.229,Test,2024.2.1,59.931970501111614,2024-11-28 14h22.54.022083 +0100,
18,150,90,70,None,52,52,0,False,left,1.1106857130000662,None,,,,,,,,0,52,52,52,,,,,,,,,315.3496417459999,,,,,,,,,,,,,,,,,,,,,,,,,,,,,,,,,,,,,,,315.340603068,315.3496417459999,316.34908896099995,317.348606448,317.348606448,317.348606448,318.466487931,left,1.1106857130000662,None,,,,,,,,,,,,,,,,,,,,,,,,,,,,,,,,,,,,,,,,,,,,,,472923,001,2024-11-28_14h22.43.229,Test,2024.2.1,59.931970501111614,2024-11-28 14h22.54.022083 +0100,
39,150,0,14,None,53,53,0,True,left,2.3517214869999634,None,,,,,,,,0,53,53,53,,,,,,,,,318.480790279,,,,,,,,,,,,,,,,,,,,,,,,,,,,,,,,,,,,,,,318.471926709,318.480790279,319.481961086,320.48134777399997,320.48134777399997,320.48134777399997,322.836660044,left,2.3517214869999634,None,,,,,,,,,,,,,,,,,,,,,,,,,,,,,,,,,,,,,,,,,,,,,,472923,001,2024-11-28_14h22.43.229,Test,2024.2.1,59.931970501111614,2024-11-28 14h22.54.022083 +0100,
59,150,120,49,None,54,54,0,True,right,1.123592627999983,None,,,,,,,,0,54,54,54,,,,,,,,,322.853387899,,,,,,,,,,,,,,,,,,,,,,,,,,,,,,,,,,,,,,,322.845653227,322.853387899,323.86579025099996,324.848527435,324.848527435,324.848527435,325.9840799329999,right,1.123592627999983,None,,,,,,,,,,,,,,,,,,,,,,,,,,,,,,,,,,,,,,,,,,,,,,472923,001,2024-11-28_14h22.43.229,Test,2024.2.1,59.931970501111614,2024-11-28 14h22.54.022083 +0100,
16,150,90,35,None,55,55,0,False,left,0.8988098380000338,None,,,,,,,,0,55,55,55,,,,,,,,,326.000941525,,,,,,,,,,,,,,,,,,,,,,,,,,,,,,,,,,,,,,,325.99152614199994,326.000941525,327.01434856299994,327.9984895879999,327.9984895879999,327.9984895879999,328.903196873,left,0.8988098380000338,None,,,,,,,,,,,,,,,,,,,,,,,,,,,,,,,,,,,,,,,,,,,,,,472923,001,2024-11-28_14h22.43.229,Test,2024.2.1,59.931970501111614,2024-11-28 14h22.54.022083 +0100,
30,150,150,61,None,56,56,0,False,left,1.5401783909999267,None,,,,,,,,0,56,56,56,,,,,,,,,328.919873773,,,,,,,,,,,,,,,,,,,,,,,,,,,,,,,,,,,,,,,328.91197154899993,328.919873773,329.932594628,330.915531125,330.915531125,330.915531125,332.46697630499995,left,1.5401783909999267,None,,,,,,,,,,,,,,,,,,,,,,,,,,,,,,,,,,,,,,,,,,,,,,472923,001,2024-11-28_14h22.43.229,Test,2024.2.1,59.931970501111614,2024-11-28 14h22.54.022083 +0100,
35,150,180,23,None,57,57,0,False,left,1.3392106450000938,None,,,,,,,,0,57,57,57,,,,,,,,,332.482241173,,,,,,,,,,,,,,,,,,,,,,,,,,,,,,,,,,,,,,,332.47246528499994,332.482241173,333.482361969,334.46702237899996,334.46702237899996,334.46702237899996,335.816904597,left,1.3392106450000938,None,,,,,,,,,,,,,,,,,,,,,,,,,,,,,,,,,,,,,,,,,,,,,,472923,001,2024-11-28_14h22.43.229,Test,2024.2.1,59.931970501111614,2024-11-28 14h22.54.022083 +0100,
14,150,60,34,None,58,58,0,False,right,2.942170508000004,None,,,,,,,,0,58,58,58,,,,,,,,,335.8342854769999,,,,,,,,,,,,,,,,,,,,,,,,,,,,,,,,,,,,,,,335.8246078849999,335.8342854769999,336.850041826,337.832943304,337.832943304,337.832943304,340.785190872,right,2.942170508000004,None,,,,,,,,,,,,,,,,,,,,,,,,,,,,,,,,,,,,,,,,,,,,,,472923,001,2024-11-28_14h22.43.229,Test,2024.2.1,59.931970501111614,2024-11-28 14h22.54.022083 +0100,
3,150,0,68,None,59,59,0,False,left,1.1114972749999197,None,,,,,,,,0,59,59,59,,,,,,,,,340.80271213199995,,,,,,,,,,,,,,,,,,,,,,,,,,,,,,,,,,,,,,,340.79396972,340.80271213199995,341.81611966199995,342.79942088499996,342.79942088499996,342.79942088499996,343.9197574539999,left,1.1114972749999197,None,,,,,,,,,,,,,,,,,,,,,,,,,,,,,,,,,,,,,,,,,,,,,,472923,001,2024-11-28_14h22.43.229,Test,2024.2.1,59.931970501111614,2024-11-28 14h22.54.022083 +0100,
60,150,120,50,None,60,60,0,True,left,1.1941456409999773,None,,,,,,,,0,60,60,60,,,,,,,,,343.93659203199996,,,,,,,,,,,,,,,,,,,,,,,,,,,,,,,,,,,,,,,343.928136362,343.93659203199996,344.95016329799995,345.93298045499995,345.93298045499995,345.93298045499995,347.134737047,left,1.1941456409999773,None,,,,,,,,,,,,,,,,,,,,,,,,,,,,,,,,,,,,,,,,,,,,,,472923,001,2024-11-28_14h22.43.229,Test,2024.2.1,59.931970501111614,2024-11-28 14h22.54.022083 +0100,
54,150,90,66,None,61,61,0,True,right,1.1072025209999765,None,,,,,,,,0,61,61,61,,,,,,,,,347.15059401799994,,,,,,,,,,,,,,,,,,,,,,,,,,,,,,,,,,,,,,,347.141624586,347.15059401799994,348.150353574,349.13440030399994,349.13440030399994,349.13440030399994,350.25119615499995,right,1.1072025209999765,None,,,,,,,,,,,,,,,,,,,,,,,,,,,,,,,,,,,,,,,,,,,,,,472923,001,2024-11-28_14h22.43.229,Test,2024.2.1,59.931970501111614,2024-11-28 14h22.54.022083 +0100,
12,150,60,45,None,62,62,0,False,left,0.7349135109999452,None,,,,,,,,0,62,62,62,,,,,,,,,350.266810583,,,,,,,,,,,,,,,,,,,,,,,,,,,,,,,,,,,,,,,350.25688411899995,350.266810583,351.267163658,352.251047303,352.251047303,352.251047303,353.00210943199994,left,0.7349135109999452,None,,,,,,,,,,,,,,,,,,,,,,,,,,,,,,,,,,,,,,,,,,,,,,472923,001,2024-11-28_14h22.43.229,Test,2024.2.1,59.931970501111614,2024-11-28 14h22.54.022083 +0100,
5,150,0,64,None,63,63,0,False,left,0.6769966780000232,None,,,,,,,,0,63,63,63,,,,,,,,,353.016831266,,,,,,,,,,,,,,,,,,,,,,,,,,,,,,,,,,,,,,,353.007398434,353.016831266,354.01779988699997,355.001440309,355.001440309,355.001440309,355.68574270899995,left,0.6769966780000232,None,,,,,,,,,,,,,,,,,,,,,,,,,,,,,,,,,,,,,,,,,,,,,,472923,001,2024-11-28_14h22.43.229,Test,2024.2.1,59.931970501111614,2024-11-28 14h22.54.022083 +0100,
26,150,150,17,None,64,64,0,False,right,1.5638408300000037,None,,,,,,,,0,64,64,64,,,,,,,,,355.69999526299995,,,,,,,,,,,,,,,,,,,,,,,,,,,,,,,,,,,,,,,355.690810872,355.69999526299995,356.701301496,357.700696497,357.700696497,357.700696497,359.26926758199994,right,1.5638408300000037,None,,,,,,,,,,,,,,,,,,,,,,,,,,,,,,,,,,,,,,,,,,,,,,472923,001,2024-11-28_14h22.43.229,Test,2024.2.1,59.931970501111614,2024-11-28 14h22.54.022083 +0100,
31,150,180,59,None,65,65,0,False,right,0.9337183359999699,None,,,,,,,,0,65,65,65,,,,,,,,,359.285590627,,,,,,,,,,,,,,,,,,,,,,,,,,,,,,,,,,,,,,,359.276458815,359.285590627,360.28532572599994,361.28425792699994,361.28425792699994,361.28425792699994,362.22006183,right,0.9337183359999699,None,,,,,,,,,,,,,,,,,,,,,,,,,,,,,,,,,,,,,,,,,,,,,,472923,001,2024-11-28_14h22.43.229,Test,2024.2.1,59.931970501111614,2024-11-28 14h22.54.022083 +0100,
47,150,60,11,None,66,66,0,True,left,0.901110501000062,None,,,,,,,,0,66,66,66,,,,,,,,,362.2341358549999,,,,,,,,,,,,,,,,,,,,,,,,,,,,,,,,,,,,,,,362.22532676299994,362.2341358549999,363.23523316899997,364.2346112249999,364.2346112249999,364.2346112249999,365.15322326099994,left,0.901110501000062,None,,,,,,,,,,,,,,,,,,,,,,,,,,,,,,,,,,,,,,,,,,,,,,472923,001,2024-11-28_14h22.43.229,Test,2024.2.1,59.931970501111614,2024-11-28 14h22.54.022083 +0100,
61,150,150,10,None,67,67,0,True,left,1.0179018819999328,None,,,,,,,,0,67,67,67,,,,,,,,,365.168981296,,,,,,,,,,,,,,,,,,,,,,,,,,,,,,,,,,,,,,,365.160815013,365.168981296,366.1676956239999,367.168240164,367.168240164,367.168240164,368.20236265,left,1.0179018819999328,None,,,,,,,,,,,,,,,,,,,,,,,,,,,,,,,,,,,,,,,,,,,,,,472923,001,2024-11-28_14h22.43.229,Test,2024.2.1,59.931970501111614,2024-11-28 14h22.54.022083 +0100,
22,150,120,7,None,68,68,0,False,left,1.900336627999991,None,,,,,,,,0,68,68,68,,,,,,,,,368.2176147459999,,,,,,,,,,,,,,,,,,,,,,,,,,,,,,,,,,,,,,,368.20666973,368.2176147459999,369.2181180239999,370.218105189,370.218105189,370.218105189,372.13568459100003,left,1.900336627999991,None,,,,,,,,,,,,,,,,,,,,,,,,,,,,,,,,,,,,,,,,,,,,,,472923,001,2024-11-28_14h22.43.229,Test,2024.2.1,59.931970501111614,2024-11-28 14h22.54.022083 +0100,
51,150,90,36,None,69,69,0,True,left,0.9315769639999871,None,,,,,,,,0,69,69,69,,,,,,,,,372.151700674,,,,,,,,,,,,,,,,,,,,,,,,,,,,,,,,,,,,,,,372.143685477,372.151700674,373.151486958,374.134827077,374.134827077,374.134827077,375.07310067099996,left,0.9315769639999871,None,,,,,,,,,,,,,,,,,,,,,,,,,,,,,,,,,,,,,,,,,,,,,,472923,001,2024-11-28_14h22.43.229,Test,2024.2.1,59.931970501111614,2024-11-28 14h22.54.022083 +0100,
,,,,,,,,,,,,,,,,,,,,,,,,,,,,,,,,,,,,,,,,,,,,,,,,,,,,,,,,,,,,,,,,,,,,,,,,,,,,,,,,,,,375.073350961,375.084968585,375.084968585,377.439280301,space,2.3451883459999863,None,,,,,,,,,,,,,,,,,,,,,,,,,,,,,,,,,,,,472923,001,2024-11-28_14h22.43.229,Test,2024.2.1,59.931970501111614,2024-11-28 14h22.54.022083 +0100,
32,150,180,37,None,0,0,0,,,,,,,,,,,,,,,,0,0,0,31,,,,,377.4617578969999,,,,,,,,,,,,,,,,,,,,,,,,,,,,,,,,,,,,,,,,,,,,,,,,,,,,,,,,,,,377.452409996,377.4617578969999,377.65235548799996,377.65235548799996,377.66892309099995,379.3515317669999,379.3515317669999,379.33589819,,,,,,,,,,,,,,,,,,,,,,,,,,,,472923,001,2024-11-28_14h22.43.229,Test,2024.2.1,59.931970501111614,2024-11-28 14h22.54.022083 +0100,
23,150,120,12,None,1,1,0,,,,,,,,,,,,,,,,0,1,1,22,,,,,379.3515317669999,,,,,,,,,,,,,,,,,,,,,,,,,,,,,,,,,,,,,,,,,,,,,,,,,,,,,,,,,,,379.34290898399996,379.3515317669999,379.55280063699996,379.55280063699996,379.55280063699996,381.252563296,381.252563296,381.23648274299995,,,,,,,,,,,,,,,,,,,,,,,,,,,,472923,001,2024-11-28_14h22.43.229,Test,2024.2.1,59.931970501111614,2024-11-28 14h22.54.022083 +0100,
8,150,30,30,None,2,2,0,,,,,,,,,,,,,,,,0,2,2,7,,,,,381.252563296,,,,,,,,,,,,,,,,,,,,,,,,,,,,,,,,,,,,,,,,,,,,,,,,,,,,,,,,,,,381.24436969799996,381.252563296,381.453191023,381.453191023,381.453191023,383.155961515,383.155961515,383.137442626,,,,,,,,,,,,,,,,,,,,,,,,,,,,472923,001,2024-11-28_14h22.43.229,Test,2024.2.1,59.931970501111614,2024-11-28 14h22.54.022083 +0100,
13,150,60,65,None,3,3,0,,,,,,,,,,,,,,,,0,3,3,12,,,,,383.155961515,,,,,,,,,,,,,,,,,,,,,,,,,,,,,,,,,,,,,,,,,,,,,,,,,,,,,,,,,,,383.147678125,383.155961515,383.352734098,383.352734098,383.3688476969999,385.05193231899995,385.05193231899995,385.03638324799994,,,,,,,,,,,,,,,,,,,,,,,,,,,,472923,001,2024-11-28_14h22.43.229,Test,2024.2.1,59.931970501111614,2024-11-28 14h22.54.022083 +0100,
1,150,0,69,None,4,4,0,,,,,,,,,,,,,,,,0,4,4,0,,,,,385.05193231899995,,,,,,,,,,,,,,,,,,,,,,,,,,,,,,,,,,,,,,,,,,,,,,,,,,,,,,,,,,,385.042089824,385.05193231899995,385.25270561299993,385.25270561299993,385.25270561299993,386.952423818,386.952423818,386.93692197799993,,,,,,,,,,,,,,,,,,,,,,,,,,,,472923,001,2024-11-28_14h22.43.229,Test,2024.2.1,59.931970501111614,2024-11-28 14h22.54.022083 +0100,
30,150,150,61,None,5,5,0,,,,,,,,,,,,,,,,0,5,5,29,,,,,386.952423818,,,,,,,,,,,,,,,,,,,,,,,,,,,,,,,,,,,,,,,,,,,,,,,,,,,,,,,,,,,386.94430389400003,386.952423818,387.15249843099997,387.15249843099997,387.15249843099997,388.85694921199996,388.85694921199996,388.838206672,,,,,,,,,,,,,,,,,,,,,,,,,,,,472923,001,2024-11-28_14h22.43.229,Test,2024.2.1,59.931970501111614,2024-11-28 14h22.54.022083 +0100,
15,150,60,6,None,6,6,0,,,,,,,,,,,,,,,,0,6,6,14,,,,,388.85694921199996,,,,,,,,,,,,,,,,,,,,,,,,,,,,,,,,,,,,,,,,,,,,,,,,,,,,,,,,,,,388.847907993,388.85694921199996,389.053288444,389.053288444,389.06985512399996,390.75292545099995,390.75292545099995,390.736829841,,,,,,,,,,,,,,,,,,,,,,,,,,,,472923,001,2024-11-28_14h22.43.229,Test,2024.2.1,59.931970501111614,2024-11-28 14h22.54.022083 +0100,
19,150,90,29,None,7,7,0,,,,,,,,,,,,,,,,0,7,7,18,,,,,390.75292545099995,,,,,,,,,,,,,,,,,,,,,,,,,,,,,,,,,,,,,,,,,,,,,,,,,,,,,,,,,,,390.744607787,390.75292545099995,390.952995392,390.952995392,390.952995392,392.656088852,392.656088852,392.63811822299994,,,,,,,,,,,,,,,,,,,,,,,,,,,,472923,001,2024-11-28_14h22.43.229,Test,2024.2.1,59.931970501111614,2024-11-28 14h22.54.022083 +0100,
27,150,150,53,None,8,8,0,,,,,,,,,,,,,,,,0,8,8,26,,,,,392.656088852,,,,,,,,,,,,,,,,,,,,,,,,,,,,,,,,,,,,,,,,,,,,,,,,,,,,,,,,,,,392.64775359699996,392.656088852,392.854293187,392.854293187,392.870738924,394.55382828,394.55382828,394.53750240899996,,,,,,,,,,,,,,,,,,,,,,,,,,,,472923,001,2024-11-28_14h22.43.229,Test,2024.2.1,59.931970501111614,2024-11-28 14h22.54.022083 +0100,
35,150,180,23,None,9,9,0,,,,,,,,,,,,,,,,0,9,9,34,,,,,394.55382828,,,,,,,,,,,,,,,,,,,,,,,,,,,,,,,,,,,,,,,,,,,,,,,,,,,,,,,,,,,394.54539117999997,394.55382828,394.753052622,394.753052622,394.753052622,396.456148543,396.456148543,396.438670468,,,,,,,,,,,,,,,,,,,,,,,,,,,,472923,001,2024-11-28_14h22.43.229,Test,2024.2.1,59.931970501111614,2024-11-28 14h22.54.022083 +0100,
24,150,120,67,None,10,10,0,,,,,,,,,,,,,,,,0,10,10,23,,,,,396.456148543,,,,,,,,,,,,,,,,,,,,,,,,,,,,,,,,,,,,,,,,,,,,,,,,,,,,,,,,,,,396.4478524219999,396.456148543,396.6542299039999,396.6542299039999,396.670651481,398.355049488,398.355049488,398.339852388,,,,,,,,,,,,,,,,,,,,,,,,,,,,472923,001,2024-11-28_14h22.43.229,Test,2024.2.1,59.931970501111614,2024-11-28 14h22.54.022083 +0100,
26,150,150,17,None,11,11,0,,,,,,,,,,,,,,,,0,11,11,25,,,,,398.355049488,,,,,,,,,,,,,,,,,,,,,,,,,,,,,,,,,,,,,,,,,,,,,,,,,,,,,,,,,,,398.34702503599993,398.355049488,398.554180583,398.554180583,398.554180583,400.25413056299993,400.25413056299993,400.237667081,,,,,,,,,,,,,,,,,,,,,,,,,,,,472923,001,2024-11-28_14h22.43.229,Test,2024.2.1,59.931970501111614,2024-11-28 14h22.54.022083 +0100,
25,150,120,15,None,12,12,0,,,,,,,,,,,,,,,,0,12,12,24,,,,,400.25413056299993,,,,,,,,,,,,,,,,,,,,,,,,,,,,,,,,,,,,,,,,,,,,,,,,,,,,,,,,,,,400.24526240099993,400.25413056299993,400.454533948,400.454533948,400.454533948,402.153746054,402.153746054,402.137747888,,,,,,,,,,,,,,,,,,,,,,,,,,,,472923,001,2024-11-28_14h22.43.229,Test,2024.2.1,59.931970501111614,2024-11-28 14h22.54.022083 +0100,
31,150,180,59,None,13,13,0,,,,,,,,,,,,,,,,0,13,13,30,,,,,402.153746054,,,,,,,,,,,,,,,,,,,,,,,,,,,,,,,,,,,,,,,,,,,,,,,,,,,,,,,,,,,402.143394528,402.153746054,402.35344976899995,402.35344976899995,402.35344976899995,404.058256461,404.058256461,404.038975936,,,,,,,,,,,,,,,,,,,,,,,,,,,,472923,001,2024-11-28_14h22.43.229,Test,2024.2.1,59.931970501111614,2024-11-28 14h22.54.022083 +0100,
14,150,60,34,None,14,14,0,,,,,,,,,,,,,,,,0,14,14,13,,,,,404.058256461,,,,,,,,,,,,,,,,,,,,,,,,,,,,,,,,,,,,,,,,,,,,,,,,,,,,,,,,,,,404.049503698,404.058256461,404.253838003,404.253838003,404.2703549579999,405.953196267,405.953196267,405.937992897,,,,,,,,,,,,,,,,,,,,,,,,,,,,472923,001,2024-11-28_14h22.43.229,Test,2024.2.1,59.931970501111614,2024-11-28 14h22.54.022083 +0100,
29,150,150,9,None,15,15,0,,,,,,,,,,,,,,,,0,15,15,28,,,,,405.953196267,,,,,,,,,,,,,,,,,,,,,,,,,,,,,,,,,,,,,,,,,,,,,,,,,,,,,,,,,,,405.94479878399994,405.953196267,406.1542310109999,406.1542310109999,406.1542310109999,407.854426464,407.854426464,407.838711726,,,,,,,,,,,,,,,,,,,,,,,,,,,,472923,001,2024-11-28_14h22.43.229,Test,2024.2.1,59.931970501111614,2024-11-28 14h22.54.022083 +0100,
33,150,180,41,None,16,16,0,,,,,,,,,,,,,,,,0,16,16,32,,,,,407.854426464,,,,,,,,,,,,,,,,,,,,,,,,,,,,,,,,,,,,,,,,,,,,,,,,,,,,,,,,,,,407.845896076,407.854426464,408.054354918,408.054354918,408.054354918,409.75359937,409.75359937,409.738796457,,,,,,,,,,,,,,,,,,,,,,,,,,,,472923,001,2024-11-28_14h22.43.229,Test,2024.2.1,59.931970501111614,2024-11-28 14h22.54.022083 +0100,
6,150,30,48,None,17,17,0,,,,,,,,,,,,,,,,0,17,17,5,,,,,409.75359937,,,,,,,,,,,,,,,,,,,,,,,,,,,,,,,,,,,,,,,,,,,,,,,,,,,,,,,,,,,409.74464469699996,409.75359937,409.95439491199994,409.95439491199994,409.95439491199994,411.65455557499996,411.65455557499996,411.63812648899994,,,,,,,,,,,,,,,,,,,,,,,,,,,,472923,001,2024-11-28_14h22.43.229,Test,2024.2.1,59.931970501111614,2024-11-28 14h22.54.022083 +0100,
7,150,30,58,None,18,18,0,,,,,,,,,,,,,,,,0,18,18,6,,,,,411.65455557499996,,,,,,,,,,,,,,,,,,,,,,,,,,,,,,,,,,,,,,,,,,,,,,,,,,,,,,,,,,,411.643731575,411.65455557499996,411.838432448,411.838432448,411.855006382,413.541560352,413.541560352,413.522925682,,,,,,,,,,,,,,,,,,,,,,,,,,,,472923,001,2024-11-28_14h22.43.229,Test,2024.2.1,59.931970501111614,2024-11-28 14h22.54.022083 +0100,
22,150,120,7,None,19,19,0,,,,,,,,,,,,,,,,0,19,19,21,,,,,413.541560352,,,,,,,,,,,,,,,,,,,,,,,,,,,,,,,,,,,,,,,,,,,,,,,,,,,,,,,,,,,413.53283852399994,413.541560352,413.738415588,413.738415588,413.754449038,415.4413627789999,415.4413627789999,415.423289861,,,,,,,,,,,,,,,,,,,,,,,,,,,,472923,001,2024-11-28_14h22.43.229,Test,2024.2.1,59.931970501111614,2024-11-28 14h22.54.022083 +0100,
11,150,60,22,None,20,20,0,,,,,,,,,,,,,,,,0,20,20,10,,,,,415.4413627789999,,,,,,,,,,,,,,,,,,,,,,,,,,,,,,,,,,,,,,,,,,,,,,,,,,,,,,,,,,,415.433128855,415.4413627789999,415.639188157,415.639188157,415.65595017999993,417.355534935,417.355534935,417.338696855,,,,,,,,,,,,,,,,,,,,,,,,,,,,472923,001,2024-11-28_14h22.43.229,Test,2024.2.1,59.931970501111614,2024-11-28 14h22.54.022083 +0100,
12,150,60,45,None,21,21,0,,,,,,,,,,,,,,,,0,21,21,11,,,,,417.355534935,,,,,,,,,,,,,,,,,,,,,,,,,,,,,,,,,,,,,,,,,,,,,,,,,,,,,,,,,,,417.3468530249999,417.355534935,417.55514854999996,417.55514854999996,417.55514854999996,419.25438859499997,419.25438859499997,419.23883670799995,,,,,,,,,,,,,,,,,,,,,,,,,,,,472923,001,2024-11-28_14h22.43.229,Test,2024.2.1,59.931970501111614,2024-11-28 14h22.54.022083 +0100,
20,150,90,44,None,22,22,0,,,,,,,,,,,,,,,,0,22,22,19,,,,,419.25438859499997,,,,,,,,,,,,,,,,,,,,,,,,,,,,,,,,,,,,,,,,,,,,,,,,,,,,,,,,,,,419.24450199899997,419.25438859499997,419.43894185899995,419.43894185899995,419.45607963799995,421.13805510599997,421.13805510599997,421.123019564,,,,,,,,,,,,,,,,,,,,,,,,,,,,472923,001,2024-11-28_14h22.43.229,Test,2024.2.1,59.931970501111614,2024-11-28 14h22.54.022083 +0100,
17,150,90,5,None,23,23,0,,,,,,,,,,,,,,,,0,23,23,16,,,,,421.13805510599997,,,,,,,,,,,,,,,,,,,,,,,,,,,,,,,,,,,,,,,,,,,,,,,,,,,,,,,,,,,421.129806995,421.13805510599997,421.354492162,421.354492162,421.33821956899993,423.05541267099994,423.05541267099994,423.04014135899996,,,,,,,,,,,,,,,,,,,,,,,,,,,,472923,001,2024-11-28_14h22.43.229,Test,2024.2.1,59.931970501111614,2024-11-28 14h22.54.022083 +0100,
2,150,0,2,None,24,24,0,,,,,,,,,,,,,,,,0,24,24,1,,,,,423.05541267099994,,,,,,,,,,,,,,,,,,,,,,,,,,,,,,,,,,,,,,,,,,,,,,,,,,,,,,,,,,,423.04801874899994,423.05541267099994,423.2548400499999,423.2548400499999,423.2548400499999,424.95499147899994,424.95499147899994,424.93956206699994,,,,,,,,,,,,,,,,,,,,,,,,,,,,472923,001,2024-11-28_14h22.43.229,Test,2024.2.1,59.931970501111614,2024-11-28 14h22.54.022083 +0100,
28,150,150,19,None,25,25,0,,,,,,,,,,,,,,,,0,25,25,27,,,,,424.95499147899994,,,,,,,,,,,,,,,,,,,,,,,,,,,,,,,,,,,,,,,,,,,,,,,,,,,,,,,,,,,424.9470035389999,424.95499147899994,425.138717472,425.138717472,425.156005215,426.838758851,426.838758851,426.823199224,,,,,,,,,,,,,,,,,,,,,,,,,,,,472923,001,2024-11-28_14h22.43.229,Test,2024.2.1,59.931970501111614,2024-11-28 14h22.54.022083 +0100,
5,150,0,64,None,26,26,0,,,,,,,,,,,,,,,,0,26,26,4,,,,,426.838758851,,,,,,,,,,,,,,,,,,,,,,,,,,,,,,,,,,,,,,,,,,,,,,,,,,,,,,,,,,,426.8287188709999,426.838758851,427.03854104199996,427.03854104199996,427.03854104199996,428.73883798,428.73883798,428.72294758699996,,,,,,,,,,,,,,,,,,,,,,,,,,,,472923,001,2024-11-28_14h22.43.229,Test,2024.2.1,59.931970501111614,2024-11-28 14h22.54.022083 +0100,
16,150,90,35,None,27,27,0,,,,,,,,,,,,,,,,0,27,27,15,,,,,428.73883798,,,,,,,,,,,,,,,,,,,,,,,,,,,,,,,,,,,,,,,,,,,,,,,,,,,,,,,,,,,428.729959114,428.73883798,428.94016410699993,428.94016410699993,428.94016410699993,,,430.639589825,,,,,,,,,,,,,,,,,,,,,,,,,,,,472923,001,2024-11-28_14h22.43.229,Test,2024.2.1,59.931970501111614,2024-11-28 14h22.54.022083 +0100,
21,150,120,3,None,28,28,0,,,,,,,,,,,,,,,,0,28,28,20,,,,,430.655963675,,,,,,,,,,,,,,,,,,,,,,,,,,,,,,,,,,,,,,,,,,,,,,,,,,,,,,,,,,,430.64731581899997,430.655963675,430.83897973999996,430.83897973999996,430.855607003,432.53923847699997,432.53923847699997,432.52358885999996,,,,,,,,,,,,,,,,,,,,,,,,,,,,472923,001,2024-11-28_14h22.43.229,Test,2024.2.1,59.931970501111614,2024-11-28 14h22.54.022083 +0100,
9,150,30,39,None,29,29,0,,,,,,,,,,,,,,,,0,29,29,8,,,,,432.53923847699997,,,,,,,,,,,,,,,,,,,,,,,,,,,,,,,,,,,,,,,,,,,,,,,,,,,,,,,,,,,432.5308533869999,432.53923847699997,432.7400745769999,432.7400745769999,432.7400745769999,434.43964462799994,434.43964462799994,434.42356768199994,,,,,,,,,,,,,,,,,,,,,,,,,,,,472923,001,2024-11-28_14h22.43.229,Test,2024.2.1,59.931970501111614,2024-11-28 14h22.54.022083 +0100,
3,150,0,68,None,30,30,0,,,,,,,,,,,,,,,,0,30,30,2,,,,,434.43964462799994,,,,,,,,,,,,,,,,,,,,,,,,,,,,,,,,,,,,,,,,,,,,,,,,,,,,,,,,,,,434.430001128,434.43964462799994,434.63846536,434.63846536,434.65517024499997,436.342176895,436.342176895,436.32452839,,,,,,,,,,,,,,,,,,,,,,,,,,,,472923,001,2024-11-28_14h22.43.229,Test,2024.2.1,59.931970501111614,2024-11-28 14h22.54.022083 +0100,
18,150,90,70,None,31,31,0,,,,,,,,,,,,,,,,0,31,31,17,,,,,436.342176895,,,,,,,,,,,,,,,,,,,,,,,,,,,,,,,,,,,,,,,,,,,,,,,,,,,,,,,,,,,436.33364057599994,436.342176895,436.53926809599994,436.53926809599994,436.555931337,438.23898475799996,438.23898475799996,438.22360108799995,,,,,,,,,,,,,,,,,,,,,,,,,,,,472923,001,2024-11-28_14h22.43.229,Test,2024.2.1,59.931970501111614,2024-11-28 14h22.54.022083 +0100,
4,150,0,54,None,32,32,0,,,,,,,,,,,,,,,,0,32,32,3,,,,,438.23898475799996,,,,,,,,,,,,,,,,,,,,,,,,,,,,,,,,,,,,,,,,,,,,,,,,,,,,,,,,,,,438.22954858399993,438.23898475799996,438.44038485899995,438.44038485899995,438.44038485899995,440.143324854,440.143324854,440.12474540299996,,,,,,,,,,,,,,,,,,,,,,,,,,,,472923,001,2024-11-28_14h22.43.229,Test,2024.2.1,59.931970501111614,2024-11-28 14h22.54.022083 +0100,
34,150,180,27,None,33,33,0,,,,,,,,,,,,,,,,0,33,33,33,,,,,440.143324854,,,,,,,,,,,,,,,,,,,,,,,,,,,,,,,,,,,,,,,,,,,,,,,,,,,,,,,,,,,440.134479094,440.143324854,440.3408888469999,440.3408888469999,440.3572391889999,442.056349699,442.056349699,442.039802327,,,,,,,,,,,,,,,,,,,,,,,,,,,,472923,001,2024-11-28_14h22.43.229,Test,2024.2.1,59.931970501111614,2024-11-28 14h22.54.022083 +0100,
10,150,30,4,None,34,34,0,,,,,,,,,,,,,,,,0,34,34,9,,,,,442.056349699,,,,,,,,,,,,,,,,,,,,,,,,,,,,,,,,,,,,,,,,,,,,,,,,,,,,,,,,,,,442.045259554,442.056349699,442.239771687,442.239771687,442.256809732,443.93993364599993,443.93993364599993,443.924339312,,,,,,,,,,,,,,,,,,,,,,,,,,,,472923,001,2024-11-28_14h22.43.229,Test,2024.2.1,59.931970501111614,2024-11-28 14h22.54.022083 +0100,
,,,,,,,,,,,,,,,,,,,,,,,,,,,,,,,,,,,,,,,,,,,,,,,,,,,,,,,,,,,,,,,,,,,,,,,,,,,,,,,,,,,,,,,,,,,,,,,,,,443.92450213599994,443.93993364599993,443.93993364599993,445.8758246539999,space,1.9330880950000164,None,,,,,,,,,,,,,,,,,,,,,472923,001,2024-11-28_14h22.43.229,Test,2024.2.1,59.931970501111614,2024-11-28 14h22.54.022083 +0100,
8,150,30,30,None,0,0,0,False,,,,right,1.0046620990000292,None,,,,,,,,,,,,,0,0,0,0,445.90126420199994,,,,,,,,,,,,,,,,,,,,,,,,,,,,,,,,,,,,,,,,,,,,,,,,,,,,,,,,,,,,,,,,,,,,,,,,,,445.89191227299995,445.90126420199994,446.9076618149999,447.89094181799993,447.89094181799993,447.89094181799993,448.9084268259999,right,1.0046620990000292,None,,,,,,,,,,,472923,001,2024-11-28_14h22.43.229,Test,2024.2.1,59.931970501111614,2024-11-28 14h22.54.022083 +0100,
10,150,30,4,None,1,1,0,False,,,,right,0.8518207810000149,None,,,,,,,,,,,,,0,1,1,1,448.92360086799994,,,,,,,,,,,,,,,,,,,,,,,,,,,,,,,,,,,,,,,,,,,,,,,,,,,,,,,,,,,,,,,,,,,,,,,,,,448.91198108299994,448.92360086799994,449.92486069599994,450.923627587,450.923627587,450.923627587,451.778595953,right,0.8518207810000149,None,,,,,,,,,,,472923,001,2024-11-28_14h22.43.229,Test,2024.2.1,59.931970501111614,2024-11-28 14h22.54.022083 +0100,
32,150,180,37,None,2,2,0,False,,,,right,0.9568592179999769,None,,,,,,,,,,,,,0,2,2,2,451.790832557,,,,,,,,,,,,,,,,,,,,,,,,,,,,,,,,,,,,,,,,,,,,,,,,,,,,,,,,,,,,,,,,,,,,,,,,,,451.78227466999994,451.790832557,452.79103545799995,453.7917379379999,453.7917379379999,453.7917379379999,454.759302041,right,0.9568592179999769,None,,,,,,,,,,,472923,001,2024-11-28_14h22.43.229,Test,2024.2.1,59.931970501111614,2024-11-28 14h22.54.022083 +0100,
15,150,60,6,None,3,3,0,False,,,,right,1.3015141930000027,None,,,,,,,,,,,,,0,3,3,3,454.773533,,,,,,,,,,,,,,,,,,,,,,,,,,,,,,,,,,,,,,,,,,,,,,,,,,,,,,,,,,,,,,,,,,,,,,,,,,454.76295445599993,454.773533,455.773966671,456.77441358799996,456.77441358799996,456.77441358799996,458.079457731,right,1.3015141930000027,None,,,,,,,,,,,472923,001,2024-11-28_14h22.43.229,Test,2024.2.1,59.931970501111614,2024-11-28 14h22.54.022083 +0100,
41,150,30,20,None,4,4,0,True,,,,left,1.0063054190000003,None,,,,,,,,,,,,,0,4,4,4,458.095702186,,,,,,,,,,,,,,,,,,,,,,,,,,,,,,,,,,,,,,,,,,,,,,,,,,,,,,,,,,,,,,,,,,,,,,,,,,458.087902553,458.095702186,459.10796762599995,460.092188141,460.092188141,460.092188141,461.10957113399996,left,1.0063054190000003,None,,,,,,,,,,,472923,001,2024-11-28_14h22.43.229,Test,2024.2.1,59.931970501111614,2024-11-28 14h22.54.022083 +0100,
55,150,90,26,None,5,5,0,True,,,,left,1.3107806900000014,None,,,,,,,,,,,,,0,5,5,5,461.12374280499995,,,,,,,,,,,,,,,,,,,,,,,,,,,,,,,,,,,,,,,,,,,,,,,,,,,,,,,,,,,,,,,,,,,,,,,,,,461.11475458499996,461.12374280499995,462.124135354,463.107402575,463.107402575,463.107402575,464.433510368,left,1.3107806900000014,None,,,,,,,,,,,472923,001,2024-11-28_14h22.43.229,Test,2024.2.1,59.931970501111614,2024-11-28 14h22.54.022083 +0100,
27,150,150,53,None,6,6,0,False,,,,left,1.8253374679999297,None,,,,,,,,,,,,,0,6,6,6,464.446481451,,,,,,,,,,,,,,,,,,,,,,,,,,,,,,,,,,,,,,,,,,,,,,,,,,,,,,,,,,,,,,,,,,,,,,,,,,464.43980673699997,464.446481451,465.45842485,466.44139363999994,466.44139363999994,466.44139363999994,468.27880529299995,left,1.8253374679999297,None,,,,,,,,,,,472923,001,2024-11-28_14h22.43.229,Test,2024.2.1,59.931970501111614,2024-11-28 14h22.54.022083 +0100,
20,150,90,44,None,7,7,0,False,,,,right,0.8237010979999013,None,,,,,,,,,,,,,0,7,7,7,468.29505071499995,,,,,,,,,,,,,,,,,,,,,,,,,,,,,,,,,,,,,,,,,,,,,,,,,,,,,,,,,,,,,,,,,,,,,,,,,,468.285103892,468.29505071499995,469.3080567729999,470.291894324,470.291894324,470.291894324,471.126222532,right,0.8237010979999013,None,,,,,,,,,,,472923,001,2024-11-28_14h22.43.229,Test,2024.2.1,59.931970501111614,2024-11-28 14h22.54.022083 +0100,
52,150,90,31,None,8,8,0,True,,,,left,0.955666719000078,None,,,,,,,,,,,,,0,8,8,8,471.141982812,,,,,,,,,,,,,,,,,,,,,,,,,,,,,,,,,,,,,,,,,,,,,,,,,,,,,,,,,,,,,,,,,,,,,,,,,,471.1327711789999,471.141982812,472.141698736,473.126006526,473.126006526,473.126006526,474.09403552099997,left,0.955666719000078,None,,,,,,,,,,,472923,001,2024-11-28_14h22.43.229,Test,2024.2.1,59.931970501111614,2024-11-28 14h22.54.022083 +0100,
58,150,120,63,None,9,9,0,True,,,,left,1.0390204650000214,None,,,,,,,,,,,,,0,9,9,9,474.108529961,,,,,,,,,,,,,,,,,,,,,,,,,,,,,,,,,,,,,,,,,,,,,,,,,,,,,,,,,,,,,,,,,,,,,,,,,,474.09969632099995,474.108529961,475.109737519,476.108658734,476.108658734,476.108658734,477.15984980699994,left,1.0390204650000214,None,,,,,,,,,,,472923,001,2024-11-28_14h22.43.229,Test,2024.2.1,59.931970501111614,2024-11-28 14h22.54.022083 +0100,
25,150,120,15,None,10,10,0,False,,,,left,0.8586805439999807,None,,,,,,,,,,,,,0,10,10,10,477.175268571,,,,,,,,,,,,,,,,,,,,,,,,,,,,,,,,,,,,,,,,,,,,,,,,,,,,,,,,,,,,,,,,,,,,,,,,,,477.1636371519999,477.175268571,478.176286942,479.159329165,479.159329165,479.159329165,480.026953,left,0.8586805439999807,None,,,,,,,,,,,472923,001,2024-11-28_14h22.43.229,Test,2024.2.1,59.931970501111614,2024-11-28 14h22.54.022083 +0100,
9,150,30,39,None,11,11,0,False,,,,right,0.9333483510000633,None,,,,,,,,,,,,,0,11,11,11,480.042543318,,,,,,,,,,,,,,,,,,,,,,,,,,,,,,,,,,,,,,,,,,,,,,,,,,,,,,,,,,,,,,,,,,,,,,,,,,480.030726164,480.042543318,481.043129523,482.02631943,482.02631943,482.02631943,482.96211958099997,right,0.9333483510000633,None,,,,,,,,,,,472923,001,2024-11-28_14h22.43.229,Test,2024.2.1,59.931970501111614,2024-11-28 14h22.54.022083 +0100,
50,150,60,8,None,12,12,0,True,,,,left,0.9626516249999213,None,,,,,,,,,,,,,0,12,12,12,482.976641669,,,,,,,,,,,,,,,,,,,,,,,,,,,,,,,,,,,,,,,,,,,,,,,,,,,,,,,,,,,,,,,,,,,,,,,,,,482.967652643,482.976641669,483.976433405,484.977320065,484.977320065,484.977320065,485.94490278099994,left,0.9626516249999213,None,,,,,,,,,,,472923,001,2024-11-28_14h22.43.229,Test,2024.2.1,59.931970501111614,2024-11-28 14h22.54.022083 +0100,
46,150,60,43,None,13,13,0,True,,,,right,1.0425062560000242,None,,,,,,,,,,,,,0,13,13,13,485.961234153,,,,,,,,,,,,,,,,,,,,,,,,,,,,,,,,,,,,,,,,,,,,,,,,,,,,,,,,,,,,,,,,,,,,,,,,,,485.95214162199994,485.961234153,486.97584259699994,487.94375783699996,487.94375783699996,487.94375783699996,488.996884782,right,1.0425062560000242,None,,,,,,,,,,,472923,001,2024-11-28_14h22.43.229,Test,2024.2.1,59.931970501111614,2024-11-28 14h22.54.022083 +0100,
49,150,60,18,None,14,14,0,True,,,,left,1.2338945289999401,None,,,,,,,,,,,,,0,14,14,14,489.01285383499993,,,,,,,,,,,,,,,,,,,,,,,,,,,,,,,,,,,,,,,,,,,,,,,,,,,,,,,,,,,,,,,,,,,,,,,,,,489.004417594,489.01285383499993,490.02733709,491.010596948,491.010596948,491.010596948,492.26190007299994,left,1.2338945289999401,None,,,,,,,,,,,472923,001,2024-11-28_14h22.43.229,Test,2024.2.1,59.931970501111614,2024-11-28 14h22.54.022083 +0100,
57,150,120,40,None,15,15,0,True,,,,left,0.8244393669999681,None,,,,,,,,,,,,,0,15,15,15,492.277946859,,,,,,,,,,,,,,,,,,,,,,,,,,,,,,,,,,,,,,,,,,,,,,,,,,,,,,,,,,,,,,,,,,,,,,,,,,492.26933739399993,492.277946859,493.277327169,494.27643790299993,494.27643790299993,494.27643790299993,495.1127330069999,left,0.8244393669999681,None,,,,,,,,,,,472923,001,2024-11-28_14h22.43.229,Test,2024.2.1,59.931970501111614,2024-11-28 14h22.54.022083 +0100,
36,150,0,62,None,16,16,0,True,,,,left,1.022114399999964,None,,,,,,,,,,,,,0,16,16,16,495.13197096999994,,,,,,,,,,,,,,,,,,,,,,,,,,,,,,,,,,,,,,,,,,,,,,,,,,,,,,,,,,,,,,,,,,,,,,,,,,495.1219035369999,495.13197096999994,496.14435050599997,497.12699209,497.12699209,497.12699209,498.16221863899995,left,1.022114399999964,None,,,,,,,,,,,472923,001,2024-11-28_14h22.43.229,Test,2024.2.1,59.931970501111614,2024-11-28 14h22.54.022083 +0100,
62,150,150,42,None,17,17,0,True,,,,left,0.8016426810000894,None,,,,,,,,,,,,,0,17,17,17,498.18011232199996,,,,,,,,,,,,,,,,,,,,,,,,,,,,,,,,,,,,,,,,,,,,,,,,,,,,,,,,,,,,,,,,,,,,,,,,,,498.170758411,498.18011232199996,499.19403536399994,500.17757937899995,500.17757937899995,500.17757937899995,500.995849394,left,0.8016426810000894,None,,,,,,,,,,,472923,001,2024-11-28_14h22.43.229,Test,2024.2.1,59.931970501111614,2024-11-28 14h22.54.022083 +0100,
34,150,180,27,None,18,18,0,False,,,,left,0.8228200500000185,None,,,,,,,,,,,,,0,18,18,18,501.01086318999995,,,,,,,,,,,,,,,,,,,,,,,,,,,,,,,,,,,,,,,,,,,,,,,,,,,,,,,,,,,,,,,,,,,,,,,,,,500.99935070199996,501.01086318999995,502.00989462,503.010528557,503.010528557,503.010528557,503.84546821,left,0.8228200500000185,None,,,,,,,,,,,472923,001,2024-11-28_14h22.43.229,Test,2024.2.1,59.931970501111614,2024-11-28 14h22.54.022083 +0100,
56,150,120,28,None,19,19,0,True,,,,left,1.0743227289999595,None,,,,,,,,,,,,,0,19,19,19,503.861491308,,,,,,,,,,,,,,,,,,,,,,,,,,,,,,,,,,,,,,,,,,,,,,,,,,,,,,,,,,,,,,,,,,,,,,,,,,503.853116982,503.861491308,504.860923977,505.8613482729999,505.8613482729999,505.8613482729999,506.946912723,left,1.0743227289999595,None,,,,,,,,,,,472923,001,2024-11-28_14h22.43.229,Test,2024.2.1,59.931970501111614,2024-11-28 14h22.54.022083 +0100,
37,150,0,46,None,20,20,0,True,,,,left,0.7813310090000414,None,,,,,,,,,,,,,0,20,20,20,506.96394957599995,,,,,,,,,,,,,,,,,,,,,,,,,,,,,,,,,,,,,,,,,,,,,,,,,,,,,,,,,,,,,,,,,,,,,,,,,,506.954488811,506.96394957599995,507.97869777499994,508.96175226299994,508.96175226299994,508.96175226299994,509.748859406,left,0.7813310090000414,None,,,,,,,,,,,472923,001,2024-11-28_14h22.43.229,Test,2024.2.1,59.931970501111614,2024-11-28 14h22.54.022083 +0100,
48,150,60,16,None,21,21,0,True,,,,left,0.7579600180000057,None,,,,,,,,,,,,,0,21,21,21,509.766207103,,,,,,,,,,,,,,,,,,,,,,,,,,,,,,,,,,,,,,,,,,,,,,,,,,,,,,,,,,,,,,,,,,,,,,,,,,509.75842634399993,509.766207103,510.778509176,511.76113207,511.76113207,511.76113207,512.5294101289999,left,0.7579600180000057,None,,,,,,,,,,,472923,001,2024-11-28_14h22.43.229,Test,2024.2.1,59.931970501111614,2024-11-28 14h22.54.022083 +0100,
29,150,150,9,None,22,22,0,False,,,,right,1.3008015709999654,None,,,,,,,,,,,,,0,22,22,22,512.544621948,,,,,,,,,,,,,,,,,,,,,,,,,,,,,,,,,,,,,,,,,,,,,,,,,,,,,,,,,,,,,,,,,,,,,,,,,,512.5329442309999,512.544621948,513.5458737060001,514.544704167,514.544704167,514.544704167,515.8629609530001,right,1.3008015709999654,None,,,,,,,,,,,472923,001,2024-11-28_14h22.43.229,Test,2024.2.1,59.931970501111614,2024-11-28 14h22.54.022083 +0100,
42,150,30,52,None,23,23,0,True,,,,right,1.0761505670000133,None,,,,,,,,,,,,,0,23,23,23,515.878450592,,,,,,,,,,,,,,,,,,,,,,,,,,,,,,,,,,,,,,,,,,,,,,,,,,,,,,,,,,,,,,,,,,,,,,,,,,515.868715222,515.878450592,516.8792474310001,517.8787022239999,517.8787022239999,517.8787022239999,518.9653444369999,right,1.0761505670000133,None,,,,,,,,,,,472923,001,2024-11-28_14h22.43.229,Test,2024.2.1,59.931970501111614,2024-11-28 14h22.54.022083 +0100,
40,150,0,55,None,24,24,0,True,,,,left,0.6522839740000563,None,,,,,,,,,,,,,0,24,24,24,518.9800941199999,,,,,,,,,,,,,,,,,,,,,,,,,,,,,,,,,,,,,,,,,,,,,,,,,,,,,,,,,,,,,,,,,,,,,,,,,,518.9712469209999,518.9800941199999,519.995139115,520.97888672,520.97888672,520.97888672,521.6472509,left,0.6522839740000563,None,,,,,,,,,,,472923,001,2024-11-28_14h22.43.229,Test,2024.2.1,59.931970501111614,2024-11-28 14h22.54.022083 +0100,
7,150,30,58,None,25,25,0,False,,,,left,1.1575351169999522,None,,,,,,,,,,,,,0,25,25,25,521.6617952249999,,,,,,,,,,,,,,,,,,,,,,,,,,,,,,,,,,,,,,,,,,,,,,,,,,,,,,,,,,,,,,,,,,,,,,,,,,521.650643206,521.6617952249999,522.663110667,523.662925246,523.662925246,523.662925246,524.8315614159999,left,1.1575351169999522,None,,,,,,,,,,,472923,001,2024-11-28_14h22.43.229,Test,2024.2.1,59.931970501111614,2024-11-28 14h22.54.022083 +0100,
19,150,90,29,None,26,26,0,False,,,,right,0.8150731860000633,None,,,,,,,,,,,,,0,26,26,26,524.8450786210001,,,,,,,,,,,,,,,,,,,,,,,,,,,,,,,,,,,,,,,,,,,,,,,,,,,,,,,,,,,,,,,,,,,,,,,,,,524.835778311,524.8450786210001,525.8460014929999,526.846344495,526.846344495,526.846344495,527.667083287,right,0.8150731860000633,None,,,,,,,,,,,472923,001,2024-11-28_14h22.43.229,Test,2024.2.1,59.931970501111614,2024-11-28 14h22.54.022083 +0100,
21,150,120,3,None,27,27,0,False,,,,left,0.9490175220000765,None,,,,,,,,,,,,,0,27,27,27,527.680930756,,,,,,,,,,,,,,,,,,,,,,,,,,,,,,,,,,,,,,,,,,,,,,,,,,,,,,,,,,,,,,,,,,,,,,,,,,527.6716971829999,527.680930756,528.696750474,529.679007184,529.679007184,529.679007184,530.631685263,left,0.9490175220000765,None,,,,,,,,,,,472923,001,2024-11-28_14h22.43.229,Test,2024.2.1,59.931970501111614,2024-11-28 14h22.54.022083 +0100,
17,150,90,5,None,28,28,0,False,,,,right,2.737438245000021,None,,,,,,,,,,,,,0,28,28,28,530.6458914109999,,,,,,,,,,,,,,,,,,,,,,,,,,,,,,,,,,,,,,,,,,,,,,,,,,,,,,,,,,,,,,,,,,,,,,,,,,530.635843085,530.6458914109999,531.645875634,532.6459728519999,532.6459728519999,532.6459728519999,535.397548038,right,2.737438245000021,None,,,,,,,,,,,472923,001,2024-11-28_14h22.43.229,Test,2024.2.1,59.931970501111614,2024-11-28 14h22.54.022083 +0100,
4,150,0,54,None,29,29,0,False,,,,left,0.9183377389999805,None,,,,,,,,,,,,,0,29,29,29,535.413145969,,,,,,,,,,,,,,,,,,,,,,,,,,,,,,,,,,,,,,,,,,,,,,,,,,,,,,,,,,,,,,,,,,,,,,,,,,535.401633082,535.413145969,536.412842211,537.41266838,537.41266838,537.41266838,538.3481831889999,left,0.9183377389999805,None,,,,,,,,,,,472923,001,2024-11-28_14h22.43.229,Test,2024.2.1,59.931970501111614,2024-11-28 14h22.54.022083 +0100,
2,150,0,2,None,30,30,0,False,,,,right,1.0672530270001062,None,,,,,,,,,,,,,0,30,30,30,538.363889358,,,,,,,,,,,,,,,,,,,,,,,,,,,,,,,,,,,,,,,,,,,,,,,,,,,,,,,,,,,,,,,,,,,,,,,,,,538.3538567620001,538.363889358,539.3635892279999,540.3633682479999,540.3633682479999,540.3633682479999,541.433232012,right,1.0672530270001062,None,,,,,,,,,,,472923,001,2024-11-28_14h22.43.229,Test,2024.2.1,59.931970501111614,2024-11-28 14h22.54.022083 +0100,
67,150,180,24,None,31,31,0,True,,,,right,1.160881709000023,None,,,,,,,,,,,,,0,31,31,31,541.4522613909999,,,,,,,,,,,,,,,,,,,,,,,,,,,,,,,,,,,,,,,,,,,,,,,,,,,,,,,,,,,,,,,,,,,,,,,,,,541.4422065009999,541.4522613909999,542.463225275,543.4466837309999,543.4466837309999,543.4466837309999,544.6288699449999,right,1.160881709000023,None,,,,,,,,,,,472923,001,2024-11-28_14h22.43.229,Test,2024.2.1,59.931970501111614,2024-11-28 14h22.54.022083 +0100,
53,150,90,60,None,32,32,0,True,,,,left,3.9845012140001472,None,,,,,,,,,,,,,0,32,32,32,544.6456513349999,,,,,,,,,,,,,,,,,,,,,,,,,,,,,,,,,,,,,,,,,,,,,,,,,,,,,,,,,,,,,,,,,,,,,,,,,,544.6368797559999,544.6456513349999,545.646274877,546.630386197,546.630386197,546.630386197,550.6312172519999,left,3.9845012140001472,None,549.6305935180001,549.6305935180001,549.6305935180001,,,,,,,,472923,001,2024-11-28_14h22.43.229,Test,2024.2.1,59.931970501111614,2024-11-28 14h22.54.022083 +0100,
66,150,180,21,None,33,33,0,True,,,,left,0.9738427869999668,None,,,,,,,,,,,,,0,33,33,33,550.646788491,,,,,,,,,,,,,,,,,,,,,,,,,,,,,,,,,,,,,,,,,,,,,,,,,,,,,,,,,,,,,,,,,,,,,,,,,,550.6371715999999,550.646788491,551.64726877,552.6306707890001,552.6306707890001,552.6306707890001,553.615775792,left,0.9738427869999668,None,,,,,,,,,,,472923,001,2024-11-28_14h22.43.229,Test,2024.2.1,59.931970501111614,2024-11-28 14h22.54.022083 +0100,
64,150,150,32,None,34,34,0,True,,,,left,1.0796877259999746,None,,,,,,,,,,,,,0,34,34,34,553.631878595,,,,,,,,,,,,,,,,,,,,,,,,,,,,,,,,,,,,,,,,,,,,,,,,,,,,,,,,,,,,,,,,,,,,,,,,,,553.6219799109999,553.631878595,554.6306142230001,555.6307347469999,555.6307347469999,555.6307347469999,556.7168036169999,left,1.0796877259999746,None,,,,,,,,,,,472923,001,2024-11-28_14h22.43.229,Test,2024.2.1,59.931970501111614,2024-11-28 14h22.54.022083 +0100,
65,150,150,56,None,35,35,0,True,,,,left,1.5771415059998617,None,,,,,,,,,,,,,0,35,35,35,556.735645194,,,,,,,,,,,,,,,,,,,,,,,,,,,,,,,,,,,,,,,,,,,,,,,,,,,,,,,,,,,,,,,,,,,,,,,,,,556.7253629069999,556.735645194,557.7478562449999,558.7308752459999,558.7308752459999,558.7308752459999,560.3168361400001,left,1.5771415059998617,None,,,,,,,,,,,472923,001,2024-11-28_14h22.43.229,Test,2024.2.1,59.931970501111614,2024-11-28 14h22.54.022083 +0100,
28,150,150,19,None,36,36,0,False,,,,right,1.106729573000166,None,,,,,,,,,,,,,0,36,36,36,560.3322974559999,,,,,,,,,,,,,,,,,,,,,,,,,,,,,,,,,,,,,,,,,,,,,,,,,,,,,,,,,,,,,,,,,,,,,,,,,,560.323706609,560.3322974559999,561.347762757,562.3310524999999,562.3310524999999,562.3310524999999,563.4500117059999,right,1.106729573000166,None,,,,,,,,,,,472923,001,2024-11-28_14h22.43.229,Test,2024.2.1,59.931970501111614,2024-11-28 14h22.54.022083 +0100,
13,150,60,65,None,37,37,0,False,,,,right,1.3389673570000014,None,,,,,,,,,,,,,0,37,37,37,563.4644855009999,,,,,,,,,,,,,,,,,,,,,,,,,,,,,,,,,,,,,,,,,,,,,,,,,,,,,,,,,,,,,,,,,,,,,,,,,,563.456686473,563.4644855009999,564.464443075,565.464398439,565.464398439,565.464398439,566.817522676,right,1.3389673570000014,None,,,,,,,,,,,472923,001,2024-11-28_14h22.43.229,Test,2024.2.1,59.931970501111614,2024-11-28 14h22.54.022083 +0100,
44,150,30,51,None,38,38,0,True,,,,left,0.6807201229999009,None,,,,,,,,,,,,,0,38,38,38,566.835096284,,,,,,,,,,,,,,,,,,,,,,,,,,,,,,,,,,,,,,,,,,,,,,,,,,,,,,,,,,,,,,,,,,,,,,,,,,566.8256399950001,566.835096284,567.8484144229999,568.8317767419999,568.8317767419999,568.8317767419999,569.5180177689999,left,0.6807201229999009,None,,,,,,,,,,,472923,001,2024-11-28_14h22.43.229,Test,2024.2.1,59.931970501111614,2024-11-28 14h22.54.022083 +0100,
68,150,180,13,None,39,39,0,True,,,,left,1.1221183039999687,None,,,,,,,,,,,,,0,39,39,39,569.547280191,,,,,,,,,,,,,,,,,,,,,,,,,,,,,,,,,,,,,,,,,,,,,,,,,,,,,,,,,,,,,,,,,,,,,,,,,,569.523553817,569.547280191,570.548280192,571.53186854,571.53186854,571.53186854,572.6679189910001,left,1.1221183039999687,None,,,,,,,,,,,472923,001,2024-11-28_14h22.43.229,Test,2024.2.1,59.931970501111614,2024-11-28 14h22.54.022083 +0100,
6,150,30,48,None,40,40,0,False,,,,right,0.905485224999893,None,,,,,,,,,,,,,0,40,40,40,572.68252936,,,,,,,,,,,,,,,,,,,,,,,,,,,,,,,,,,,,,,,,,,,,,,,,,,,,,,,,,,,,,,,,,,,,,,,,,,572.673130982,572.68252936,573.6818062560001,574.6819287369999,574.6819287369999,574.6819287369999,575.6010521169999,right,0.905485224999893,None,,,,,,,,,,,472923,001,2024-11-28_14h22.43.229,Test,2024.2.1,59.931970501111614,2024-11-28 14h22.54.022083 +0100,
11,150,60,22,None,41,41,0,False,,,,left,2.5394020269998236,None,,,,,,,,,,,,,0,41,41,41,575.616624683,,,,,,,,,,,,,,,,,,,,,,,,,,,,,,,,,,,,,,,,,,,,,,,,,,,,,,,,,,,,,,,,,,,,,,,,,,575.6071072459999,575.616624683,576.63240716,577.6156773139999,577.6156773139999,577.6156773139999,580.1672832209999,left,2.5394020269998236,None,,,,,,,,,,,472923,001,2024-11-28_14h22.43.229,Test,2024.2.1,59.931970501111614,2024-11-28 14h22.54.022083 +0100,
23,150,120,12,None,42,42,0,False,,,,right,1.1718959199999972,None,,,,,,,,,,,,,0,42,42,42,580.1819583270001,,,,,,,,,,,,,,,,,,,,,,,,,,,,,,,,,,,,,,,,,,,,,,,,,,,,,,,,,,,,,,,,,,,,,,,,,,580.1719694849999,580.1819583270001,581.1826079140001,582.182514157,582.182514157,582.182514157,583.3675472,right,1.1718959199999972,None,,,,,,,,,,,472923,001,2024-11-28_14h22.43.229,Test,2024.2.1,59.931970501111614,2024-11-28 14h22.54.022083 +0100,
38,150,0,38,None,43,43,0,True,,,,left,1.1547766690000572,None,,,,,,,,,,,,,0,43,43,43,583.3822714170001,,,,,,,,,,,,,,,,,,,,,,,,,,,,,,,,,,,,,,,,,,,,,,,,,,,,,,,,,,,,,,,,,,,,,,,,,,583.372573567,583.3822714170001,584.3823356380001,585.3827472400001,585.3827472400001,585.3827472400001,586.5506527590001,left,1.1547766690000572,None,,,,,,,,,,,472923,001,2024-11-28_14h22.43.229,Test,2024.2.1,59.931970501111614,2024-11-28 14h22.54.022083 +0100,
43,150,30,1,None,44,44,0,True,,,,left,0.8807136220000302,None,,,,,,,,,,,,,0,44,44,44,586.5669210809999,,,,,,,,,,,,,,,,,,,,,,,,,,,,,,,,,,,,,,,,,,,,,,,,,,,,,,,,,,,,,,,,,,,,,,,,,,586.557013373,586.5669210809999,587.5662986529999,588.566037655,588.566037655,588.566037655,589.4523866039999,left,0.8807136220000302,None,,,,,,,,,,,472923,001,2024-11-28_14h22.43.229,Test,2024.2.1,59.931970501111614,2024-11-28 14h22.54.022083 +0100,
24,150,120,67,None,45,45,0,False,,,,left,1.141596275999973,None,,,,,,,,,,,,,0,45,45,45,589.470410855,,,,,,,,,,,,,,,,,,,,,,,,,,,,,,,,,,,,,,,,,,,,,,,,,,,,,,,,,,,,,,,,,,,,,,,,,,589.460300126,589.470410855,590.483075614,591.466404752,591.466404752,591.466404752,592.618925597,left,1.141596275999973,None,,,,,,,,,,,472923,001,2024-11-28_14h22.43.229,Test,2024.2.1,59.931970501111614,2024-11-28 14h22.54.022083 +0100,
70,150,180,47,None,46,46,0,True,,,,right,1.1577564910001001,None,,,,,,,,,,,,,0,46,46,46,592.637325124,,,,,,,,,,,,,,,,,,,,,,,,,,,,,,,,,,,,,,,,,,,,,,,,,,,,,,,,,,,,,,,,,,,,,,,,,,592.6271117480001,592.637325124,593.649990655,594.6332842919999,594.6332842919999,594.6332842919999,595.8021919579999,right,1.1577564910001001,None,,,,,,,,,,,472923,001,2024-11-28_14h22.43.229,Test,2024.2.1,59.931970501111614,2024-11-28 14h22.54.022083 +0100,
33,150,180,41,None,47,47,0,False,,,,left,1.242320596000127,None,,,,,,,,,,,,,0,47,47,47,595.8174397079999,,,,,,,,,,,,,,,,,,,,,,,,,,,,,,,,,,,,,,,,,,,,,,,,,,,,,,,,,,,,,,,,,,,,,,,,,,595.8084140789999,595.8174397079999,596.8170558459999,597.8171474349999,597.8171474349999,597.8171474349999,599.0694866270001,left,1.242320596000127,None,,,,,,,,,,,472923,001,2024-11-28_14h22.43.229,Test,2024.2.1,59.931970501111614,2024-11-28 14h22.54.022083 +0100,
1,150,0,69,None,48,48,0,False,,,,left,0.6571787440000207,None,,,,,,,,,,,,,0,48,48,48,599.087179094,,,,,,,,,,,,,,,,,,,,,,,,,,,,,,,,,,,,,,,,,,,,,,,,,,,,,,,,,,,,,,,,,,,,,,,,,,599.077435573,599.087179094,600.100843614,601.083388493,601.083388493,601.083388493,601.7531055679999,left,0.6571787440000207,None,,,,,,,,,,,472923,001,2024-11-28_14h22.43.229,Test,2024.2.1,59.931970501111614,2024-11-28 14h22.54.022083 +0100,
63,150,150,33,None,49,49,0,True,,,,left,0.5847600250001506,None,,,,,,,,,,,,,0,49,49,49,601.771146762,,,,,,,,,,,,,,,,,,,,,,,,,,,,,,,,,,,,,,,,,,,,,,,,,,,,,,,,,,,,,,,,,,,,,,,,,,601.7609006509999,601.771146762,602.7840680459999,603.76735861,603.76735861,603.76735861,604.369759592,left,0.5847600250001506,None,,,,,,,,,,,472923,001,2024-11-28_14h22.43.229,Test,2024.2.1,59.931970501111614,2024-11-28 14h22.54.022083 +0100,
69,150,180,57,None,50,50,0,True,,,,left,0.5476619739999933,None,,,,,,,,,,,,,0,50,50,50,604.3853138100001,,,,,,,,,,,,,,,,,,,,,,,,,,,,,,,,,,,,,,,,,,,,,,,,,,,,,,,,,,,,,,,,,,,,,,,,,,604.37541768,604.3853138100001,605.384388488,606.3844883649999,606.3844883649999,606.3844883649999,606.9380413869999,left,0.5476619739999933,None,,,,,,,,,,,472923,001,2024-11-28_14h22.43.229,Test,2024.2.1,59.931970501111614,2024-11-28 14h22.54.022083 +0100,
45,150,30,25,None,51,51,0,True,,,,left,0.6672330079998119,None,,,,,,,,,,,,,0,51,51,51,606.960687878,,,,,,,,,,,,,,,,,,,,,,,,,,,,,,,,,,,,,,,,,,,,,,,,,,,,,,,,,,,,,,,,,,,,,,,,,,606.9514986659999,606.960687878,607.9674619979999,608.950770836,608.950770836,608.950770836,609.620532549,left,0.6672330079998119,None,,,,,,,,,,,472923,001,2024-11-28_14h22.43.229,Test,2024.2.1,59.931970501111614,2024-11-28 14h22.54.022083 +0100,
18,150,90,70,None,52,52,0,False,,,,left,0.6916116449999663,None,,,,,,,,,,,,,0,52,52,52,609.6344272270001,,,,,,,,,,,,,,,,,,,,,,,,,,,,,,,,,,,,,,,,,,,,,,,,,,,,,,,,,,,,,,,,,,,,,,,,,,609.62551992,609.6344272270001,610.6348770059999,611.6344213980001,611.6344213980001,611.6344213980001,612.336703038,left,0.6916116449999663,None,,,,,,,,,,,472923,001,2024-11-28_14h22.43.229,Test,2024.2.1,59.931970501111614,2024-11-28 14h22.54.022083 +0100,
39,150,0,14,None,53,53,0,True,,,,left,0.8564724469999874,None,,,,,,,,,,,,,0,53,53,53,612.3512340770001,,,,,,,,,,,,,,,,,,,,,,,,,,,,,,,,,,,,,,,,,,,,,,,,,,,,,,,,,,,,,,,,,,,,,,,,,,612.3422062,612.3512340770001,613.3514543460001,614.351450037,614.351450037,614.351450037,615.2210690469999,left,0.8564724469999874,None,,,,,,,,,,,472923,001,2024-11-28_14h22.43.229,Test,2024.2.1,59.931970501111614,2024-11-28 14h22.54.022083 +0100,
59,150,120,49,None,54,54,0,True,,,,left,0.6006025249998856,None,,,,,,,,,,,,,0,54,54,54,615.239418271,,,,,,,,,,,,,,,,,,,,,,,,,,,,,,,,,,,,,,,,,,,,,,,,,,,,,,,,,,,,,,,,,,,,,,,,,,615.2292843939999,615.239418271,616.2512329619999,617.235298927,617.235298927,617.235298927,617.853710566,left,0.6006025249998856,None,,,,,,,,,,,472923,001,2024-11-28_14h22.43.229,Test,2024.2.1,59.931970501111614,2024-11-28 14h22.54.022083 +0100,
16,150,90,35,None,55,55,0,False,,,,left,0.8843186110000261,None,,,,,,,,,,,,,0,55,55,55,617.8694467979999,,,,,,,,,,,,,,,,,,,,,,,,,,,,,,,,,,,,,,,,,,,,,,,,,,,,,,,,,,,,,,,,,,,,,,,,,,617.860658624,617.8694467979999,618.868238968,619.868392051,619.868392051,619.868392051,620.770431632,left,0.8843186110000261,None,,,,,,,,,,,472923,001,2024-11-28_14h22.43.229,Test,2024.2.1,59.931970501111614,2024-11-28 14h22.54.022083 +0100,
30,150,150,61,None,56,56,0,False,,,,right,0.9105925690000731,None,,,,,,,,,,,,,0,56,56,56,620.785751615,,,,,,,,,,,,,,,,,,,,,,,,,,,,,,,,,,,,,,,,,,,,,,,,,,,,,,,,,,,,,,,,,,,,,,,,,,620.7763303849999,620.785751615,621.7849170069999,622.7853740999999,622.7853740999999,622.7853740999999,623.703976242,right,0.9105925690000731,None,,,,,,,,,,,472923,001,2024-11-28_14h22.43.229,Test,2024.2.1,59.931970501111614,2024-11-28 14h22.54.022083 +0100,
35,150,180,23,None,57,57,0,False,,,,right,0.9450115009999536,None,,,,,,,,,,,,,0,57,57,57,623.723921175,,,,,,,,,,,,,,,,,,,,,,,,,,,,,,,,,,,,,,,,,,,,,,,,,,,,,,,,,,,,,,,,,,,,,,,,,,623.716076593,623.723921175,624.7355880749999,625.7190201149999,625.7190201149999,625.7190201149999,626.6708244629999,right,0.9450115009999536,None,,,,,,,,,,,472923,001,2024-11-28_14h22.43.229,Test,2024.2.1,59.931970501111614,2024-11-28 14h22.54.022083 +0100,
14,150,60,34,None,58,58,0,False,,,,left,1.1346578169998338,None,,,,,,,,,,,,,0,58,58,58,626.68598208,,,,,,,,,,,,,,,,,,,,,,,,,,,,,,,,,,,,,,,,,,,,,,,,,,,,,,,,,,,,,,,,,,,,,,,,,,626.676789463,626.68598208,627.6853026869999,628.6854928959999,628.6854928959999,628.6854928959999,629.8383619399999,left,1.1346578169998338,None,,,,,,,,,,,472923,001,2024-11-28_14h22.43.229,Test,2024.2.1,59.931970501111614,2024-11-28 14h22.54.022083 +0100,
3,150,0,68,None,59,59,0,False,,,,left,0.7080883359999461,None,,,,,,,,,,,,,0,59,59,59,629.852266207,,,,,,,,,,,,,,,,,,,,,,,,,,,,,,,,,,,,,,,,,,,,,,,,,,,,,,,,,,,,,,,,,,,,,,,,,,629.843449622,629.852266207,630.852392048,631.8523604269999,631.8523604269999,631.8523604269999,632.57140869,left,0.7080883359999461,None,,,,,,,,,,,472923,001,2024-11-28_14h22.43.229,Test,2024.2.1,59.931970501111614,2024-11-28 14h22.54.022083 +0100,
60,150,120,50,None,60,60,0,True,,,,left,1.0179576539999289,None,,,,,,,,,,,,,0,60,60,60,632.601199208,,,,,,,,,,,,,,,,,,,,,,,,,,,,,,,,,,,,,,,,,,,,,,,,,,,,,,,,,,,,,,,,,,,,,,,,,,632.5772673249999,632.601199208,633.602734288,634.5865122099999,634.5865122099999,634.5865122099999,635.622164294,left,1.0179576539999289,None,,,,,,,,,,,472923,001,2024-11-28_14h22.43.229,Test,2024.2.1,59.931970501111614,2024-11-28 14h22.54.022083 +0100,
54,150,90,66,None,61,61,0,True,,,,left,0.7012287479999486,None,,,,,,,,,,,,,0,61,61,61,635.6386540179999,,,,,,,,,,,,,,,,,,,,,,,,,,,,,,,,,,,,,,,,,,,,,,,,,,,,,,,,,,,,,,,,,,,,,,,,,,635.6295773879999,635.6386540179999,636.65279863,637.636214675,637.636214675,637.636214675,638.354841656,left,0.7012287479999486,None,,,,,,,,,,,472923,001,2024-11-28_14h22.43.229,Test,2024.2.1,59.931970501111614,2024-11-28 14h22.54.022083 +0100,
12,150,60,45,None,62,62,0,False,,,,left,0.664366790000031,None,,,,,,,,,,,,,0,62,62,62,638.3697399590001,,,,,,,,,,,,,,,,,,,,,,,,,,,,,,,,,,,,,,,,,,,,,,,,,,,,,,,,,,,,,,,,,,,,,,,,,,638.3609679250001,638.3697399590001,639.370314836,640.3702261839999,640.3702261839999,640.3702261839999,641.0392899809999,left,0.664366790000031,None,,,,,,,,,,,472923,001,2024-11-28_14h22.43.229,Test,2024.2.1,59.931970501111614,2024-11-28 14h22.54.022083 +0100,
5,150,0,64,None,63,63,0,False,,,,left,1.3057546869999896,None,,,,,,,,,,,,,0,63,63,63,641.053594987,,,,,,,,,,,,,,,,,,,,,,,,,,,,,,,,,,,,,,,,,,,,,,,,,,,,,,,,,,,,,,,,,,,,,,,,,,641.044624488,641.053594987,642.053634742,643.0532798290001,643.0532798290001,643.0532798290001,644.372352825,left,1.3057546869999896,None,,,,,,,,,,,472923,001,2024-11-28_14h22.43.229,Test,2024.2.1,59.931970501111614,2024-11-28 14h22.54.022083 +0100,
26,150,150,17,None,64,64,0,False,,,,right,0.7597705569999107,None,,,,,,,,,,,,,0,64,64,64,644.3893490379999,,,,,,,,,,,,,,,,,,,,,,,,,,,,,,,,,,,,,,,,,,,,,,,,,,,,,,,,,,,,,,,,,,,,,,,,,,644.3799459479999,644.3893490379999,645.4036128979999,646.3870950190001,646.3870950190001,646.3870950190001,647.1567817069999,right,0.7597705569999107,None,,,,,,,,,,,472923,001,2024-11-28_14h22.43.229,Test,2024.2.1,59.931970501111614,2024-11-28 14h22.54.022083 +0100,
31,150,180,59,None,65,65,0,False,,,,left,0.8453283450000981,None,,,,,,,,,,,,,0,65,65,65,647.171609858,,,,,,,,,,,,,,,,,,,,,,,,,,,,,,,,,,,,,,,,,,,,,,,,,,,,,,,,,,,,,,,,,,,,,,,,,,647.162798823,647.171609858,648.186953117,649.1702793699999,649.1702793699999,649.1702793699999,650.023374374,left,0.8453283450000981,None,,,,,,,,,,,472923,001,2024-11-28_14h22.43.229,Test,2024.2.1,59.931970501111614,2024-11-28 14h22.54.022083 +0100,
47,150,60,11,None,66,66,0,True,,,,left,2.018510491000143,None,,,,,,,,,,,,,0,66,66,66,650.0413013549999,,,,,,,,,,,,,,,,,,,,,,,,,,,,,,,,,,,,,,,,,,,,,,,,,,,,,,,,,,,,,,,,,,,,,,,,,,650.032326542,650.0413013549999,651.0538276499999,652.0369907209999,652.0369907209999,652.0369907209999,654.0736224289999,left,2.018510491000143,None,,,,,,,,,,,472923,001,2024-11-28_14h22.43.229,Test,2024.2.1,59.931970501111614,2024-11-28 14h22.54.022083 +0100,
61,150,150,10,None,67,67,0,True,,,,left,1.0014918780000244,None,,,,,,,,,,,,,0,67,67,67,654.0933760129999,,,,,,,,,,,,,,,,,,,,,,,,,,,,,,,,,,,,,,,,,,,,,,,,,,,,,,,,,,,,,,,,,,,,,,,,,,654.08360913,654.0933760129999,655.104076843,656.087648186,656.087648186,656.087648186,657.1053810000001,left,1.0014918780000244,None,,,,,,,,,,,472923,001,2024-11-28_14h22.43.229,Test,2024.2.1,59.931970501111614,2024-11-28 14h22.54.022083 +0100,
22,150,120,7,None,68,68,0,False,,,,right,1.1044464880001215,None,,,,,,,,,,,,,0,68,68,68,657.1210211370001,,,,,,,,,,,,,,,,,,,,,,,,,,,,,,,,,,,,,,,,,,,,,,,,,,,,,,,,,,,,,,,,,,,,,,,,,,657.112110238,657.1210211370001,658.1209835669999,659.1043801139999,659.1043801139999,659.1043801139999,660.2233146169999,right,1.1044464880001215,None,,,,,,,,,,,472923,001,2024-11-28_14h22.43.229,Test,2024.2.1,59.931970501111614,2024-11-28 14h22.54.022083 +0100,
51,150,90,36,None,69,69,0,True,,,,left,1.1534713779999493,None,,,,,,,,,,,,,0,69,69,69,660.2381006969999,,,,,,,,,,,,,,,,,,,,,,,,,,,,,,,,,,,,,,,,,,,,,,,,,,,,,,,,,,,,,,,,,,,,,,,,,,660.229001141,660.2381006969999,661.238282025,662.2382045489999,662.2382045489999,662.2382045489999,663.4072453619999,left,1.1534713779999493,None,,,,,,,,,,,472923,001,2024-11-28_14h22.43.229,Test,2024.2.1,59.931970501111614,2024-11-28 14h22.54.022083 +0100,
,,,,,,,,,,,,,,,,,,,,,,,,,,,,,,,,,,,,,,,,,,,,,,,,,,,,,,,,,,,,,,,,,,,,,,,,,,,,,,,,,,,,,,,,,,,,,,,,,,,,,,,,,,,,,,,,,,,,,,663.4075995430001,663.4216946399999,663.4216946399999,665.1737555259999,space,1.7446550829999978,None,472923,001,2024-11-28_14h22.43.229,Test,2024.2.1,59.931970501111614,2024-11-28 14h22.54.022083 +0100,
