Trial_Number,Exposure_Duration,Displacement_Angle,Stimulus,Response,thisN,thisTrialN,thisRepN,Is_Distractor,key_resp_3.keys,key_resp_3.rt,key_resp_3.duration,key_resp_7.keys,key_resp_7.rt,key_resp_7.duration,trials.thisRepN,trials.thisTrialN,trials.thisN,trials.thisIndex,trials_2.thisRepN,trials_2.thisTrialN,trials_2.thisN,trials_2.thisIndex,trials_3.thisRepN,trials_3.thisTrialN,trials_3.thisN,trials_3.thisIndex,trials_4.thisRepN,trials_4.thisTrialN,trials_4.thisN,trials_4.thisIndex,thisRow.t,notes,Intro_to_experiment.started,important1_2.started,key_resp_8.started,Intro_to_experiment.stopped,key_resp_8.keys,key_resp_8.rt,key_resp_8.duration,important.started,important1.started,key_resp_4.started,important.stopped,key_resp_4.keys,key_resp_4.rt,key_resp_4.duration,training_instruction.started,key_resp_9.started,important1_3.started,training_instruction.stopped,key_resp_9.keys,key_resp_9.rt,key_resp_9.duration,training_trial.started,cross.started,image.started,aperture.started,cross.stopped,image.stopped,aperture.stopped,training_trial.stopped,New_instruction.started,text.started,key_resp_2.started,New_instruction.stopped,key_resp_2.keys,key_resp_2.rt,key_resp_2.duration,test_trial.started,cross2.started,cross2.stopped,image_2.started,key_resp_3.started,aperture_2.started,test_trial.stopped,trials_2.key_resp_3.keys,trials_2.key_resp_3.rt,trials_2.key_resp_3.duration,image_2.stopped,aperture_2.stopped,text_3.started,start_blok_2.started,key_resp_5.started,text_4.started,start_blok_2.stopped,key_resp_5.keys,key_resp_5.rt,key_resp_5.duration,training_2.started,cross_2.started,image_3.started,aperture_3.started,cross_2.stopped,image_3.stopped,aperture_3.stopped,training_2.stopped,nyeste_instruks.started,text_5.started,key_resp_6.started,nyeste_instruks.stopped,key_resp_6.keys,key_resp_6.rt,key_resp_6.duration,test_2.started,cross2_2.started,cross2_2.stopped,image_4.started,key_resp_7.started,aperture_4.started,test_2.stopped,trials_4.key_resp_7.keys,trials_4.key_resp_7.rt,trials_4.key_resp_7.duration,Instruction.started,Instruktion.started,key_resp.started,Instruction.stopped,key_resp.keys,key_resp.rt,key_resp.duration,participant,session,date,expName,psychopyVersion,frameRate,expStart,
,,,,,,,,,,,,,,,,,,,,,,,,,,,,,,,,,0.01686929102288559,0.030390666041057557,0.030390666041057557,64.22278645803453,space,64.18958887498593,None,,,,,,,,,,,,,,,,,,,,,,,,,,,,,,,,,,,,,,,,,,,,,,,,,,,,,,,,,,,,,,,,,,,,,,,,,,,,,,,,,,476431,001,2024-12-05_12h10.13.709,Test,2024.2.4,None,2024-12-05 12h10.24.801640 +0100,
,,,,,,,,,,,,,,,,,,,,,,,,,,,,,,,,,,,,,,,,64.22305275005056,64.25125354103511,64.25125354103511,77.36727079103002,space,13.109175833000336,None,,,,,,,,,,,,,,,,,,,,,,,,,,,,,,,,,,,,,,,,,,,,,,,,,,,,,,,,,,,,,,,,,,,,,,,,,,,476431,001,2024-12-05_12h10.13.709,Test,2024.2.4,None,2024-12-05 12h10.24.801640 +0100,
,,,,,,,,,,,,,,,,,,,,,,,,,,,,,,,,,,,,,,,,,,,,,,,77.36737958301092,77.37982075003674,77.37982075003674,85.90224225004204,space,8.519642665982246,None,,,,,,,,,,,,,,,,,,,,,,,,,,,,,,,,,,,,,,,,,,,,,,,,,,,,,,,,,,,,,,,,,,,,476431,001,2024-12-05_12h10.13.709,Test,2024.2.4,None,2024-12-05 12h10.24.801640 +0100,
2,150,0,52,None,0,0,0,,,,,,,,0,0,0,1,,,,,,,,,,,,,85.96156620804686,,,,,,,,,,,,,,,,,,,,,,,85.9538999160286,85.96156620804686,86.10401566600194,86.10401566600194,86.1518310829997,87.80604850000236,87.80604850000236,87.78962429100648,,,,,,,,,,,,,,,,,,,,,,,,,,,,,,,,,,,,,,,,,,,,,,,,,,,,,,,,,,,,476431,001,2024-12-05_12h10.13.709,Test,2024.2.4,None,2024-12-05 12h10.24.801640 +0100,
19,150,90,49,None,1,1,0,,,,,,,,0,1,1,18,,,,,,,,,,,,,87.80604850000236,,,,,,,,,,,,,,,,,,,,,,,87.8015050830436,87.80604850000236,87.99856516602449,87.99856516602449,88.00483154103858,89.70861412503291,89.70861412503291,89.68253558303695,,,,,,,,,,,,,,,,,,,,,,,,,,,,,,,,,,,,,,,,,,,,,,,,,,,,,,,,,,,,476431,001,2024-12-05_12h10.13.709,Test,2024.2.4,None,2024-12-05 12h10.24.801640 +0100,
8,150,30,34,None,2,2,0,,,,,,,,0,2,2,7,,,,,,,,,,,,,89.70861412503291,,,,,,,,,,,,,,,,,,,,,,,89.7037639580085,89.70861412503291,89.89718245802214,89.89718245802214,89.90111825003987,91.59785350004677,91.59785350004677,91.58273087500129,,,,,,,,,,,,,,,,,,,,,,,,,,,,,,,,,,,,,,,,,,,,,,,,,,,,,,,,,,,,476431,001,2024-12-05_12h10.13.709,Test,2024.2.4,None,2024-12-05 12h10.24.801640 +0100,
22,150,120,10,None,3,3,0,,,,,,,,0,3,3,21,,,,,,,,,,,,,91.59785350004677,,,,,,,,,,,,,,,,,,,,,,,91.59347291605081,91.60162425000453,91.79856941604521,91.79856941604521,91.79856941604521,93.49805712501984,93.49805712501984,93.48273112502648,,,,,,,,,,,,,,,,,,,,,,,,,,,,,,,,,,,,,,,,,,,,,,,,,,,,,,,,,,,,476431,001,2024-12-05_12h10.13.709,Test,2024.2.4,None,2024-12-05 12h10.24.801640 +0100,
26,150,150,70,None,4,4,0,,,,,,,,0,4,4,25,,,,,,,,,,,,,93.49805712501984,,,,,,,,,,,,,,,,,,,,,,,93.49309070804156,93.50205145805376,93.6986115410109,93.6986115410109,93.6986115410109,95.39835320803104,95.39835320803104,95.38314445805736,,,,,,,,,,,,,,,,,,,,,,,,,,,,,,,,,,,,,,,,,,,,,,,,,,,,,,,,,,,,476431,001,2024-12-05_12h10.13.709,Test,2024.2.4,None,2024-12-05 12h10.24.801640 +0100,
29,150,150,17,None,5,5,0,,,,,,,,0,5,5,28,,,,,,,,,,,,,95.39835320803104,,,,,,,,,,,,,,,,,,,,,,,95.39298891602084,95.40247620805167,95.5985421250225,95.5985421250225,95.5985421250225,97.29762537503848,97.29762537503848,97.28273883304792,,,,,,,,,,,,,,,,,,,,,,,,,,,,,,,,,,,,,,,,,,,,,,,,,,,,,,,,,,,,476431,001,2024-12-05_12h10.13.709,Test,2024.2.4,None,2024-12-05 12h10.24.801640 +0100,
17,150,90,56,None,6,6,0,,,,,,,,0,6,6,16,,,,,,,,,,,,,97.29762537503848,,,,,,,,,,,,,,,,,,,,,,,97.29270079103298,97.30185304104816,97.49855616601417,97.49855616601417,97.49855616601417,99.1966576660052,99.1966576660052,99.18252525001299,,,,,,,,,,,,,,,,,,,,,,,,,,,,,,,,,,,,,,,,,,,,,,,,,,,,,,,,,,,,476431,001,2024-12-05_12h10.13.709,Test,2024.2.4,None,2024-12-05 12h10.24.801640 +0100,
31,150,180,54,None,7,7,0,,,,,,,,0,7,7,30,,,,,,,,,,,,,99.1966576660052,,,,,,,,,,,,,,,,,,,,,,,99.19164870801615,99.20054091600468,99.39838808303466,99.39838808303466,99.39838808303466,101.09748066600878,101.09748066600878,101.08272141602356,,,,,,,,,,,,,,,,,,,,,,,,,,,,,,,,,,,,,,,,,,,,,,,,,,,,,,,,,,,,476431,001,2024-12-05_12h10.13.709,Test,2024.2.4,None,2024-12-05 12h10.24.801640 +0100,
23,150,120,36,None,8,8,0,,,,,,,,0,8,8,22,,,,,,,,,,,,,101.09748066600878,,,,,,,,,,,,,,,,,,,,,,,101.09272137505468,101.1014529580134,101.29772458301159,101.29772458301159,101.29772458301159,102.99693925003521,102.99693925003521,102.98260212503374,,,,,,,,,,,,,,,,,,,,,,,,,,,,,,,,,,,,,,,,,,,,,,,,,,,,,,,,,,,,476431,001,2024-12-05_12h10.13.709,Test,2024.2.4,None,2024-12-05 12h10.24.801640 +0100,
9,150,30,48,None,9,9,0,,,,,,,,0,9,9,8,,,,,,,,,,,,,102.99693925003521,,,,,,,,,,,,,,,,,,,,,,,102.99260550003964,103.00082404102432,103.1986922500073,103.1986922500073,103.1986922500073,104.90077550004935,104.90077550004935,104.88285008305684,,,,,,,,,,,,,,,,,,,,,,,,,,,,,,,,,,,,,,,,,,,,,,,,,,,,,,,,,,,,476431,001,2024-12-05_12h10.13.709,Test,2024.2.4,None,2024-12-05 12h10.24.801640 +0100,
12,150,60,30,None,10,10,0,,,,,,,,0,10,10,11,,,,,,,,,,,,,104.90077550004935,,,,,,,,,,,,,,,,,,,,,,,104.89386937505333,104.91523166600382,105.0982684160117,105.0982684160117,105.10367804102134,106.79790470801527,106.79790470801527,106.78277500002878,,,,,,,,,,,,,,,,,,,,,,,,,,,,,,,,,,,,,,,,,,,,,,,,,,,,,,,,,,,,476431,001,2024-12-05_12h10.13.709,Test,2024.2.4,None,2024-12-05 12h10.24.801640 +0100,
16,150,90,7,None,11,11,0,,,,,,,,0,11,11,15,,,,,,,,,,,,,106.79790470801527,,,,,,,,,,,,,,,,,,,,,,,106.79373429104453,106.80156525003258,106.99858733301517,106.99858733301517,106.99858733301517,108.69650545803597,108.69650545803597,108.68293650000123,,,,,,,,,,,,,,,,,,,,,,,,,,,,,,,,,,,,,,,,,,,,,,,,,,,,,,,,,,,,476431,001,2024-12-05_12h10.13.709,Test,2024.2.4,None,2024-12-05 12h10.24.801640 +0100,
33,150,180,4,None,12,12,0,,,,,,,,0,12,12,32,,,,,,,,,,,,,108.69650545803597,,,,,,,,,,,,,,,,,,,,,,,108.6914021660341,108.70053158304654,108.8987821660121,108.8987821660121,108.8987821660121,110.59722587501165,110.59722587501165,110.58295941603137,,,,,,,,,,,,,,,,,,,,,,,,,,,,,,,,,,,,,,,,,,,,,,,,,,,,,,,,,,,,476431,001,2024-12-05_12h10.13.709,Test,2024.2.4,None,2024-12-05 12h10.24.801640 +0100,
21,150,120,21,None,13,13,0,,,,,,,,0,13,13,20,,,,,,,,,,,,,110.59722587501165,,,,,,,,,,,,,,,,,,,,,,,110.59232662501745,110.60118800000055,110.79873583302833,110.79873583302833,110.79873583302833,112.49640716600697,112.49640716600697,112.48273991601309,,,,,,,,,,,,,,,,,,,,,,,,,,,,,,,,,,,,,,,,,,,,,,,,,,,,,,,,,,,,476431,001,2024-12-05_12h10.13.709,Test,2024.2.4,None,2024-12-05 12h10.24.801640 +0100,
11,150,60,23,None,14,14,0,,,,,,,,0,14,14,10,,,,,,,,,,,,,112.49640716600697,,,,,,,,,,,,,,,,,,,,,,,112.4914162910427,112.50033866602462,112.69864166603656,112.69864166603656,112.69864166603656,114.39960795803927,114.39960795803927,114.38311854103813,,,,,,,,,,,,,,,,,,,,,,,,,,,,,,,,,,,,,,,,,,,,,,,,,,,,,,,,,,,,476431,001,2024-12-05_12h10.13.709,Test,2024.2.4,None,2024-12-05 12h10.24.801640 +0100,
27,150,150,65,None,15,15,0,,,,,,,,0,15,15,26,,,,,,,,,,,,,114.39960795803927,,,,,,,,,,,,,,,,,,,,,,,114.39459987502778,114.41515095805516,114.5985087500303,114.5985087500303,114.60453325003618,116.29769841604866,116.29769841604866,116.28286954102805,,,,,,,,,,,,,,,,,,,,,,,,,,,,,,,,,,,,,,,,,,,,,,,,,,,,,,,,,,,,476431,001,2024-12-05_12h10.13.709,Test,2024.2.4,None,2024-12-05 12h10.24.801640 +0100,
10,150,30,53,None,16,16,0,,,,,,,,0,16,16,9,,,,,,,,,,,,,116.29769841604866,,,,,,,,,,,,,,,,,,,,,,,116.29268795804819,116.30162404105067,116.49852825002745,116.49852825002745,116.49852825002745,118.19712291605538,118.19712291605538,118.182882291032,,,,,,,,,,,,,,,,,,,,,,,,,,,,,,,,,,,,,,,,,,,,,,,,,,,,,,,,,,,,476431,001,2024-12-05_12h10.13.709,Test,2024.2.4,None,2024-12-05 12h10.24.801640 +0100,
7,150,30,33,None,17,17,0,,,,,,,,0,17,17,6,,,,,,,,,,,,,118.19712291605538,,,,,,,,,,,,,,,,,,,,,,,118.19218575005652,118.2019568750402,118.39860975003103,118.39860975003103,118.39860975003103,120.09784141601995,120.09784141601995,120.08278479101136,,,,,,,,,,,,,,,,,,,,,,,,,,,,,,,,,,,,,,,,,,,,,,,,,,,,,,,,,,,,476431,001,2024-12-05_12h10.13.709,Test,2024.2.4,None,2024-12-05 12h10.24.801640 +0100,
4,150,0,18,None,18,18,0,,,,,,,,0,18,18,3,,,,,,,,,,,,,120.09784141601995,,,,,,,,,,,,,,,,,,,,,,,120.09278741601156,120.1017915000557,120.29856216604821,120.29856216604821,120.29856216604821,121.99790495802881,121.99790495802881,121.98323841602542,,,,,,,,,,,,,,,,,,,,,,,,,,,,,,,,,,,,,,,,,,,,,,,,,,,,,,,,,,,,476431,001,2024-12-05_12h10.13.709,Test,2024.2.4,None,2024-12-05 12h10.24.801640 +0100,
30,150,150,27,None,19,19,0,,,,,,,,0,19,19,29,,,,,,,,,,,,,121.99790495802881,,,,,,,,,,,,,,,,,,,,,,,121.99290941603249,122.00238733302103,122.1986439160537,122.1986439160537,122.1986439160537,123.89600133302156,123.89600133302156,123.88281404104782,,,,,,,,,,,,,,,,,,,,,,,,,,,,,,,,,,,,,,,,,,,,,,,,,,,,,,,,,,,,476431,001,2024-12-05_12h10.13.709,Test,2024.2.4,None,2024-12-05 12h10.24.801640 +0100,
6,150,30,22,None,20,20,0,,,,,,,,0,20,20,5,,,,,,,,,,,,,123.89600133302156,,,,,,,,,,,,,,,,,,,,,,,123.89104766602395,123.90002566605108,124.09851558302762,124.09851558302762,124.09851558302762,125.79531229101121,125.79531229101121,125.78246416605543,,,,,,,,,,,,,,,,,,,,,,,,,,,,,,,,,,,,,,,,,,,,,,,,,,,,,,,,,,,,476431,001,2024-12-05_12h10.13.709,Test,2024.2.4,None,2024-12-05 12h10.24.801640 +0100,
3,150,0,26,None,21,21,0,,,,,,,,0,21,21,2,,,,,,,,,,,,,125.79531229101121,,,,,,,,,,,,,,,,,,,,,,,125.79113716603024,125.79925962502602,125.9985884160269,125.9985884160269,125.98613158304943,127.69889929104829,127.69889929104829,127.68281041603768,,,,,,,,,,,,,,,,,,,,,,,,,,,,,,,,,,,,,,,,,,,,,,,,,,,,,,,,,,,,476431,001,2024-12-05_12h10.13.709,Test,2024.2.4,None,2024-12-05 12h10.24.801640 +0100,
28,150,150,61,None,22,22,0,,,,,,,,0,22,22,27,,,,,,,,,,,,,127.69889929104829,,,,,,,,,,,,,,,,,,,,,,,127.6939540830208,127.71509908302687,127.89844754105434,127.89844754105434,127.90470650000498,129.59761166601675,129.59761166601675,129.58281562500633,,,,,,,,,,,,,,,,,,,,,,,,,,,,,,,,,,,,,,,,,,,,,,,,,,,,,,,,,,,,476431,001,2024-12-05_12h10.13.709,Test,2024.2.4,None,2024-12-05 12h10.24.801640 +0100,
34,150,180,63,None,23,23,0,,,,,,,,0,23,23,33,,,,,,,,,,,,,129.59761166601675,,,,,,,,,,,,,,,,,,,,,,,129.5927690830431,129.60184987500543,129.79854366602376,129.79854366602376,129.79854366602376,131.49792312504724,131.49792312504724,131.48278495803243,,,,,,,,,,,,,,,,,,,,,,,,,,,,,,,,,,,,,,,,,,,,,,,,,,,,,,,,,,,,476431,001,2024-12-05_12h10.13.709,Test,2024.2.4,None,2024-12-05 12h10.24.801640 +0100,
25,150,120,2,None,24,24,0,,,,,,,,0,24,24,24,,,,,,,,,,,,,131.49792312504724,,,,,,,,,,,,,,,,,,,,,,,131.49294116604142,131.50204420805676,131.69857395801228,131.69857395801228,131.69857395801228,133.39735262503382,133.39735262503382,133.38280320802005,,,,,,,,,,,,,,,,,,,,,,,,,,,,,,,,,,,,,,,,,,,,,,,,,,,,,,,,,,,,476431,001,2024-12-05_12h10.13.709,Test,2024.2.4,None,2024-12-05 12h10.24.801640 +0100,
15,150,60,13,None,25,25,0,,,,,,,,0,25,25,14,,,,,,,,,,,,,133.39735262503382,,,,,,,,,,,,,,,,,,,,,,,133.39272025000537,133.4014685410075,133.5984642910189,133.5984642910189,133.5984642910189,135.29758295801003,135.29758295801003,135.28268204105552,,,,,,,,,,,,,,,,,,,,,,,,,,,,,,,,,,,,,,,,,,,,,,,,,,,,,,,,,,,,476431,001,2024-12-05_12h10.13.709,Test,2024.2.4,None,2024-12-05 12h10.24.801640 +0100,
24,150,120,32,None,26,26,0,,,,,,,,0,26,26,23,,,,,,,,,,,,,135.29758295801003,,,,,,,,,,,,,,,,,,,,,,,135.2926050000242,135.3015776660177,135.49840595800197,135.49840595800197,135.49840595800197,137.19684741605306,137.19684741605306,137.1828583330498,,,,,,,,,,,,,,,,,,,,,,,,,,,,,,,,,,,,,,,,,,,,,,,,,,,,,,,,,,,,476431,001,2024-12-05_12h10.13.709,Test,2024.2.4,None,2024-12-05 12h10.24.801640 +0100,
32,150,180,50,None,27,27,0,,,,,,,,0,27,27,31,,,,,,,,,,,,,137.19684741605306,,,,,,,,,,,,,,,,,,,,,,,137.19174520805245,137.20178187504644,137.39837816602085,137.39837816602085,137.39837816602085,139.0976079160464,139.0976079160464,139.08266695804195,,,,,,,,,,,,,,,,,,,,,,,,,,,,,,,,,,,,,,,,,,,,,,,,,,,,,,,,,,,,476431,001,2024-12-05_12h10.13.709,Test,2024.2.4,None,2024-12-05 12h10.24.801640 +0100,
14,150,60,41,None,28,28,0,,,,,,,,0,28,28,13,,,,,,,,,,,,,139.0976079160464,,,,,,,,,,,,,,,,,,,,,,,139.09258983301697,139.10181020805612,139.2985311250086,139.2985311250086,139.2985311250086,140.99682495801244,140.99682495801244,140.98249870800646,,,,,,,,,,,,,,,,,,,,,,,,,,,,,,,,,,,,,,,,,,,,,,,,,,,,,,,,,,,,476431,001,2024-12-05_12h10.13.709,Test,2024.2.4,None,2024-12-05 12h10.24.801640 +0100,
18,150,90,16,None,29,29,0,,,,,,,,0,29,29,17,,,,,,,,,,,,,140.99682495801244,,,,,,,,,,,,,,,,,,,,,,,140.99175758304773,141.00094520801213,141.1985998750315,141.1985998750315,141.1985998750315,142.89827758300817,142.89827758300817,142.88292625005124,,,,,,,,,,,,,,,,,,,,,,,,,,,,,,,,,,,,,,,,,,,,,,,,,,,,,,,,,,,,476431,001,2024-12-05_12h10.13.709,Test,2024.2.4,None,2024-12-05 12h10.24.801640 +0100,
13,150,60,44,None,30,30,0,,,,,,,,0,30,30,12,,,,,,,,,,,,,142.89827758300817,,,,,,,,,,,,,,,,,,,,,,,142.8928049580427,142.90250125003513,143.09849341603694,143.09849341603694,143.09849341603694,144.79725604102714,144.79725604102714,144.782818666019,,,,,,,,,,,,,,,,,,,,,,,,,,,,,,,,,,,,,,,,,,,,,,,,,,,,,,,,,,,,476431,001,2024-12-05_12h10.13.709,Test,2024.2.4,None,2024-12-05 12h10.24.801640 +0100,
5,150,0,11,None,31,31,0,,,,,,,,0,31,31,4,,,,,,,,,,,,,144.79725604102714,,,,,,,,,,,,,,,,,,,,,,,144.79177195800003,144.80207237502327,144.99855000001844,144.99855000001844,144.99855000001844,146.69641841604607,146.69641841604607,146.6824810000253,,,,,,,,,,,,,,,,,,,,,,,,,,,,,,,,,,,,,,,,,,,,,,,,,,,,,,,,,,,,476431,001,2024-12-05_12h10.13.709,Test,2024.2.4,None,2024-12-05 12h10.24.801640 +0100,
20,150,90,24,None,32,32,0,,,,,,,,0,32,32,19,,,,,,,,,,,,,146.69641841604607,,,,,,,,,,,,,,,,,,,,,,,146.69133195804898,146.70116262504598,146.89868941600434,146.89868941600434,146.89868941600434,148.59692258300493,148.59692258300493,148.58293545804918,,,,,,,,,,,,,,,,,,,,,,,,,,,,,,,,,,,,,,,,,,,,,,,,,,,,,,,,,,,,476431,001,2024-12-05_12h10.13.709,Test,2024.2.4,None,2024-12-05 12h10.24.801640 +0100,
1,150,0,42,None,33,33,0,,,,,,,,0,33,33,0,,,,,,,,,,,,,148.59692258300493,,,,,,,,,,,,,,,,,,,,,,,148.59194341604598,148.60079550003866,148.79849962500157,148.79849962500157,148.79849962500157,150.49749054101994,150.49749054101994,150.4828772500041,,,,,,,,,,,,,,,,,,,,,,,,,,,,,,,,,,,,,,,,,,,,,,,,,,,,,,,,,,,,476431,001,2024-12-05_12h10.13.709,Test,2024.2.4,None,2024-12-05 12h10.24.801640 +0100,
35,150,180,8,None,34,34,0,,,,,,,,0,34,34,34,,,,,,,,,,,,,150.49749054101994,,,,,,,,,,,,,,,,,,,,,,,150.49234600004274,150.50239583302755,150.69845495803747,150.69845495803747,150.69845495803747,152.38842875004048,152.38842875004048,152.38282212504419,,,,,,,,,,,,,,,,,,,,,,,,,,,,,,,,,,,,,,,,,,,,,,,,,,,,,,,,,,,,476431,001,2024-12-05_12h10.13.709,Test,2024.2.4,None,2024-12-05 12h10.24.801640 +0100,
,,,,,,,,,,,,,,,,,,,,,,,,,,,,,,,,,,,,,,,,,,,,,,,,,,,,,,,,,,,,,,152.38315004104516,152.39733962505125,152.39733962505125,161.70774708304089,space,9.302015833964106,None,,,,,,,,,,,,,,,,,,,,,,,,,,,,,,,,,,,,,,,,,,,,,,,,,,,,,476431,001,2024-12-05_12h10.13.709,Test,2024.2.4,None,2024-12-05 12h10.24.801640 +0100,
45,150,30,60,None,0,0,0,True,left,1.4365032910136506,None,,,,,,,,0,0,0,0,,,,,,,,,161.74956050002947,,,,,,,,,,,,,,,,,,,,,,,,,,,,,,,,,,,,,,161.73957712500123,161.74956050002947,162.74840437504463,163.70572008303134,163.70572008303134,163.70572008303134,165.15103025001008,left,1.4365032910136506,None,,,,,,,,,,,,,,,,,,,,,,,,,,,,,,,,,,,,,,,,,,,476431,001,2024-12-05_12h10.13.709,Test,2024.2.4,None,2024-12-05 12h10.24.801640 +0100,
7,150,30,33,None,1,1,0,False,right,0.8851500829914585,None,,,,,,,,0,1,1,1,,,,,,,,,165.2531304580043,,,,,,,,,,,,,,,,,,,,,,,,,,,,,,,,,,,,,,165.1609705000301,165.2531304580043,166.2485177910421,167.14858750003623,167.14858750003623,167.14858750003623,168.04068195802392,right,0.8851500829914585,None,,,,,,,,,,,,,,,,,,,,,,,,,,,,,,,,,,,,,,,,,,,476431,001,2024-12-05_12h10.13.709,Test,2024.2.4,None,2024-12-05 12h10.24.801640 +0100,
60,150,120,64,None,2,2,0,True,left,1.1650655000121333,None,,,,,,,,0,2,2,2,,,,,,,,,168.0565303330077,,,,,,,,,,,,,,,,,,,,,,,,,,,,,,,,,,,,,,168.04974816605682,168.0565303330077,169.0537157910294,170.03936354100006,170.03936354100006,170.03936354100006,171.20725925004808,left,1.1650655000121333,None,,,,,,,,,,,,,,,,,,,,,,,,,,,,,,,,,,,,,,,,,,,476431,001,2024-12-05_12h10.13.709,Test,2024.2.4,None,2024-12-05 12h10.24.801640 +0100,
63,150,150,37,None,3,3,0,True,right,1.4663438339484856,None,,,,,,,,0,3,3,3,,,,,,,,,171.22409770800732,,,,,,,,,,,,,,,,,,,,,,,,,,,,,,,,,,,,,,171.21705079101957,171.22409770800732,172.2203962910571,173.20574312505778,173.20574312505778,173.20574312505778,174.68297445803182,right,1.4663438339484856,None,,,,,,,,,,,,,,,,,,,,,,,,,,,,,,,,,,,,,,,,,,,476431,001,2024-12-05_12h10.13.709,Test,2024.2.4,None,2024-12-05 12h10.24.801640 +0100,
18,150,90,16,None,4,4,0,False,left,1.4339124580146745,None,,,,,,,,0,4,4,4,,,,,,,,,174.69591891602613,,,,,,,,,,,,,,,,,,,,,,,,,,,,,,,,,,,,,,174.69134954101173,174.69591891602613,175.68717720801942,176.68184487504186,176.68184487504186,176.68184487504186,178.1269959580386,left,1.4339124580146745,None,,,,,,,,,,,,,,,,,,,,,,,,,,,,,,,,,,,,,,,,,,,476431,001,2024-12-05_12h10.13.709,Test,2024.2.4,None,2024-12-05 12h10.24.801640 +0100,
50,150,60,58,None,5,5,0,True,left,1.0775694999611005,None,,,,,,,,0,5,5,5,,,,,,,,,178.14019362500403,,,,,,,,,,,,,,,,,,,,,,,,,,,,,,,,,,,,,,178.13529804104473,178.14019362500403,179.13677308300976,180.12232554104412,180.12232554104412,180.12232554104412,181.20675695803948,left,1.0775694999611005,None,,,,,,,,,,,,,,,,,,,,,,,,,,,,,,,,,,,,,,,,,,,476431,001,2024-12-05_12h10.13.709,Test,2024.2.4,None,2024-12-05 12h10.24.801640 +0100,
24,150,120,32,None,6,6,0,False,right,1.3119377499679103,None,,,,,,,,0,6,6,6,,,,,,,,,181.2221982080373,,,,,,,,,,,,,,,,,,,,,,,,,,,,,,,,,,,,,,181.21565775002819,181.2221982080373,182.22007058304735,183.2053379160352,183.2053379160352,183.2053379160352,184.5237054580357,right,1.3119377499679103,None,,,,,,,,,,,,,,,,,,,,,,,,,,,,,,,,,,,,,,,,,,,476431,001,2024-12-05_12h10.13.709,Test,2024.2.4,None,2024-12-05 12h10.24.801640 +0100,
3,150,0,26,None,7,7,0,False,left,0.9306646669865586,None,,,,,,,,0,7,7,7,,,,,,,,,184.53982062503928,,,,,,,,,,,,,,,,,,,,,,,,,,,,,,,,,,,,,,184.5329032910522,184.53982062503928,185.53660866600694,186.52365020802245,186.52365020802245,186.52365020802245,187.45708525000373,left,0.9306646669865586,None,,,,,,,,,,,,,,,,,,,,,,,,,,,,,,,,,,,,,,,,,,,476431,001,2024-12-05_12h10.13.709,Test,2024.2.4,None,2024-12-05 12h10.24.801640 +0100,
5,150,0,11,None,8,8,0,False,right,0.883019000000786,None,,,,,,,,0,8,8,8,,,,,,,,,187.47338437504368,,,,,,,,,,,,,,,,,,,,,,,,,,,,,,,,,,,,,,187.4666839580168,187.47338437504368,188.47005966602592,189.45586975000333,189.45586975000333,189.45586975000333,190.36585675005335,right,0.883019000000786,None,,,,,,,,,,,,,,,,,,,,,,,,,,,,,,,,,,,,,,,,,,,476431,001,2024-12-05_12h10.13.709,Test,2024.2.4,None,2024-12-05 12h10.24.801640 +0100,
44,150,30,39,None,9,9,0,True,left,1.0453002499998547,None,,,,,,,,0,9,9,9,,,,,,,,,190.38033683301182,,,,,,,,,,,,,,,,,,,,,,,,,,,,,,,,,,,,,,190.37477241602028,190.38033683301182,191.37057820800692,192.35841570800403,192.35841570800403,192.35841570800403,193.406984958041,left,1.0453002499998547,None,,,,,,,,,,,,,,,,,,,,,,,,,,,,,,,,,,,,,,,,,,,476431,001,2024-12-05_12h10.13.709,Test,2024.2.4,None,2024-12-05 12h10.24.801640 +0100,
22,150,120,10,None,10,10,0,False,right,1.027211874956265,None,,,,,,,,0,10,10,10,,,,,,,,,193.42259029101115,,,,,,,,,,,,,,,,,,,,,,,,,,,,,,,,,,,,,,193.41600562504027,193.42259029101115,194.4198844160419,195.40584220801247,195.40584220801247,195.40584220801247,196.43996566603892,right,1.027211874956265,None,,,,,,,,,,,,,,,,,,,,,,,,,,,,,,,,,,,,,,,,,,,476431,001,2024-12-05_12h10.13.709,Test,2024.2.4,None,2024-12-05 12h10.24.801640 +0100,
2,150,0,52,None,11,11,0,False,right,1.5778417499968782,None,,,,,,,,0,11,11,11,,,,,,,,,196.45587408303982,,,,,,,,,,,,,,,,,,,,,,,,,,,,,,,,,,,,,,196.44955466600368,196.45587408303982,197.45354304101784,198.43936291604768,198.43936291604768,198.43936291604768,200.02351275004912,right,1.5778417499968782,None,,,,,,,,,,,,,,,,,,,,,,,,,,,,,,,,,,,,,,,,,,,476431,001,2024-12-05_12h10.13.709,Test,2024.2.4,None,2024-12-05 12h10.24.801640 +0100,
36,150,0,55,None,12,12,0,True,left,1.4764573340071365,None,,,,,,,,0,12,12,12,,,,,,,,,200.04078262503026,,,,,,,,,,,,,,,,,,,,,,,,,,,,,,,,,,,,,,200.03338083304698,200.04078262503026,201.03648358304054,202.02245595800923,202.02245595800923,202.02245595800923,203.50118170800852,left,1.4764573340071365,None,,,,,,,,,,,,,,,,,,,,,,,,,,,,,,,,,,,,,,,,,,,476431,001,2024-12-05_12h10.13.709,Test,2024.2.4,None,2024-12-05 12h10.24.801640 +0100,
69,150,180,9,None,13,13,0,True,right,1.507800584018696,None,,,,,,,,0,13,13,13,,,,,,,,,203.5161885000416,,,,,,,,,,,,,,,,,,,,,,,,,,,,,,,,,,,,,,203.50974125001812,203.5161885000416,204.5152569160564,205.49849654105492,205.49849654105492,205.49849654105492,207.01759900001343,right,1.507800584018696,None,,,,,,,,,,,,,,,,,,,,,,,,,,,,,,,,,,,,,,,,,,,476431,001,2024-12-05_12h10.13.709,Test,2024.2.4,None,2024-12-05 12h10.24.801640 +0100,
43,150,30,12,None,14,14,0,True,left,0.8307162919663824,None,,,,,,,,0,14,14,14,,,,,,,,,207.03535425005248,,,,,,,,,,,,,,,,,,,,,,,,,,,,,,,,,,,,,,207.0286410000408,207.03535425005248,208.03208991599968,209.0151466250536,209.0151466250536,209.0151466250536,209.85015225003008,left,0.8307162919663824,None,,,,,,,,,,,,,,,,,,,,,,,,,,,,,,,,,,,,,,,,,,,476431,001,2024-12-05_12h10.13.709,Test,2024.2.4,None,2024-12-05 12h10.24.801640 +0100,
19,150,90,49,None,15,15,0,False,right,0.7414153749705292,None,,,,,,,,0,15,15,15,,,,,,,,,209.86302391602658,,,,,,,,,,,,,,,,,,,,,,,,,,,,,,,,,,,,,,209.85782683303114,209.86302391602658,210.8538733330206,211.84847554104635,211.84847554104635,211.84847554104635,212.60059600003297,right,0.7414153749705292,None,,,,,,,,,,,,,,,,,,,,,,,,,,,,,,,,,,,,,,,,,,,476431,001,2024-12-05_12h10.13.709,Test,2024.2.4,None,2024-12-05 12h10.24.801640 +0100,
13,150,60,44,None,16,16,0,False,right,0.7782783329603262,None,,,,,,,,0,16,16,16,,,,,,,,,212.6173217910109,,,,,,,,,,,,,,,,,,,,,,,,,,,,,,,,,,,,,,212.61097800004063,212.6173217910109,213.6151016660151,214.59843987500062,214.59843987500062,214.59843987500062,215.38378266600193,right,0.7782783329603262,None,,,,,,,,,,,,,,,,,,,,,,,,,,,,,,,,,,,,,,,,,,,476431,001,2024-12-05_12h10.13.709,Test,2024.2.4,None,2024-12-05 12h10.24.801640 +0100,
30,150,150,27,None,17,17,0,False,left,0.8848465839982964,None,,,,,,,,0,17,17,17,,,,,,,,,215.39734941604547,,,,,,,,,,,,,,,,,,,,,,,,,,,,,,,,,,,,,,215.3911142910365,215.39734941604547,216.38697504100855,217.38188983302098,217.38188983302098,217.38188983302098,218.27356970804976,left,0.8848465839982964,None,,,,,,,,,,,,,,,,,,,,,,,,,,,,,,,,,,,,,,,,,,,476431,001,2024-12-05_12h10.13.709,Test,2024.2.4,None,2024-12-05 12h10.24.801640 +0100,
26,150,150,70,None,18,18,0,False,right,0.9185369579936378,None,,,,,,,,0,18,18,18,,,,,,,,,218.28987883304944,,,,,,,,,,,,,,,,,,,,,,,,,,,,,,,,,,,,,,218.2835651660571,218.28987883304944,219.286486875033,220.2705240410287,220.2705240410287,220.2705240410287,221.19498887500959,right,0.9185369579936378,None,,,,,,,,,,,,,,,,,,,,,,,,,,,,,,,,,,,,,,,,,,,476431,001,2024-12-05_12h10.13.709,Test,2024.2.4,None,2024-12-05 12h10.24.801640 +0100,
41,150,30,46,None,19,19,0,True,left,1.0268060410162434,None,,,,,,,,0,19,19,19,,,,,,,,,221.21333679102827,,,,,,,,,,,,,,,,,,,,,,,,,,,,,,,,,,,,,,221.2049620830221,221.21333679102827,222.20294904103503,223.18908075004583,223.18908075004583,223.18908075004583,224.21884862502338,left,1.0268060410162434,None,,,,,,,,,,,,,,,,,,,,,,,,,,,,,,,,,,,,,,,,,,,476431,001,2024-12-05_12h10.13.709,Test,2024.2.4,None,2024-12-05 12h10.24.801640 +0100,
62,150,150,62,None,20,20,0,True,left,1.3499067910015583,None,,,,,,,,0,20,20,20,,,,,,,,,224.2352207910153,,,,,,,,,,,,,,,,,,,,,,,,,,,,,,,,,,,,,,224.22845770802815,224.2352207910153,225.23187695804518,226.21514862502227,226.21514862502227,226.21514862502227,227.57142395805568,left,1.3499067910015583,None,,,,,,,,,,,,,,,,,,,,,,,,,,,,,,,,,,,,,,,,,,,476431,001,2024-12-05_12h10.13.709,Test,2024.2.4,None,2024-12-05 12h10.24.801640 +0100,
61,150,150,69,None,21,21,0,True,right,2.5070502089802176,None,,,,,,,,0,21,21,21,,,,,,,,,227.58425954100676,,,,,,,,,,,,,,,,,,,,,,,,,,,,,,,,,,,,,,227.57873579103034,227.58425954100676,228.58190033305436,229.56545525003457,229.56545525003457,229.56545525003457,232.08425175002776,right,2.5070502089802176,None,,,,,,,,,,,,,,,,,,,,,,,,,,,,,,,,,,,,,,,,,,,476431,001,2024-12-05_12h10.13.709,Test,2024.2.4,None,2024-12-05 12h10.24.801640 +0100,
49,150,60,14,None,22,22,0,True,right,1.459597083972767,None,,,,,,,,0,22,22,22,,,,,,,,,232.10089920804603,,,,,,,,,,,,,,,,,,,,,,,,,,,,,,,,,,,,,,232.094235125056,232.10089920804603,233.0985027080169,234.08201662503416,234.08201662503416,234.08201662503416,235.55045370804146,right,1.459597083972767,None,,,,,,,,,,,,,,,,,,,,,,,,,,,,,,,,,,,,,,,,,,,476431,001,2024-12-05_12h10.13.709,Test,2024.2.4,None,2024-12-05 12h10.24.801640 +0100,
58,150,120,67,None,23,23,0,True,left,1.573969874996692,None,,,,,,,,0,23,23,23,,,,,,,,,235.5667436250369,,,,,,,,,,,,,,,,,,,,,,,,,,,,,,,,,,,,,,235.55999700003304,235.5667436250369,236.56522866600426,237.5490752500482,237.5490752500482,237.5490752500482,239.13397716602776,left,1.573969874996692,None,,,,,,,,,,,,,,,,,,,,,,,,,,,,,,,,,,,,,,,,,,,476431,001,2024-12-05_12h10.13.709,Test,2024.2.4,None,2024-12-05 12h10.24.801640 +0100,
59,150,120,35,None,24,24,0,True,right,1.5672897080075927,None,,,,,,,,0,24,24,24,,,,,,,,,239.15144450002117,,,,,,,,,,,,,,,,,,,,,,,,,,,,,,,,,,,,,,239.144914583012,239.15144450002117,240.14847079105675,241.1319227910135,241.1319227910135,241.1319227910135,242.70997625001473,right,1.5672897080075927,None,,,,,,,,,,,,,,,,,,,,,,,,,,,,,,,,,,,,,,,,,,,476431,001,2024-12-05_12h10.13.709,Test,2024.2.4,None,2024-12-05 12h10.24.801640 +0100,
56,150,120,20,None,25,25,0,True,right,0.9471962910029106,None,,,,,,,,0,25,25,25,,,,,,,,,242.72363491600845,,,,,,,,,,,,,,,,,,,,,,,,,,,,,,,,,,,,,,242.71903045801446,242.72363491600845,243.72022612503497,244.70582000003196,244.70582000003196,244.70582000003196,245.6575322910212,right,0.9471962910029106,None,,,,,,,,,,,,,,,,,,,,,,,,,,,,,,,,,,,,,,,,,,,476431,001,2024-12-05_12h10.13.709,Test,2024.2.4,None,2024-12-05 12h10.24.801640 +0100,
31,150,180,54,None,26,26,0,False,right,0.7329776670085266,None,,,,,,,,0,26,26,26,,,,,,,,,245.67279112502,,,,,,,,,,,,,,,,,,,,,,,,,,,,,,,,,,,,,,245.66616820800118,245.67279112502,246.67053483304335,247.6569532499998,247.6569532499998,247.6569532499998,248.40087933302857,right,0.7329776670085266,None,,,,,,,,,,,,,,,,,,,,,,,,,,,,,,,,,,,,,,,,,,,476431,001,2024-12-05_12h10.13.709,Test,2024.2.4,None,2024-12-05 12h10.24.801640 +0100,
48,150,60,59,None,27,27,0,True,right,0.857459791994188,None,,,,,,,,0,27,27,27,,,,,,,,,248.41777062503388,,,,,,,,,,,,,,,,,,,,,,,,,,,,,,,,,,,,,,248.41090241604252,248.41777062503388,249.41506654105615,250.39739558304427,250.39739558304427,250.39739558304427,251.25771829101723,right,0.857459791994188,None,,,,,,,,,,,,,,,,,,,,,,,,,,,,,,,,,,,,,,,,,,,476431,001,2024-12-05_12h10.13.709,Test,2024.2.4,None,2024-12-05 12h10.24.801640 +0100,
12,150,60,30,None,28,28,0,False,right,0.9099122919724323,None,,,,,,,,0,28,28,28,,,,,,,,,251.28047795803286,,,,,,,,,,,,,,,,,,,,,,,,,,,,,,,,,,,,,,251.27278391603613,251.28047795803286,252.27055154100526,253.25567933300044,253.25567933300044,253.25567933300044,254.16976737504592,right,0.9099122919724323,None,,,,,,,,,,,,,,,,,,,,,,,,,,,,,,,,,,,,,,,,,,,476431,001,2024-12-05_12h10.13.709,Test,2024.2.4,None,2024-12-05 12h10.24.801640 +0100,
14,150,60,41,None,29,29,0,False,left,0.8211046250071377,None,,,,,,,,0,29,29,29,,,,,,,,,254.18635966605507,,,,,,,,,,,,,,,,,,,,,,,,,,,,,,,,,,,,,,254.17929650004953,254.18635966605507,255.18200325005455,256.16534566605696,256.16534566605696,256.16534566605696,256.9899482910405,left,0.8211046250071377,None,,,,,,,,,,,,,,,,,,,,,,,,,,,,,,,,,,,,,,,,,,,476431,001,2024-12-05_12h10.13.709,Test,2024.2.4,None,2024-12-05 12h10.24.801640 +0100,
9,150,30,48,None,30,30,0,False,right,0.6840390000143088,None,,,,,,,,0,30,30,30,,,,,,,,,257.0064577910234,,,,,,,,,,,,,,,,,,,,,,,,,,,,,,,,,,,,,,256.99980741605395,257.0064577910234,258.004042125016,258.9882080410025,258.9882080410025,258.9882080410025,259.71067141601816,right,0.6840390000143088,None,,,,,,,,,,,,,,,,,,,,,,,,,,,,,,,,,,,,,,,,,,,476431,001,2024-12-05_12h10.13.709,Test,2024.2.4,None,2024-12-05 12h10.24.801640 +0100,
34,150,180,63,None,31,31,0,False,right,1.1621909579844214,None,,,,,,,,0,31,31,31,,,,,,,,,259.7191457080189,,,,,,,,,,,,,,,,,,,,,,,,,,,,,,,,,,,,,,259.7143412910518,259.7191457080189,260.7153317500488,261.7058083330048,261.7058083330048,261.7058083330048,262.87386758305365,right,1.1621909579844214,None,,,,,,,,,,,,,,,,,,,,,,,,,,,,,,,,,,,,,,,,,,,476431,001,2024-12-05_12h10.13.709,Test,2024.2.4,None,2024-12-05 12h10.24.801640 +0100,
16,150,90,7,None,32,32,0,False,right,1.043602916994132,None,,,,,,,,0,32,32,32,,,,,,,,,262.8914212080417,,,,,,,,,,,,,,,,,,,,,,,,,,,,,,,,,,,,,,262.88441575004254,262.8914212080417,263.88724829105195,264.8716321660322,264.8716321660322,264.8716321660322,265.92371441604337,right,1.043602916994132,None,,,,,,,,,,,,,,,,,,,,,,,,,,,,,,,,,,,,,,,,,,,476431,001,2024-12-05_12h10.13.709,Test,2024.2.4,None,2024-12-05 12h10.24.801640 +0100,
55,150,90,38,None,33,33,0,True,right,0.8931359170237556,None,,,,,,,,0,33,33,33,,,,,,,,,265.935305333056,,,,,,,,,,,,,,,,,,,,,,,,,,,,,,,,,,,,,,265.92930429102853,265.935305333056,266.93098650005413,267.9233301660279,267.9233301660279,267.9233301660279,268.82678800000576,right,0.8931359170237556,None,,,,,,,,,,,,,,,,,,,,,,,,,,,,,,,,,,,,,,,,,,,476431,001,2024-12-05_12h10.13.709,Test,2024.2.4,None,2024-12-05 12h10.24.801640 +0100,
70,150,180,57,None,34,34,0,True,right,1.3570072499569505,None,,,,,,,,0,34,34,34,,,,,,,,,268.84046125004534,,,,,,,,,,,,,,,,,,,,,,,,,,,,,,,,,,,,,,268.83435983303934,268.84046125004534,269.83592704101466,270.8217966250377,270.8217966250377,270.8217966250377,272.1891259580152,right,1.3570072499569505,None,,,,,,,,,,,,,,,,,,,,,,,,,,,,,,,,,,,,,,,,,,,476431,001,2024-12-05_12h10.13.709,Test,2024.2.4,None,2024-12-05 12h10.24.801640 +0100,
54,150,90,3,None,35,35,0,True,left,1.010508999985177,None,,,,,,,,0,35,35,35,,,,,,,,,272.21776204102207,,,,,,,,,,,,,,,,,,,,,,,,,,,,,,,,,,,,,,272.21220129105495,272.21776204102207,273.2153743330273,274.1852888750145,274.1852888750145,274.1852888750145,275.20077395800035,left,1.010508999985177,None,,,,,,,,,,,,,,,,,,,,,,,,,,,,,,,,,,,,,,,,,,,476431,001,2024-12-05_12h10.13.709,Test,2024.2.4,None,2024-12-05 12h10.24.801640 +0100,
23,150,120,36,None,36,36,0,False,right,0.8477172919665463,None,,,,,,,,0,36,36,36,,,,,,,,,275.2102591660223,,,,,,,,,,,,,,,,,,,,,,,,,,,,,,,,,,,,,,275.20595129102,275.2102591660223,276.20412300003227,277.19784504105337,277.19784504105337,277.19784504105337,278.05160154105397,right,0.8477172919665463,None,,,,,,,,,,,,,,,,,,,,,,,,,,,,,,,,,,,,,,,,,,,476431,001,2024-12-05_12h10.13.709,Test,2024.2.4,None,2024-12-05 12h10.24.801640 +0100,
21,150,120,21,None,37,37,0,False,left,1.3808671669685282,None,,,,,,,,0,37,37,37,,,,,,,,,278.07142729102634,,,,,,,,,,,,,,,,,,,,,,,,,,,,,,,,,,,,,,278.06385587505065,278.07142729102634,279.06514254101785,280.051649541012,280.051649541012,280.051649541012,281.43855258304393,left,1.3808671669685282,None,,,,,,,,,,,,,,,,,,,,,,,,,,,,,,,,,,,,,,,,,,,476431,001,2024-12-05_12h10.13.709,Test,2024.2.4,None,2024-12-05 12h10.24.801640 +0100,
53,150,90,51,None,38,38,0,True,right,2.242686457990203,None,,,,,,,,0,38,38,38,,,,,,,,,281.4524620830198,,,,,,,,,,,,,,,,,,,,,,,,,,,,,,,,,,,,,,281.44730666605756,281.4524620830198,282.4483825410134,283.44002712500514,283.44002712500514,283.44002712500514,285.6942491660011,right,2.242686457990203,None,,,,,,,,,,,,,,,,,,,,,,,,,,,,,,,,,,,,,,,,,,,476431,001,2024-12-05_12h10.13.709,Test,2024.2.4,None,2024-12-05 12h10.24.801640 +0100,
33,150,180,4,None,39,39,0,False,right,1.1930096669821069,None,,,,,,,,0,39,39,39,,,,,,,,,285.7086668750271,,,,,,,,,,,,,,,,,,,,,,,,,,,,,,,,,,,,,,285.70395270804875,285.7086668750271,286.7031470830552,287.6891556660412,287.6891556660412,287.6891556660412,288.88488983304705,right,1.1930096669821069,None,,,,,,,,,,,,,,,,,,,,,,,,,,,,,,,,,,,,,,,,,,,476431,001,2024-12-05_12h10.13.709,Test,2024.2.4,None,2024-12-05 12h10.24.801640 +0100,
25,150,120,2,None,40,40,0,False,right,1.001435834041331,None,,,,,,,,0,40,40,40,,,,,,,,,288.90169037500164,,,,,,,,,,,,,,,,,,,,,,,,,,,,,,,,,,,,,,288.89519020804437,288.90169037500164,289.8977748750476,290.88193166605197,290.88193166605197,290.88193166605197,291.8917558750254,right,1.001435834041331,None,,,,,,,,,,,,,,,,,,,,,,,,,,,,,,,,,,,,,,,,,,,476431,001,2024-12-05_12h10.13.709,Test,2024.2.4,None,2024-12-05 12h10.24.801640 +0100,
64,150,150,15,None,41,41,0,True,left,1.3715417080093175,None,,,,,,,,0,41,41,41,,,,,,,,,291.90840975003084,,,,,,,,,,,,,,,,,,,,,,,,,,,,,,,,,,,,,,291.9016180000035,291.90840975003084,292.9037473750068,293.8889292080421,293.8889292080421,293.8889292080421,295.2673464580439,left,1.3715417080093175,None,,,,,,,,,,,,,,,,,,,,,,,,,,,,,,,,,,,,,,,,,,,476431,001,2024-12-05_12h10.13.709,Test,2024.2.4,None,2024-12-05 12h10.24.801640 +0100,
68,150,180,66,None,42,42,0,True,left,1.177431832998991,None,,,,,,,,0,42,42,42,,,,,,,,,295.2844457080355,,,,,,,,,,,,,,,,,,,,,,,,,,,,,,,,,,,,,,295.27800795802614,295.2844457080355,296.28168495802674,297.26538112503476,297.26538112503476,297.26538112503476,298.4506329160067,left,1.177431832998991,None,,,,,,,,,,,,,,,,,,,,,,,,,,,,,,,,,,,,,,,,,,,476431,001,2024-12-05_12h10.13.709,Test,2024.2.4,None,2024-12-05 12h10.24.801640 +0100,
39,150,0,45,None,43,43,0,True,left,0.9348819580045529,None,,,,,,,,0,43,43,43,,,,,,,,,298.4660747080343,,,,,,,,,,,,,,,,,,,,,,,,,,,,,,,,,,,,,,298.4599384580506,298.4660747080343,299.4533658330329,300.4485665410175,300.4485665410175,300.4485665410175,301.3904027910321,left,0.9348819580045529,None,,,,,,,,,,,,,,,,,,,,,,,,,,,,,,,,,,,,,,,,,,,476431,001,2024-12-05_12h10.13.709,Test,2024.2.4,None,2024-12-05 12h10.24.801640 +0100,
40,150,0,5,None,44,44,0,True,left,0.8603492500260472,None,,,,,,,,0,44,44,44,,,,,,,,,301.4065689580166,,,,,,,,,,,,,,,,,,,,,,,,,,,,,,,,,,,,,,301.40021762502147,301.4065689580166,302.4041812500218,303.3891296250513,303.3891296250513,303.3891296250513,304.2568361660233,left,0.8603492500260472,None,,,,,,,,,,,,,,,,,,,,,,,,,,,,,,,,,,,,,,,,,,,476431,001,2024-12-05_12h10.13.709,Test,2024.2.4,None,2024-12-05 12h10.24.801640 +0100,
52,150,90,47,None,45,45,0,True,left,1.559665416018106,None,,,,,,,,0,45,45,45,,,,,,,,,304.27196558302967,,,,,,,,,,,,,,,,,,,,,,,,,,,,,,,,,,,,,,304.266011041007,304.27196558302967,305.2652637080173,306.2561390000046,306.2561390000046,306.2561390000046,307.8275922910543,left,1.559665416018106,None,,,,,,,,,,,,,,,,,,,,,,,,,,,,,,,,,,,,,,,,,,,476431,001,2024-12-05_12h10.13.709,Test,2024.2.4,None,2024-12-05 12h10.24.801640 +0100,
46,150,60,6,None,46,46,0,True,left,2.0007637920207344,None,,,,,,,,0,46,46,46,,,,,,,,,307.8404972500284,,,,,,,,,,,,,,,,,,,,,,,,,,,,,,,,,,,,,,307.83585175004555,307.8404972500284,308.8372449580347,309.8223882910097,309.8223882910097,309.8223882910097,311.8363380000228,left,2.0007637920207344,None,,,,,,,,,,,,,,,,,,,,,,,,,,,,,,,,,,,,,,,,,,,476431,001,2024-12-05_12h10.13.709,Test,2024.2.4,None,2024-12-05 12h10.24.801640 +0100,
8,150,30,34,None,47,47,0,False,right,0.887691541982349,None,,,,,,,,0,47,47,47,,,,,,,,,311.86475858301856,,,,,,,,,,,,,,,,,,,,,,,,,,,,,,,,,,,,,,311.8574287080555,311.86475858301856,312.8542445000494,313.83058470801916,313.83058470801916,313.83058470801916,314.72387620800873,right,0.887691541982349,None,,,,,,,,,,,,,,,,,,,,,,,,,,,,,,,,,,,,,,,,,,,476431,001,2024-12-05_12h10.13.709,Test,2024.2.4,None,2024-12-05 12h10.24.801640 +0100,
20,150,90,24,None,48,48,0,False,right,0.726019541034475,None,,,,,,,,0,48,48,48,,,,,,,,,314.74083325004904,,,,,,,,,,,,,,,,,,,,,,,,,,,,,,,,,,,,,,314.7341602080269,314.74083325004904,315.7365482080495,316.7232286250219,316.7232286250219,316.7232286250219,317.4604990410153,right,0.726019541034475,None,,,,,,,,,,,,,,,,,,,,,,,,,,,,,,,,,,,,,,,,,,,476431,001,2024-12-05_12h10.13.709,Test,2024.2.4,None,2024-12-05 12h10.24.801640 +0100,
35,150,180,8,None,49,49,0,False,right,0.9430102909682319,None,,,,,,,,0,49,49,49,,,,,,,,,317.47225229104515,,,,,,,,,,,,,,,,,,,,,,,,,,,,,,,,,,,,,,317.4674899580423,317.47225229104515,318.4652203330188,319.45594037504634,319.45594037504634,319.45594037504634,320.4018688330543,right,0.9430102909682319,None,,,,,,,,,,,,,,,,,,,,,,,,,,,,,,,,,,,,,,,,,,,476431,001,2024-12-05_12h10.13.709,Test,2024.2.4,None,2024-12-05 12h10.24.801640 +0100,
29,150,150,17,None,50,50,0,False,right,1.4341616249876097,None,,,,,,,,0,50,50,50,,,,,,,,,320.4179080000031,,,,,,,,,,,,,,,,,,,,,,,,,,,,,,,,,,,,,,320.41168483300135,320.4179080000031,321.4152647500159,322.39857983303955,322.39857983303955,322.39857983303955,323.84402850002516,right,1.4341616249876097,None,,,,,,,,,,,,,,,,,,,,,,,,,,,,,,,,,,,,,,,,,,,476431,001,2024-12-05_12h10.13.709,Test,2024.2.4,None,2024-12-05 12h10.24.801640 +0100,
66,150,180,1,None,51,51,0,True,left,1.1272531669819728,None,,,,,,,,0,51,51,51,,,,,,,,,323.8560792080243,,,,,,,,,,,,,,,,,,,,,,,,,,,,,,,,,,,,,,323.8514210000285,323.8560792080243,324.85360525001306,325.8392231660546,325.8392231660546,325.8392231660546,326.9735512910411,left,1.1272531669819728,None,,,,,,,,,,,,,,,,,,,,,,,,,,,,,,,,,,,,,,,,,,,476431,001,2024-12-05_12h10.13.709,Test,2024.2.4,None,2024-12-05 12h10.24.801640 +0100,
47,150,60,19,None,52,52,0,True,left,1.0881289590033703,None,,,,,,,,0,52,52,52,,,,,,,,,326.9906078330241,,,,,,,,,,,,,,,,,,,,,,,,,,,,,,,,,,,,,,326.98416641604854,326.9906078330241,327.9872962500085,328.9723392910091,328.9723392910091,328.9723392910091,330.0673632080434,left,1.0881289590033703,None,,,,,,,,,,,,,,,,,,,,,,,,,,,,,,,,,,,,,,,,,,,476431,001,2024-12-05_12h10.13.709,Test,2024.2.4,None,2024-12-05 12h10.24.801640 +0100,
1,150,0,42,None,53,53,0,False,left,1.112209041020833,None,,,,,,,,0,53,53,53,,,,,,,,,330.08266404102324,,,,,,,,,,,,,,,,,,,,,,,,,,,,,,,,,,,,,,330.0765433330089,330.08266404102324,331.07055350003066,332.0652981250314,332.0652981250314,332.0652981250314,333.1839188330341,left,1.112209041020833,None,,,,,,,,,,,,,,,,,,,,,,,,,,,,,,,,,,,,,,,,,,,476431,001,2024-12-05_12h10.13.709,Test,2024.2.4,None,2024-12-05 12h10.24.801640 +0100,
11,150,60,23,None,54,54,0,False,right,1.26057091698749,None,,,,,,,,0,54,54,54,,,,,,,,,333.20054708304815,,,,,,,,,,,,,,,,,,,,,,,,,,,,,,,,,,,,,,333.1938955000369,333.20054708304815,334.1985693750321,335.1819754160242,335.1819754160242,335.1819754160242,336.45077662501717,right,1.26057091698749,None,,,,,,,,,,,,,,,,,,,,,,,,,,,,,,,,,,,,,,,,,,,476431,001,2024-12-05_12h10.13.709,Test,2024.2.4,None,2024-12-05 12h10.24.801640 +0100,
57,150,120,68,None,55,55,0,True,left,1.5003672079765238,None,,,,,,,,0,55,55,55,,,,,,,,,336.4671896660002,,,,,,,,,,,,,,,,,,,,,,,,,,,,,,,,,,,,,,336.4604995410191,336.4671896660002,337.46515512501355,338.44869729102356,338.44869729102356,338.44869729102356,339.96117895800853,left,1.5003672079765238,None,,,,,,,,,,,,,,,,,,,,,,,,,,,,,,,,,,,,,,,,,,,476431,001,2024-12-05_12h10.13.709,Test,2024.2.4,None,2024-12-05 12h10.24.801640 +0100,
15,150,60,13,None,56,56,0,False,left,1.3092925830278546,None,,,,,,,,0,56,56,56,,,,,,,,,339.97268320800504,,,,,,,,,,,,,,,,,,,,,,,,,,,,,,,,,,,,,,339.96795783302514,339.97268320800504,340.970597666048,341.9569816250005,341.9569816250005,341.9569816250005,343.27255412505474,left,1.3092925830278546,None,,,,,,,,,,,,,,,,,,,,,,,,,,,,,,,,,,,,,,,,,,,476431,001,2024-12-05_12h10.13.709,Test,2024.2.4,None,2024-12-05 12h10.24.801640 +0100,
27,150,150,65,None,57,57,0,False,left,1.0436059999628924,None,,,,,,,,0,57,57,57,,,,,,,,,343.28817604103824,,,,,,,,,,,,,,,,,,,,,,,,,,,,,,,,,,,,,,343.2814618750126,343.28817604103824,344.2818212080165,345.2721533330041,345.2721533330041,345.2721533330041,346.3185195410042,left,1.0436059999628924,None,,,,,,,,,,,,,,,,,,,,,,,,,,,,,,,,,,,,,,,,,,,476431,001,2024-12-05_12h10.13.709,Test,2024.2.4,None,2024-12-05 12h10.24.801640 +0100,
10,150,30,53,None,58,58,0,False,right,0.7284647499909624,None,,,,,,,,0,58,58,58,,,,,,,,,346.33333437505644,,,,,,,,,,,,,,,,,,,,,,,,,,,,,,,,,,,,,,346.3271438330412,346.33333437505644,347.33189283305546,348.3153636250063,348.3153636250063,348.3153636250063,349.0505972500541,right,0.7284647499909624,None,,,,,,,,,,,,,,,,,,,,,,,,,,,,,,,,,,,,,,,,,,,476431,001,2024-12-05_12h10.13.709,Test,2024.2.4,None,2024-12-05 12h10.24.801640 +0100,
28,150,150,61,None,59,59,0,False,left,1.851828792016022,None,,,,,,,,0,59,59,59,,,,,,,,,349.065842791053,,,,,,,,,,,,,,,,,,,,,,,,,,,,,,,,,,,,,,349.0597290410078,349.065842791053,350.05327983305324,351.0480744160013,351.0480744160013,351.0480744160013,352.908026833029,left,1.851828792016022,None,,,,,,,,,,,,,,,,,,,,,,,,,,,,,,,,,,,,,,,,,,,476431,001,2024-12-05_12h10.13.709,Test,2024.2.4,None,2024-12-05 12h10.24.801640 +0100,
65,150,150,31,None,60,60,0,True,left,1.606294707977213,None,,,,,,,,0,60,60,60,,,,,,,,,352.925333375053,,,,,,,,,,,,,,,,,,,,,,,,,,,,,,,,,,,,,,352.91862012504134,352.925333375053,353.9198688750039,354.90590433304897,354.90590433304897,354.90590433304897,356.517307791044,left,1.606294707977213,None,,,,,,,,,,,,,,,,,,,,,,,,,,,,,,,,,,,,,,,,,,,476431,001,2024-12-05_12h10.13.709,Test,2024.2.4,None,2024-12-05 12h10.24.801640 +0100,
51,150,90,40,None,61,61,0,True,right,1.4405335829942487,None,,,,,,,,0,61,61,61,,,,,,,,,356.5348865830456,,,,,,,,,,,,,,,,,,,,,,,,,,,,,,,,,,,,,,356.5276070830296,356.5348865830456,357.5319567080005,358.515409750049,358.515409750049,358.515409750049,359.96749470802024,right,1.4405335829942487,None,,,,,,,,,,,,,,,,,,,,,,,,,,,,,,,,,,,,,,,,,,,476431,001,2024-12-05_12h10.13.709,Test,2024.2.4,None,2024-12-05 12h10.24.801640 +0100,
42,150,30,25,None,62,62,0,True,left,3.0836577499867417,None,,,,,,,,0,62,62,62,,,,,,,,,359.983205208031,,,,,,,,,,,,,,,,,,,,,,,,,,,,,,,,,,,,,,359.97683154104743,359.983205208031,360.9818917500088,361.96524875005707,361.96524875005707,361.96524875005707,365.0512533750152,left,3.0836577499867417,None,364.9538109160494,364.9538109160494,364.9736661250354,,,,,,,,,,,,,,,,,,,,,,,,,,,,,,,,,,,,,,,,476431,001,2024-12-05_12h10.13.709,Test,2024.2.4,None,2024-12-05 12h10.24.801640 +0100,
67,150,180,43,None,63,63,0,True,left,1.4734187500434928,None,,,,,,,,0,63,63,63,,,,,,,,,365.06519720802316,,,,,,,,,,,,,,,,,,,,,,,,,,,,,,,,,,,,,,365.0594147500233,365.06519720802316,366.05360616603866,367.048683541012,367.048683541012,367.048683541012,368.52481741603697,left,1.4734187500434928,None,,,,,,,,,,,,,,,,,,,,,,,,,,,,,,,,,,,,,,,,,,,476431,001,2024-12-05_12h10.13.709,Test,2024.2.4,None,2024-12-05 12h10.24.801640 +0100,
37,150,0,29,None,64,64,0,True,left,1.2730140830390155,None,,,,,,,,0,64,64,64,,,,,,,,,368.54183104104595,,,,,,,,,,,,,,,,,,,,,,,,,,,,,,,,,,,,,,368.53516441601096,368.54183104104595,369.5372912910534,370.52028108300874,370.52028108300874,370.52028108300874,371.8015469160164,left,1.2730140830390155,None,,,,,,,,,,,,,,,,,,,,,,,,,,,,,,,,,,,,,,,,,,,476431,001,2024-12-05_12h10.13.709,Test,2024.2.4,None,2024-12-05 12h10.24.801640 +0100,
4,150,0,18,None,65,65,0,False,right,0.9120745419641025,None,,,,,,,,0,65,65,65,,,,,,,,,371.81977837503655,,,,,,,,,,,,,,,,,,,,,,,,,,,,,,,,,,,,,,371.81220800004667,371.81977837503655,372.81523591600126,373.7988535830518,373.7988535830518,373.7988535830518,374.71784545801347,right,0.9120745419641025,None,,,,,,,,,,,,,,,,,,,,,,,,,,,,,,,,,,,,,,,,,,,476431,001,2024-12-05_12h10.13.709,Test,2024.2.4,None,2024-12-05 12h10.24.801640 +0100,
32,150,180,50,None,66,66,0,False,right,1.79288008302683,None,,,,,,,,0,66,66,66,,,,,,,,,374.73408225004096,,,,,,,,,,,,,,,,,,,,,,,,,,,,,,,,,,,,,,374.72767025005305,374.73408225004096,375.7319156250451,376.7137905830168,376.7137905830168,376.7137905830168,378.5170286250068,right,1.79288008302683,None,,,,,,,,,,,,,,,,,,,,,,,,,,,,,,,,,,,,,,,,,,,476431,001,2024-12-05_12h10.13.709,Test,2024.2.4,None,2024-12-05 12h10.24.801640 +0100,
17,150,90,56,None,67,67,0,False,right,0.9171411669813097,None,,,,,,,,0,67,67,67,,,,,,,,,378.5328885410563,,,,,,,,,,,,,,,,,,,,,,,,,,,,,,,,,,,,,,378.52721379103605,378.5328885410563,379.5207300000475,380.51559445803287,380.51559445803287,380.51559445803287,381.4454362910474,right,0.9171411669813097,None,,,,,,,,,,,,,,,,,,,,,,,,,,,,,,,,,,,,,,,,,,,476431,001,2024-12-05_12h10.13.709,Test,2024.2.4,None,2024-12-05 12h10.24.801640 +0100,
38,150,0,28,None,68,68,0,True,left,0.6323509579524398,None,,,,,,,,0,68,68,68,,,,,,,,,381.4583388750325,,,,,,,,,,,,,,,,,,,,,,,,,,,,,,,,,,,,,,381.453695083037,381.4583388750325,382.45392345800065,383.44005783303874,383.44005783303874,383.44005783303874,384.0994560000254,left,0.6323509579524398,None,,,,,,,,,,,,,,,,,,,,,,,,,,,,,,,,,,,,,,,,,,,476431,001,2024-12-05_12h10.13.709,Test,2024.2.4,None,2024-12-05 12h10.24.801640 +0100,
6,150,30,22,None,69,69,0,False,left,1.0280076670460403,None,,,,,,,,0,69,69,69,,,,,,,,,384.11367850005627,,,,,,,,,,,,,,,,,,,,,,,,,,,,,,,,,,,,,,384.1078956250567,384.11367850005627,385.1037673330284,386.0987368330243,386.0987368330243,386.0987368330243,387.1340870830463,left,1.0280076670460403,None,,,,,,,,,,,,,,,,,,,,,,,,,,,,,,,,,,,,,,,,,,,476431,001,2024-12-05_12h10.13.709,Test,2024.2.4,None,2024-12-05 12h10.24.801640 +0100,
,,,,,,,,,,,,,,,,,,,,,,,,,,,,,,,,,,,,,,,,,,,,,,,,,,,,,,,,,,,,,,,,,,,,,,,,,,,,,,,,,,387.13452633301495,387.1482232500566,387.1482232500566,390.43396100000245,space,3.2758117920020595,None,,,,,,,,,,,,,,,,,,,,,,,,,,,,,,,,,476431,001,2024-12-05_12h10.13.709,Test,2024.2.4,None,2024-12-05 12h10.24.801640 +0100,
35,150,180,8,None,0,0,0,,,,,,,,,,,,,,,,0,0,0,34,,,,,390.5491067910334,,,,,,,,,,,,,,,,,,,,,,,,,,,,,,,,,,,,,,,,,,,,,,,,,,,,,,,,,,390.47290529101156,390.5491067910334,390.63096687500365,390.63096687500365,390.74798820802243,392.3305625000503,392.3305625000503,392.31726954103215,,,,,,,,,,,,,,,,,,,,,,,,,476431,001,2024-12-05_12h10.13.709,Test,2024.2.4,None,2024-12-05 12h10.24.801640 +0100,
26,150,150,70,None,1,1,0,,,,,,,,,,,,,,,,0,1,1,25,,,,,392.3305625000503,,,,,,,,,,,,,,,,,,,,,,,,,,,,,,,,,,,,,,,,,,,,,,,,,,,,,,,,,,392.3255107080331,392.33444450004026,392.5319419580046,392.5319419580046,392.5319419580046,394.2301528750104,394.2301528750104,394.21592904103454,,,,,,,,,,,,,,,,,,,,,,,,,476431,001,2024-12-05_12h10.13.709,Test,2024.2.4,None,2024-12-05 12h10.24.801640 +0100,
17,150,90,56,None,2,2,0,,,,,,,,,,,,,,,,0,2,2,16,,,,,394.2301528750104,,,,,,,,,,,,,,,,,,,,,,,,,,,,,,,,,,,,,,,,,,,,,,,,,,,,,,,,,,394.22517254104605,394.23474850005005,394.431059791008,394.431059791008,394.431059791008,396.1240948330378,396.1240948330378,396.11552645801567,,,,,,,,,,,,,,,,,,,,,,,,,476431,001,2024-12-05_12h10.13.709,Test,2024.2.4,None,2024-12-05 12h10.24.801640 +0100,
10,150,30,53,None,3,3,0,,,,,,,,,,,,,,,,0,3,3,9,,,,,396.1240948330378,,,,,,,,,,,,,,,,,,,,,,,,,,,,,,,,,,,,,,,,,,,,,,,,,,,,,,,,,,396.1207438330166,396.13042437500553,396.3310189580079,396.3310189580079,396.31856704101665,398.03389129100833,398.03389129100833,398.0155172080267,,,,,,,,,,,,,,,,,,,,,,,,,476431,001,2024-12-05_12h10.13.709,Test,2024.2.4,None,2024-12-05 12h10.24.801640 +0100,
7,150,30,33,None,4,4,0,,,,,,,,,,,,,,,,0,4,4,6,,,,,398.03389129100833,,,,,,,,,,,,,,,,,,,,,,,,,,,,,,,,,,,,,,,,,,,,,,,,,,,,,,,,,,398.02927041600924,398.05183991603553,398.23162170802243,398.23162170802243,398.24832412501564,399.9328575830441,399.9328575830441,399.91635770804714,,,,,,,,,,,,,,,,,,,,,,,,,476431,001,2024-12-05_12h10.13.709,Test,2024.2.4,None,2024-12-05 12h10.24.801640 +0100,
13,150,60,44,None,5,5,0,,,,,,,,,,,,,,,,0,5,5,12,,,,,399.9328575830441,,,,,,,,,,,,,,,,,,,,,,,,,,,,,,,,,,,,,,,,,,,,,,,,,,,,,,,,,,399.9275085410336,399.9485737500363,400.13079229102004,400.13079229102004,400.1472766660154,401.82952516601654,401.82952516601654,401.8153867080109,,,,,,,,,,,,,,,,,,,,,,,,,476431,001,2024-12-05_12h10.13.709,Test,2024.2.4,None,2024-12-05 12h10.24.801640 +0100,
29,150,150,17,None,6,6,0,,,,,,,,,,,,,,,,0,6,6,28,,,,,401.82952516601654,,,,,,,,,,,,,,,,,,,,,,,,,,,,,,,,,,,,,,,,,,,,,,,,,,,,,,,,,,401.825794125034,401.8334747910267,402.03202858305303,402.03202858305303,402.03202858305303,403.7321558750118,403.7321558750118,403.71619262505556,,,,,,,,,,,,,,,,,,,,,,,,,476431,001,2024-12-05_12h10.13.709,Test,2024.2.4,None,2024-12-05 12h10.24.801640 +0100,
21,150,120,21,None,7,7,0,,,,,,,,,,,,,,,,0,7,7,20,,,,,403.7321558750118,,,,,,,,,,,,,,,,,,,,,,,,,,,,,,,,,,,,,,,,,,,,,,,,,,,,,,,,,,403.7271067080437,403.7485597500345,403.9316975000547,403.9316975000547,403.9379198750248,405.6302600830095,405.6302600830095,405.61634912504815,,,,,,,,,,,,,,,,,,,,,,,,,476431,001,2024-12-05_12h10.13.709,Test,2024.2.4,None,2024-12-05 12h10.24.801640 +0100,
4,150,0,18,None,8,8,0,,,,,,,,,,,,,,,,0,8,8,3,,,,,405.6302600830095,,,,,,,,,,,,,,,,,,,,,,,,,,,,,,,,,,,,,,,,,,,,,,,,,,,,,,,,,,405.6251925000106,405.6350334160379,405.83211162500083,405.83211162500083,405.83211162500083,407.5305827500415,407.5305827500415,407.5162178330356,,,,,,,,,,,,,,,,,,,,,,,,,476431,001,2024-12-05_12h10.13.709,Test,2024.2.4,None,2024-12-05 12h10.24.801640 +0100,
11,150,60,23,None,9,9,0,,,,,,,,,,,,,,,,0,9,9,10,,,,,407.5305827500415,,,,,,,,,,,,,,,,,,,,,,,,,,,,,,,,,,,,,,,,,,,,,,,,,,,,,,,,,,407.5258059160551,407.53417687502224,407.7320939580095,407.7320939580095,407.7320939580095,409.4315702910535,409.4315702910535,409.41607291600667,,,,,,,,,,,,,,,,,,,,,,,,,476431,001,2024-12-05_12h10.13.709,Test,2024.2.4,None,2024-12-05 12h10.24.801640 +0100,
3,150,0,26,None,10,10,0,,,,,,,,,,,,,,,,0,10,10,2,,,,,409.4315702910535,,,,,,,,,,,,,,,,,,,,,,,,,,,,,,,,,,,,,,,,,,,,,,,,,,,,,,,,,,409.426777625049,409.43562075000955,409.6320175000001,409.6320175000001,409.6320175000001,411.3386783750029,411.3386783750029,411.3163093330222,,,,,,,,,,,,,,,,,,,,,,,,,476431,001,2024-12-05_12h10.13.709,Test,2024.2.4,None,2024-12-05 12h10.24.801640 +0100,
5,150,0,11,None,11,11,0,,,,,,,,,,,,,,,,0,11,11,4,,,,,411.3386783750029,,,,,,,,,,,,,,,,,,,,,,,,,,,,,,,,,,,,,,,,,,,,,,,,,,,,,,,,,,411.3337998750503,411.3386783750029,411.53119550005067,411.53119550005067,411.5372400000342,413.2303800000227,413.2303800000227,413.2159415000351,,,,,,,,,,,,,,,,,,,,,,,,,476431,001,2024-12-05_12h10.13.709,Test,2024.2.4,None,2024-12-05 12h10.24.801640 +0100,
15,150,60,13,None,12,12,0,,,,,,,,,,,,,,,,0,12,12,14,,,,,413.2303800000227,,,,,,,,,,,,,,,,,,,,,,,,,,,,,,,,,,,,,,,,,,,,,,,,,,,,,,,,,,413.225284166052,413.23399258300196,413.43194941600086,413.43194941600086,413.43194941600086,415.1317491660011,415.1317491660011,415.1164514160482,,,,,,,,,,,,,,,,,,,,,,,,,476431,001,2024-12-05_12h10.13.709,Test,2024.2.4,None,2024-12-05 12h10.24.801640 +0100,
12,150,60,30,None,13,13,0,,,,,,,,,,,,,,,,0,13,13,11,,,,,415.1317491660011,,,,,,,,,,,,,,,,,,,,,,,,,,,,,,,,,,,,,,,,,,,,,,,,,,,,,,,,,,415.1263049580157,415.13640454103006,415.3320216660504,415.3320216660504,415.3320216660504,417.0296795410104,417.0296795410104,417.0161455410416,,,,,,,,,,,,,,,,,,,,,,,,,476431,001,2024-12-05_12h10.13.709,Test,2024.2.4,None,2024-12-05 12h10.24.801640 +0100,
25,150,120,2,None,14,14,0,,,,,,,,,,,,,,,,0,14,14,24,,,,,417.0296795410104,,,,,,,,,,,,,,,,,,,,,,,,,,,,,,,,,,,,,,,,,,,,,,,,,,,,,,,,,,417.02457433304517,417.0336111250217,417.231911666051,417.231911666051,417.231911666051,418.93136212503305,418.93136212503305,418.9163072500378,,,,,,,,,,,,,,,,,,,,,,,,,476431,001,2024-12-05_12h10.13.709,Test,2024.2.4,None,2024-12-05 12h10.24.801640 +0100,
16,150,90,7,None,15,15,0,,,,,,,,,,,,,,,,0,15,15,15,,,,,418.93136212503305,,,,,,,,,,,,,,,,,,,,,,,,,,,,,,,,,,,,,,,,,,,,,,,,,,,,,,,,,,418.9264306660043,418.93546737503493,419.1319755000295,419.1319755000295,419.1319755000295,420.8303135000169,420.8303135000169,420.8161520000431,,,,,,,,,,,,,,,,,,,,,,,,,476431,001,2024-12-05_12h10.13.709,Test,2024.2.4,None,2024-12-05 12h10.24.801640 +0100,
24,150,120,32,None,16,16,0,,,,,,,,,,,,,,,,0,16,16,23,,,,,420.8303135000169,,,,,,,,,,,,,,,,,,,,,,,,,,,,,,,,,,,,,,,,,,,,,,,,,,,,,,,,,,420.82533933303785,420.834309916012,421.03203416604083,421.03203416604083,421.03203416604083,422.7297181660542,422.7297181660542,422.7163519580499,,,,,,,,,,,,,,,,,,,,,,,,,476431,001,2024-12-05_12h10.13.709,Test,2024.2.4,None,2024-12-05 12h10.24.801640 +0100,
19,150,90,49,None,17,17,0,,,,,,,,,,,,,,,,0,17,17,18,,,,,422.7297181660542,,,,,,,,,,,,,,,,,,,,,,,,,,,,,,,,,,,,,,,,,,,,,,,,,,,,,,,,,,422.7247752500116,422.73449270805577,422.93199700000696,422.93199700000696,422.93199700000696,424.63048558303853,424.63048558303853,424.6161862910376,,,,,,,,,,,,,,,,,,,,,,,,,476431,001,2024-12-05_12h10.13.709,Test,2024.2.4,None,2024-12-05 12h10.24.801640 +0100,
8,150,30,34,None,18,18,0,,,,,,,,,,,,,,,,0,18,18,7,,,,,424.63048558303853,,,,,,,,,,,,,,,,,,,,,,,,,,,,,,,,,,,,,,,,,,,,,,,,,,,,,,,,,,424.6254683750449,424.6340715830447,424.83201208303217,424.83201208303217,424.83201208303217,426.52951466600643,426.52951466600643,426.51602979103336,,,,,,,,,,,,,,,,,,,,,,,,,476431,001,2024-12-05_12h10.13.709,Test,2024.2.4,None,2024-12-05 12h10.24.801640 +0100,
33,150,180,4,None,19,19,0,,,,,,,,,,,,,,,,0,19,19,32,,,,,426.52951466600643,,,,,,,,,,,,,,,,,,,,,,,,,,,,,,,,,,,,,,,,,,,,,,,,,,,,,,,,,,426.5245947910007,426.53429850004613,426.73191854101606,426.73191854101606,426.73191854101606,428.4280830830103,428.4280830830103,428.41614920803113,,,,,,,,,,,,,,,,,,,,,,,,,476431,001,2024-12-05_12h10.13.709,Test,2024.2.4,None,2024-12-05 12h10.24.801640 +0100,
1,150,0,42,None,20,20,0,,,,,,,,,,,,,,,,0,20,20,0,,,,,428.4280830830103,,,,,,,,,,,,,,,,,,,,,,,,,,,,,,,,,,,,,,,,,,,,,,,,,,,,,,,,,,428.42382829100825,428.4325637910515,428.63206025003456,428.63206025003456,428.62006029102486,430.33208779100096,430.33208779100096,430.31769325002097,,,,,,,,,,,,,,,,,,,,,,,,,476431,001,2024-12-05_12h10.13.709,Test,2024.2.4,None,2024-12-05 12h10.24.801640 +0100,
27,150,150,65,None,21,21,0,,,,,,,,,,,,,,,,0,21,21,26,,,,,430.33208779100096,,,,,,,,,,,,,,,,,,,,,,,,,,,,,,,,,,,,,,,,,,,,,,,,,,,,,,,,,,430.32785116601735,430.34739883302245,430.5307576660416,430.5307576660416,430.53573195805075,432.2314548330032,432.2314548330032,432.2160791250062,,,,,,,,,,,,,,,,,,,,,,,,,476431,001,2024-12-05_12h10.13.709,Test,2024.2.4,None,2024-12-05 12h10.24.801640 +0100,
18,150,90,16,None,22,22,0,,,,,,,,,,,,,,,,0,22,22,17,,,,,432.2314548330032,,,,,,,,,,,,,,,,,,,,,,,,,,,,,,,,,,,,,,,,,,,,,,,,,,,,,,,,,,432.2263110410422,432.2356616250472,432.4319424580317,432.4319424580317,432.4319424580317,434.131158083037,434.131158083037,434.1162957910565,,,,,,,,,,,,,,,,,,,,,,,,,476431,001,2024-12-05_12h10.13.709,Test,2024.2.4,None,2024-12-05 12h10.24.801640 +0100,
14,150,60,41,None,23,23,0,,,,,,,,,,,,,,,,0,23,23,13,,,,,434.131158083037,,,,,,,,,,,,,,,,,,,,,,,,,,,,,,,,,,,,,,,,,,,,,,,,,,,,,,,,,,434.1262196250027,434.13552250002977,434.3320215830463,434.3320215830463,434.3320215830463,436.0299617500277,436.0299617500277,436.01601308304816,,,,,,,,,,,,,,,,,,,,,,,,,476431,001,2024-12-05_12h10.13.709,Test,2024.2.4,None,2024-12-05 12h10.24.801640 +0100,
28,150,150,61,None,24,24,0,,,,,,,,,,,,,,,,0,24,24,27,,,,,436.0299617500277,,,,,,,,,,,,,,,,,,,,,,,,,,,,,,,,,,,,,,,,,,,,,,,,,,,,,,,,,,436.0250423329999,436.03392954100855,436.2319402080029,436.2319402080029,436.2319402080029,437.9251819580095,437.9251819580095,437.9152947080438,,,,,,,,,,,,,,,,,,,,,,,,,476431,001,2024-12-05_12h10.13.709,Test,2024.2.4,None,2024-12-05 12h10.24.801640 +0100,
6,150,30,22,None,25,25,0,,,,,,,,,,,,,,,,0,25,25,5,,,,,437.9251819580095,,,,,,,,,,,,,,,,,,,,,,,,,,,,,,,,,,,,,,,,,,,,,,,,,,,,,,,,,,437.92147075000685,437.93040179100353,438.13196833303664,438.13196833303664,438.1202066250262,439.8319204580039,439.8319204580039,439.8164029160398,,,,,,,,,,,,,,,,,,,,,,,,,476431,001,2024-12-05_12h10.13.709,Test,2024.2.4,None,2024-12-05 12h10.24.801640 +0100,
32,150,180,50,None,26,26,0,,,,,,,,,,,,,,,,0,26,26,31,,,,,439.8319204580039,,,,,,,,,,,,,,,,,,,,,,,,,,,,,,,,,,,,,,,,,,,,,,,,,,,,,,,,,,439.82672104105586,439.83622908301186,440.03209058300126,440.03209058300126,440.03209058300126,441.7312206250499,441.7312206250499,441.7162856660434,,,,,,,,,,,,,,,,,,,,,,,,,476431,001,2024-12-05_12h10.13.709,Test,2024.2.4,None,2024-12-05 12h10.24.801640 +0100,
34,150,180,63,None,27,27,0,,,,,,,,,,,,,,,,0,27,27,33,,,,,441.7312206250499,,,,,,,,,,,,,,,,,,,,,,,,,,,,,,,,,,,,,,,,,,,,,,,,,,,,,,,,,,441.72703979100334,441.7347796250251,441.93194212502567,441.93194212502567,441.93194212502567,443.63089316600235,443.63089316600235,443.61629595805425,,,,,,,,,,,,,,,,,,,,,,,,,476431,001,2024-12-05_12h10.13.709,Test,2024.2.4,None,2024-12-05 12h10.24.801640 +0100,
20,150,90,24,None,28,28,0,,,,,,,,,,,,,,,,0,28,28,19,,,,,443.63089316600235,,,,,,,,,,,,,,,,,,,,,,,,,,,,,,,,,,,,,,,,,,,,,,,,,,,,,,,,,,443.62610150000546,443.6355601250543,443.8319689160562,443.8319689160562,443.8319689160562,445.53278154105647,445.53278154105647,445.5163346660556,,,,,,,,,,,,,,,,,,,,,,,,,476431,001,2024-12-05_12h10.13.709,Test,2024.2.4,None,2024-12-05 12h10.24.801640 +0100,
22,150,120,10,None,29,29,0,,,,,,,,,,,,,,,,0,29,29,21,,,,,445.53278154105647,,,,,,,,,,,,,,,,,,,,,,,,,,,,,,,,,,,,,,,,,,,,,,,,,,,,,,,,,,445.5277605000301,445.54851137503283,445.731911333045,445.731911333045,445.7383354580379,447.4308536660392,447.4308536660392,447.4164460830507,,,,,,,,,,,,,,,,,,,,,,,,,476431,001,2024-12-05_12h10.13.709,Test,2024.2.4,None,2024-12-05 12h10.24.801640 +0100,
23,150,120,36,None,30,30,0,,,,,,,,,,,,,,,,0,30,30,22,,,,,447.4308536660392,,,,,,,,,,,,,,,,,,,,,,,,,,,,,,,,,,,,,,,,,,,,,,,,,,,,,,,,,,447.4258407500456,447.4348535410245,447.63201762503013,447.63201762503013,447.63201762503013,449.33007633301895,449.33007633301895,449.31631670804927,,,,,,,,,,,,,,,,,,,,,,,,,476431,001,2024-12-05_12h10.13.709,Test,2024.2.4,None,2024-12-05 12h10.24.801640 +0100,
9,150,30,48,None,31,31,0,,,,,,,,,,,,,,,,0,31,31,8,,,,,449.33007633301895,,,,,,,,,,,,,,,,,,,,,,,,,,,,,,,,,,,,,,,,,,,,,,,,,,,,,,,,,,449.3251880000462,449.33394825004507,449.5318699160125,449.5318699160125,449.5318699160125,451.2318674160051,451.2318674160051,451.21643620805116,,,,,,,,,,,,,,,,,,,,,,,,,476431,001,2024-12-05_12h10.13.709,Test,2024.2.4,None,2024-12-05 12h10.24.801640 +0100,
31,150,180,54,None,32,32,0,,,,,,,,,,,,,,,,0,32,32,30,,,,,451.2318674160051,,,,,,,,,,,,,,,,,,,,,,,,,,,,,,,,,,,,,,,,,,,,,,,,,,,,,,,,,,451.2274176250212,451.2361151250079,451.43184925004607,451.43184925004607,451.43184925004607,453.12981304101413,453.12981304101413,453.1160737910541,,,,,,,,,,,,,,,,,,,,,,,,,476431,001,2024-12-05_12h10.13.709,Test,2024.2.4,None,2024-12-05 12h10.24.801640 +0100,
2,150,0,52,None,33,33,0,,,,,,,,,,,,,,,,0,33,33,1,,,,,453.12981304101413,,,,,,,,,,,,,,,,,,,,,,,,,,,,,,,,,,,,,,,,,,,,,,,,,,,,,,,,,,453.1247745830333,453.134121375042,453.3319594160421,453.3319594160421,453.3319594160421,455.03167937503895,455.03167937503895,455.016532416048,,,,,,,,,,,,,,,,,,,,,,,,,476431,001,2024-12-05_12h10.13.709,Test,2024.2.4,None,2024-12-05 12h10.24.801640 +0100,
30,150,150,27,None,34,34,0,,,,,,,,,,,,,,,,0,34,34,29,,,,,455.03167937503895,,,,,,,,,,,,,,,,,,,,,,,,,,,,,,,,,,,,,,,,,,,,,,,,,,,,,,,,,,455.0266687910189,455.03569258301286,455.23152795800706,455.23152795800706,455.23152795800706,456.9223811660195,456.9223811660195,456.9166575410054,,,,,,,,,,,,,,,,,,,,,,,,,476431,001,2024-12-05_12h10.13.709,Test,2024.2.4,None,2024-12-05 12h10.24.801640 +0100,
,,,,,,,,,,,,,,,,,,,,,,,,,,,,,,,,,,,,,,,,,,,,,,,,,,,,,,,,,,,,,,,,,,,,,,,,,,,,,,,,,,,,,,,,,,,,,,,,,456.91707500000484,456.9344465410104,456.9344465410104,459.5022866660147,space,2.5592024590005167,None,,,,,,,,,,,,,,,,,,476431,001,2024-12-05_12h10.13.709,Test,2024.2.4,None,2024-12-05 12h10.24.801640 +0100,
45,150,30,60,None,0,0,0,True,,,,left,0.7065520419855602,None,,,,,,,,,,,,,0,0,0,0,459.87816029100213,,,,,,,,,,,,,,,,,,,,,,,,,,,,,,,,,,,,,,,,,,,,,,,,,,,,,,,,,,,,,,,,,,,,,,,,,459.8711269580526,459.87816029100213,460.8701087080408,461.49879433301976,461.49879433301976,461.49879433301976,462.209132375021,left,0.7065520419855602,None,,,,,,,,476431,001,2024-12-05_12h10.13.709,Test,2024.2.4,None,2024-12-05 12h10.24.801640 +0100,
7,150,30,33,None,1,1,0,False,,,,right,0.9050196669995785,None,,,,,,,,,,,,,0,1,1,1,462.22667129104957,,,,,,,,,,,,,,,,,,,,,,,,,,,,,,,,,,,,,,,,,,,,,,,,,,,,,,,,,,,,,,,,,,,,,,,,,462.21969333302695,462.22667129104957,463.2206437080167,464.20587279100437,464.20587279100437,464.20587279100437,465.1178090830217,right,0.9050196669995785,None,,,,,,,,476431,001,2024-12-05_12h10.13.709,Test,2024.2.4,None,2024-12-05 12h10.24.801640 +0100,
60,150,120,64,None,2,2,0,True,,,,left,0.9730801249970682,None,,,,,,,,,,,,,0,2,2,2,465.13420908304397,,,,,,,,,,,,,,,,,,,,,,,,,,,,,,,,,,,,,,,,,,,,,,,,,,,,,,,,,,,,,,,,,,,,,,,,,465.12817966600414,465.13420908304397,466.131991250033,467.11447875003796,467.11447875003796,467.11447875003796,468.09043900005054,left,0.9730801249970682,None,,,,,,,,476431,001,2024-12-05_12h10.13.709,Test,2024.2.4,None,2024-12-05 12h10.24.801640 +0100,
63,150,150,37,None,3,3,0,True,,,,left,1.4610298330080695,None,,,,,,,,,,,,,0,3,3,3,468.1062886250438,,,,,,,,,,,,,,,,,,,,,,,,,,,,,,,,,,,,,,,,,,,,,,,,,,,,,,,,,,,,,,,,,,,,,,,,,468.0996183330426,468.1062886250438,469.10393079102505,470.089100583049,470.089100583049,470.089100583049,471.55713433300843,left,1.4610298330080695,None,,,,,,,,476431,001,2024-12-05_12h10.13.709,Test,2024.2.4,None,2024-12-05 12h10.24.801640 +0100,
18,150,90,16,None,4,4,0,False,,,,right,2.1157282090280205,None,,,,,,,,,,,,,0,4,4,4,471.5728177500423,,,,,,,,,,,,,,,,,,,,,,,,,,,,,,,,,,,,,,,,,,,,,,,,,,,,,,,,,,,,,,,,,,,,,,,,,471.56639425002504,471.5728177500423,472.57045020803344,473.555899458006,473.555899458006,473.555899458006,475.67414312501205,right,2.1157282090280205,None,,,,,,,,476431,001,2024-12-05_12h10.13.709,Test,2024.2.4,None,2024-12-05 12h10.24.801640 +0100,
50,150,60,58,None,5,5,0,True,,,,left,1.583866000000853,None,,,,,,,,,,,,,0,5,5,5,475.6908818750526,,,,,,,,,,,,,,,,,,,,,,,,,,,,,,,,,,,,,,,,,,,,,,,,,,,,,,,,,,,,,,,,,,,,,,,,,475.6842840000172,475.6908818750526,476.6871602080064,477.6726956250495,477.6726956250495,477.6726956250495,479.26741983304964,left,1.583866000000853,None,,,,,,,,476431,001,2024-12-05_12h10.13.709,Test,2024.2.4,None,2024-12-05 12h10.24.801640 +0100,
24,150,120,32,None,6,6,0,False,,,,right,0.734048459038604,None,,,,,,,,,,,,,0,6,6,6,479.2830750410212,,,,,,,,,,,,,,,,,,,,,,,,,,,,,,,,,,,,,,,,,,,,,,,,,,,,,,,,,,,,,,,,,,,,,,,,,479.27676733303815,479.2830750410212,480.28196458303137,481.26539925002726,481.26539925002726,481.26539925002726,482.0102567500435,right,0.734048459038604,None,,,,,,,,476431,001,2024-12-05_12h10.13.709,Test,2024.2.4,None,2024-12-05 12h10.24.801640 +0100,
3,150,0,26,None,7,7,0,False,,,,right,0.6527113339980133,None,,,,,,,,,,,,,0,7,7,7,482.0228795410367,,,,,,,,,,,,,,,,,,,,,,,,,,,,,,,,,,,,,,,,,,,,,,,,,,,,,,,,,,,,,,,,,,,,,,,,,482.0180884160218,482.0228795410367,483.0201445410494,484.0063450000016,484.0063450000016,484.0063450000016,484.67028570803814,right,0.6527113339980133,None,,,,,,,,476431,001,2024-12-05_12h10.13.709,Test,2024.2.4,None,2024-12-05 12h10.24.801640 +0100,
5,150,0,11,None,8,8,0,False,,,,left,1.0224240000243299,None,,,,,,,,,,,,,0,8,8,8,484.6907867080299,,,,,,,,,,,,,,,,,,,,,,,,,,,,,,,,,,,,,,,,,,,,,,,,,,,,,,,,,,,,,,,,,,,,,,,,,484.68453204102116,484.6907867080299,485.6872477910365,486.6637984580011,486.6637984580011,486.6637984580011,487.6906412910321,left,1.0224240000243299,None,,,,,,,,476431,001,2024-12-05_12h10.13.709,Test,2024.2.4,None,2024-12-05 12h10.24.801640 +0100,
44,150,30,39,None,9,9,0,True,,,,left,1.0399279579869471,None,,,,,,,,,,,,,0,9,9,9,487.707499916025,,,,,,,,,,,,,,,,,,,,,,,,,,,,,,,,,,,,,,,,,,,,,,,,,,,,,,,,,,,,,,,,,,,,,,,,,487.70109362504445,487.707499916025,488.70393629104365,489.6891757500125,489.6891757500125,489.6891757500125,490.7351242500008,left,1.0399279579869471,None,,,,,,,,476431,001,2024-12-05_12h10.13.709,Test,2024.2.4,None,2024-12-05 12h10.24.801640 +0100,
22,150,120,10,None,10,10,0,False,,,,right,0.8194087499869056,None,,,,,,,,,,,,,0,10,10,10,490.7534037500154,,,,,,,,,,,,,,,,,,,,,,,,,,,,,,,,,,,,,,,,,,,,,,,,,,,,,,,,,,,,,,,,,,,,,,,,,490.7466502910247,490.7534037500154,491.7485567080439,492.7321085410076,492.7321085410076,492.7321085410076,493.55703712505056,right,0.8194087499869056,None,,,,,,,,476431,001,2024-12-05_12h10.13.709,Test,2024.2.4,None,2024-12-05 12h10.24.801640 +0100,
2,150,0,52,None,11,11,0,False,,,,right,0.6198837080155499,None,,,,,,,,,,,,,0,11,11,11,493.5713077080436,,,,,,,,,,,,,,,,,,,,,,,,,,,,,,,,,,,,,,,,,,,,,,,,,,,,,,,,,,,,,,,,,,,,,,,,,493.56525891600177,493.5713077080436,494.5652441250277,495.5556884580292,495.5556884580292,495.5556884580292,496.1840784160304,right,0.6198837080155499,None,,,,,,,,476431,001,2024-12-05_12h10.13.709,Test,2024.2.4,None,2024-12-05 12h10.24.801640 +0100,
36,150,0,55,None,12,12,0,True,,,,left,0.7410565000027418,None,,,,,,,,,,,,,0,12,12,12,496.2002332910197,,,,,,,,,,,,,,,,,,,,,,,,,,,,,,,,,,,,,,,,,,,,,,,,,,,,,,,,,,,,,,,,,,,,,,,,,496.19339675002266,496.2002332910197,497.1984792910516,498.18211570801213,498.18211570801213,498.18211570801213,498.9339280000422,left,0.7410565000027418,None,,,,,,,,476431,001,2024-12-05_12h10.13.709,Test,2024.2.4,None,2024-12-05 12h10.24.801640 +0100,
69,150,180,9,None,13,13,0,True,,,,left,1.4729657919961028,None,,,,,,,,,,,,,0,13,13,13,498.9497880830313,,,,,,,,,,,,,,,,,,,,,,,,,,,,,,,,,,,,,,,,,,,,,,,,,,,,,,,,,,,,,,,,,,,,,,,,,498.9439450830105,498.9497880830313,499.94852837501094,500.93208787502954,500.93208787502954,500.93208787502954,502.4074873330537,left,1.4729657919961028,None,,,,,,,,476431,001,2024-12-05_12h10.13.709,Test,2024.2.4,None,2024-12-05 12h10.24.801640 +0100,
43,150,30,12,None,14,14,0,True,,,,left,1.2454450000077486,None,,,,,,,,,,,,,0,14,14,14,502.42296095803613,,,,,,,,,,,,,,,,,,,,,,,,,,,,,,,,,,,,,,,,,,,,,,,,,,,,,,,,,,,,,,,,,,,,,,,,,502.41658700001426,502.42296095803613,503.43224200000986,504.4061861250084,504.4061861250084,504.4061861250084,505.65699020802276,left,1.2454450000077486,None,,,,,,,,476431,001,2024-12-05_12h10.13.709,Test,2024.2.4,None,2024-12-05 12h10.24.801640 +0100,
19,150,90,49,None,15,15,0,False,,,,right,1.4387444159947336,None,,,,,,,,,,,,,0,15,15,15,505.67280525004026,,,,,,,,,,,,,,,,,,,,,,,,,,,,,,,,,,,,,,,,,,,,,,,,,,,,,,,,,,,,,,,,,,,,,,,,,505.6658386250492,505.67280525004026,506.6707584160031,507.65603150002426,507.65603150002426,507.65603150002426,509.10069437505445,right,1.4387444159947336,None,,,,,,,,476431,001,2024-12-05_12h10.13.709,Test,2024.2.4,None,2024-12-05 12h10.24.801640 +0100,
13,150,60,44,None,16,16,0,False,,,,right,0.6671733749681152,None,,,,,,,,,,,,,0,16,16,16,509.11725800001295,,,,,,,,,,,,,,,,,,,,,,,,,,,,,,,,,,,,,,,,,,,,,,,,,,,,,,,,,,,,,,,,,,,,,,,,,509.11027820804156,509.11725800001295,510.1152129160473,511.0986267910339,511.0986267910339,511.0986267910339,511.76884887501365,right,0.6671733749681152,None,,,,,,,,476431,001,2024-12-05_12h10.13.709,Test,2024.2.4,None,2024-12-05 12h10.24.801640 +0100,
30,150,150,27,None,17,17,0,False,,,,right,0.7686219169991091,None,,,,,,,,,,,,,0,17,17,17,511.7834703750559,,,,,,,,,,,,,,,,,,,,,,,,,,,,,,,,,,,,,,,,,,,,,,,,,,,,,,,,,,,,,,,,,,,,,,,,,511.7774470410077,511.7834703750559,512.7818875830271,513.7653564160573,513.7653564160573,513.7653564160573,514.5403975830413,right,0.7686219169991091,None,,,,,,,,476431,001,2024-12-05_12h10.13.709,Test,2024.2.4,None,2024-12-05 12h10.24.801640 +0100,
26,150,150,70,None,18,18,0,False,,,,right,0.6733978330157697,None,,,,,,,,,,,,,0,18,18,18,514.5533003750024,,,,,,,,,,,,,,,,,,,,,,,,,,,,,,,,,,,,,,,,,,,,,,,,,,,,,,,,,,,,,,,,,,,,,,,,,514.5474065000308,514.5533003750024,515.5485414580326,516.5393667500466,516.5393667500466,516.5393667500466,517.2174183750176,right,0.6733978330157697,None,,,,,,,,476431,001,2024-12-05_12h10.13.709,Test,2024.2.4,None,2024-12-05 12h10.24.801640 +0100,
41,150,30,46,None,19,19,0,True,,,,left,0.6875255420454778,None,,,,,,,,,,,,,0,19,19,19,517.2339865000104,,,,,,,,,,,,,,,,,,,,,,,,,,,,,,,,,,,,,,,,,,,,,,,,,,,,,,,,,,,,,,,,,,,,,,,,,517.2266350830323,517.2339865000104,518.2320940410136,519.2153287910041,519.2153287910041,519.2153287910041,519.9076895410544,left,0.6875255420454778,None,,,,,,,,476431,001,2024-12-05_12h10.13.709,Test,2024.2.4,None,2024-12-05 12h10.24.801640 +0100,
62,150,150,62,None,20,20,0,True,,,,left,0.973878875025548,None,,,,,,,,,,,,,0,20,20,20,519.9293622500263,,,,,,,,,,,,,,,,,,,,,,,,,,,,,,,,,,,,,,,,,,,,,,,,,,,,,,,,,,,,,,,,,,,,,,,,,519.9232044580276,519.9293622500263,520.9205643330351,521.9086045410368,521.9086045410368,521.9086045410368,522.8851951250108,left,0.973878875025548,None,,,,,,,,476431,001,2024-12-05_12h10.13.709,Test,2024.2.4,None,2024-12-05 12h10.24.801640 +0100,
61,150,150,69,None,21,21,0,True,,,,left,1.0346227919799276,None,,,,,,,,,,,,,0,21,21,21,522.9018751660478,,,,,,,,,,,,,,,,,,,,,,,,,,,,,,,,,,,,,,,,,,,,,,,,,,,,,,,,,,,,,,,,,,,,,,,,,522.8949418750126,522.9018751660478,523.8985090000206,524.8820802910486,524.8820802910486,524.8820802910486,525.9233610000229,left,1.0346227919799276,None,,,,,,,,476431,001,2024-12-05_12h10.13.709,Test,2024.2.4,None,2024-12-05 12h10.24.801640 +0100,
49,150,60,14,None,22,22,0,True,,,,left,2.0759207920054905,None,,,,,,,,,,,,,0,22,22,22,525.9406277910457,,,,,,,,,,,,,,,,,,,,,,,,,,,,,,,,,,,,,,,,,,,,,,,,,,,,,,,,,,,,,,,,,,,,,,,,,525.9343657910358,525.9406277910457,526.9365118750138,527.9233427500003,527.9233427500003,527.9233427500003,530.0026005000109,left,2.0759207920054905,None,,,,,,,,476431,001,2024-12-05_12h10.13.709,Test,2024.2.4,None,2024-12-05 12h10.24.801640 +0100,
58,150,120,67,None,23,23,0,True,,,,left,1.574442834011279,None,,,,,,,,,,,,,0,23,23,23,530.0186124580214,,,,,,,,,,,,,,,,,,,,,,,,,,,,,,,,,,,,,,,,,,,,,,,,,,,,,,,,,,,,,,,,,,,,,,,,,530.0121198330307,530.0186124580214,531.0152520410484,531.998694000009,531.998694000009,531.998694000009,533.5840955410386,left,1.574442834011279,None,,,,,,,,476431,001,2024-12-05_12h10.13.709,Test,2024.2.4,None,2024-12-05 12h10.24.801640 +0100,
59,150,120,35,None,24,24,0,True,,,,right,1.457111999974586,None,,,,,,,,,,,,,0,24,24,24,533.6012833750574,,,,,,,,,,,,,,,,,,,,,,,,,,,,,,,,,,,,,,,,,,,,,,,,,,,,,,,,,,,,,,,,,,,,,,,,,533.5953541250201,533.6012833750574,534.5974229580024,535.5820227500517,535.5820227500517,535.5820227500517,537.0417869160301,right,1.457111999974586,None,,,,,,,,476431,001,2024-12-05_12h10.13.709,Test,2024.2.4,None,2024-12-05 12h10.24.801640 +0100,
56,150,120,20,None,25,25,0,True,,,,right,0.9498094579903409,None,,,,,,,,,,,,,0,25,25,25,537.0576706660213,,,,,,,,,,,,,,,,,,,,,,,,,,,,,,,,,,,,,,,,,,,,,,,,,,,,,,,,,,,,,,,,,,,,,,,,,537.05097070802,537.0576706660213,538.0539120410103,539.039509416034,539.039509416034,539.039509416034,540.0006376250531,right,0.9498094579903409,None,,,,,,,,476431,001,2024-12-05_12h10.13.709,Test,2024.2.4,None,2024-12-05 12h10.24.801640 +0100,
31,150,180,54,None,26,26,0,False,,,,left,1.4907780000357889,None,,,,,,,,,,,,,0,26,26,26,540.0170235000551,,,,,,,,,,,,,,,,,,,,,,,,,,,,,,,,,,,,,,,,,,,,,,,,,,,,,,,,,,,,,,,,,,,,,,,,,540.0109422080568,540.0170235000551,541.0154650410404,541.9986377080204,541.9986377080204,541.9986377080204,543.5007752080564,left,1.4907780000357889,None,,,,,,,,476431,001,2024-12-05_12h10.13.709,Test,2024.2.4,None,2024-12-05 12h10.24.801640 +0100,
48,150,60,59,None,27,27,0,True,,,,left,1.2335362080484629,None,,,,,,,,,,,,,0,27,27,27,543.5156467500492,,,,,,,,,,,,,,,,,,,,,,,,,,,,,,,,,,,,,,,,,,,,,,,,,,,,,,,,,,,,,,,,,,,,,,,,,543.5094888330204,543.5156467500492,544.5039085000171,545.4986574160284,545.4986574160284,545.4986574160284,546.7348738330184,left,1.2335362080484629,None,,,,,,,,476431,001,2024-12-05_12h10.13.709,Test,2024.2.4,None,2024-12-05 12h10.24.801640 +0100,
12,150,60,30,None,28,28,0,False,,,,right,1.2905007079825737,None,,,,,,,,,,,,,0,28,28,28,546.7503980410402,,,,,,,,,,,,,,,,,,,,,,,,,,,,,,,,,,,,,,,,,,,,,,,,,,,,,,,,,,,,,,,,,,,,,,,,,546.7442206250271,546.7503980410402,547.7485771660577,548.7319442500011,548.7319442500011,548.7319442500011,550.0355050000362,right,1.2905007079825737,None,,,,,,,,476431,001,2024-12-05_12h10.13.709,Test,2024.2.4,None,2024-12-05 12h10.24.801640 +0100,
14,150,60,41,None,29,29,0,False,,,,left,0.9321336249704473,None,,,,,,,,,,,,,0,29,29,29,550.0473405410303,,,,,,,,,,,,,,,,,,,,,,,,,,,,,,,,,,,,,,,,,,,,,,,,,,,,,,,,,,,,,,,,,,,,,,,,,550.0427331250394,550.0473405410303,551.0369200000423,552.0319533330039,552.0319533330039,552.0319533330039,552.969630791049,left,0.9321336249704473,None,,,,,,,,476431,001,2024-12-05_12h10.13.709,Test,2024.2.4,None,2024-12-05 12h10.24.801640 +0100,
9,150,30,48,None,30,30,0,False,,,,right,0.724480249977205,None,,,,,,,,,,,,,0,30,30,30,552.9869390410022,,,,,,,,,,,,,,,,,,,,,,,,,,,,,,,,,,,,,,,,,,,,,,,,,,,,,,,,,,,,,,,,,,,,,,,,,552.9789615410264,552.9869390410022,553.9820233750506,554.9649424160016,554.9649424160016,554.9649424160016,555.7008741660393,right,0.724480249977205,None,,,,,,,,476431,001,2024-12-05_12h10.13.709,Test,2024.2.4,None,2024-12-05 12h10.24.801640 +0100,
34,150,180,63,None,31,31,0,False,,,,right,1.0924622919992544,None,,,,,,,,,,,,,0,31,31,31,555.7167166660074,,,,,,,,,,,,,,,,,,,,,,,,,,,,,,,,,,,,,,,,,,,,,,,,,,,,,,,,,,,,,,,,,,,,,,,,,555.7097062910325,555.7167166660074,556.7151952080312,557.6987360410276,557.6987360410276,557.6987360410276,558.8010062080575,right,1.0924622919992544,None,,,,,,,,476431,001,2024-12-05_12h10.13.709,Test,2024.2.4,None,2024-12-05 12h10.24.801640 +0100,
16,150,90,7,None,32,32,0,False,,,,right,1.1959863329539075,None,,,,,,,,,,,,,0,32,32,32,558.8168891250389,,,,,,,,,,,,,,,,,,,,,,,,,,,,,,,,,,,,,,,,,,,,,,,,,,,,,,,,,,,,,,,,,,,,,,,,,558.8102969160536,558.8168891250389,559.8153778750566,560.7987311250181,560.7987311250181,560.7987311250181,562.0009752500337,right,1.1959863329539075,None,,,,,,,,476431,001,2024-12-05_12h10.13.709,Test,2024.2.4,None,2024-12-05 12h10.24.801640 +0100,
55,150,90,38,None,33,33,0,True,,,,left,0.8049892499693669,None,,,,,,,,,,,,,0,33,33,33,562.0170820000349,,,,,,,,,,,,,,,,,,,,,,,,,,,,,,,,,,,,,,,,,,,,,,,,,,,,,,,,,,,,,,,,,,,,,,,,,562.0110912910313,562.0170820000349,563.0152372080483,563.998209500045,563.998209500045,563.998209500045,564.8074582080008,left,0.8049892499693669,None,,,,,,,,476431,001,2024-12-05_12h10.13.709,Test,2024.2.4,None,2024-12-05 12h10.24.801640 +0100,
70,150,180,57,None,34,34,0,True,,,,left,1.6351680000079796,None,,,,,,,,,,,,,0,34,34,34,564.8217158750049,,,,,,,,,,,,,,,,,,,,,,,,,,,,,,,,,,,,,,,,,,,,,,,,,,,,,,,,,,,,,,,,,,,,,,,,,564.8159411250381,564.8217158750049,565.8206967500155,566.8067036660505,566.8067036660505,566.8067036660505,568.450665875047,left,1.6351680000079796,None,,,,,,,,476431,001,2024-12-05_12h10.13.709,Test,2024.2.4,None,2024-12-05 12h10.24.801640 +0100,
54,150,90,3,None,35,35,0,True,,,,right,1.5833653340232559,None,,,,,,,,,,,,,0,35,35,35,568.4692122500273,,,,,,,,,,,,,,,,,,,,,,,,,,,,,,,,,,,,,,,,,,,,,,,,,,,,,,,,,,,,,,,,,,,,,,,,,568.4614411250222,568.4692122500273,569.4653322080267,570.4487802910153,570.4487802910153,570.4487802910153,572.0348527500173,right,1.5833653340232559,None,,,,,,,,476431,001,2024-12-05_12h10.13.709,Test,2024.2.4,None,2024-12-05 12h10.24.801640 +0100,
23,150,120,36,None,36,36,0,False,,,,left,1.7522955830208957,None,,,,,,,,,,,,,0,36,36,36,572.0506571660517,,,,,,,,,,,,,,,,,,,,,,,,,,,,,,,,,,,,,,,,,,,,,,,,,,,,,,,,,,,,,,,,,,,,,,,,,572.0440902080154,572.0506571660517,573.0486707080272,574.0320547080482,574.0320547080482,574.0320547080482,575.7900843750103,left,1.7522955830208957,None,,,,,,,,476431,001,2024-12-05_12h10.13.709,Test,2024.2.4,None,2024-12-05 12h10.24.801640 +0100,
21,150,120,21,None,37,37,0,False,,,,right,0.7006286669638939,None,,,,,,,,,,,,,0,37,37,37,575.8058285000152,,,,,,,,,,,,,,,,,,,,,,,,,,,,,,,,,,,,,,,,,,,,,,,,,,,,,,,,,,,,,,,,,,,,,,,,,575.799344833009,575.8058285000152,576.8033400000422,577.789381166047,577.789381166047,577.789381166047,578.493058166001,right,0.7006286669638939,None,,,,,,,,476431,001,2024-12-05_12h10.13.709,Test,2024.2.4,None,2024-12-05 12h10.24.801640 +0100,
53,150,90,51,None,38,38,0,True,,,,left,1.4961685829912312,None,,,,,,,,,,,,,0,38,38,38,578.5086624160176,,,,,,,,,,,,,,,,,,,,,,,,,,,,,,,,,,,,,,,,,,,,,,,,,,,,,,,,,,,,,,,,,,,,,,,,,578.501941125025,578.5086624160176,579.5032486660057,580.4868069580407,580.4868069580407,580.4868069580407,581.9895997080021,left,1.4961685829912312,None,,,,,,,,476431,001,2024-12-05_12h10.13.709,Test,2024.2.4,None,2024-12-05 12h10.24.801640 +0100,
33,150,180,4,None,39,39,0,False,,,,right,1.2851575840031728,None,,,,,,,,,,,,,0,39,39,39,582.003896625014,,,,,,,,,,,,,,,,,,,,,,,,,,,,,,,,,,,,,,,,,,,,,,,,,,,,,,,,,,,,,,,,,,,,,,,,,581.9980256250128,582.003896625014,582.998776583001,583.9890676659998,583.9890676659998,583.9890676659998,585.2846300000092,right,1.2851575840031728,None,,,,,,,,476431,001,2024-12-05_12h10.13.709,Test,2024.2.4,None,2024-12-05 12h10.24.801640 +0100,
25,150,120,2,None,40,40,0,False,,,,right,0.7502795409527607,None,,,,,,,,,,,,,0,40,40,40,585.302676750056,,,,,,,,,,,,,,,,,,,,,,,,,,,,,,,,,,,,,,,,,,,,,,,,,,,,,,,,,,,,,,,,,,,,,,,,,585.2949629160576,585.302676750056,586.2985619160463,587.2821381660178,587.2821381660178,587.2821381660178,588.0351025830023,right,0.7502795409527607,None,,,,,,,,476431,001,2024-12-05_12h10.13.709,Test,2024.2.4,None,2024-12-05 12h10.24.801640 +0100,
64,150,150,15,None,41,41,0,True,,,,right,0.9338717499631457,None,,,,,,,,,,,,,0,41,41,41,588.0512135830359,,,,,,,,,,,,,,,,,,,,,,,,,,,,,,,,,,,,,,,,,,,,,,,,,,,,,,,,,,,,,,,,,,,,,,,,,588.0449438750511,588.0512135830359,589.0486195830163,590.0319436250138,590.0319436250138,590.0319436250138,590.9683868749999,right,0.9338717499631457,None,,,,,,,,476431,001,2024-12-05_12h10.13.709,Test,2024.2.4,None,2024-12-05 12h10.24.801640 +0100,
68,150,180,66,None,42,42,0,True,,,,right,0.9004187500104308,None,,,,,,,,,,,,,0,42,42,42,590.9833067500149,,,,,,,,,,,,,,,,,,,,,,,,,,,,,,,,,,,,,,,,,,,,,,,,,,,,,,,,,,,,,,,,,,,,,,,,,590.9770217500045,590.9833067500149,591.9819010410574,592.9653525830363,592.9653525830363,592.9653525830363,593.8696934580221,right,0.9004187500104308,None,,,,,,,,476431,001,2024-12-05_12h10.13.709,Test,2024.2.4,None,2024-12-05 12h10.24.801640 +0100,
39,150,0,45,None,43,43,0,True,,,,left,0.9469293750007637,None,,,,,,,,,,,,,0,43,43,43,593.883540208044,,,,,,,,,,,,,,,,,,,,,,,,,,,,,,,,,,,,,,,,,,,,,,,,,,,,,,,,,,,,,,,,,,,,,,,,,593.8777717910125,593.883540208044,594.8819585410529,595.8653251250507,595.8653251250507,595.8653251250507,596.8173005000572,left,0.9469293750007637,None,,,,,,,,476431,001,2024-12-05_12h10.13.709,Test,2024.2.4,None,2024-12-05 12h10.24.801640 +0100,
40,150,0,5,None,44,44,0,True,,,,left,1.012030958023388,None,,,,,,,,,,,,,0,44,44,44,596.8318952910486,,,,,,,,,,,,,,,,,,,,,,,,,,,,,,,,,,,,,,,,,,,,,,,,,,,,,,,,,,,,,,,,,,,,,,,,,596.8258257080452,596.8318952910486,597.8193148749997,598.8322631660267,598.8322631660267,598.8322631660267,599.8511122500058,left,1.012030958023388,None,,,,,,,,476431,001,2024-12-05_12h10.13.709,Test,2024.2.4,None,2024-12-05 12h10.24.801640 +0100,
52,150,90,47,None,45,45,0,True,,,,left,0.8404972089920193,None,,,,,,,,,,,,,0,45,45,45,599.8688984580222,,,,,,,,,,,,,,,,,,,,,,,,,,,,,,,,,,,,,,,,,,,,,,,,,,,,,,,,,,,,,,,,,,,,,,,,,599.8621012080112,599.8688984580222,600.865253750002,601.848604083003,601.848604083003,601.848604083003,602.7006695410237,left,0.8404972089920193,None,,,,,,,,476431,001,2024-12-05_12h10.13.709,Test,2024.2.4,None,2024-12-05 12h10.24.801640 +0100,
46,150,60,6,None,46,46,0,True,,,,left,0.8338794579613023,None,,,,,,,,,,,,,0,46,46,46,602.716945250053,,,,,,,,,,,,,,,,,,,,,,,,,,,,,,,,,,,,,,,,,,,,,,,,,,,,,,,,,,,,,,,,,,,,,,,,,602.7099111250136,602.716945250053,603.7152100410312,604.6987207500497,604.6987207500497,604.6987207500497,605.5362441250472,left,0.8338794579613023,None,,,,,,,,476431,001,2024-12-05_12h10.13.709,Test,2024.2.4,None,2024-12-05 12h10.24.801640 +0100,
8,150,30,34,None,47,47,0,False,,,,left,0.6375490420032293,None,,,,,,,,,,,,,0,47,47,47,605.5560013330542,,,,,,,,,,,,,,,,,,,,,,,,,,,,,,,,,,,,,,,,,,,,,,,,,,,,,,,,,,,,,,,,,,,,,,,,,605.5486122500151,605.5560013330542,606.5537664580042,607.5320891660522,607.5320891660522,607.5320891660522,608.1738184580463,left,0.6375490420032293,None,,,,,,,,476431,001,2024-12-05_12h10.13.709,Test,2024.2.4,None,2024-12-05 12h10.24.801640 +0100,
20,150,90,24,None,48,48,0,False,,,,right,1.0994635840179399,None,,,,,,,,,,,,,0,48,48,48,608.1896919160499,,,,,,,,,,,,,,,,,,,,,,,,,,,,,,,,,,,,,,,,,,,,,,,,,,,,,,,,,,,,,,,,,,,,,,,,,608.183017125004,608.1896919160499,609.1866433750256,610.1701511250576,610.1701511250576,610.1701511250576,611.273750375025,right,1.0994635840179399,None,,,,,,,,476431,001,2024-12-05_12h10.13.709,Test,2024.2.4,None,2024-12-05 12h10.24.801640 +0100,
35,150,180,8,None,49,49,0,False,,,,right,0.9989506669808179,None,,,,,,,,,,,,,0,49,49,49,611.2900052080513,,,,,,,,,,,,,,,,,,,,,,,,,,,,,,,,,,,,,,,,,,,,,,,,,,,,,,,,,,,,,,,,,,,,,,,,,611.2830252080457,611.2900052080513,612.2866942910478,613.2727510410477,613.2727510410477,613.2727510410477,614.2741947500035,right,0.9989506669808179,None,,,,,,,,476431,001,2024-12-05_12h10.13.709,Test,2024.2.4,None,2024-12-05 12h10.24.801640 +0100,
29,150,150,17,None,50,50,0,False,,,,left,1.3779545829747804,None,,,,,,,,,,,,,0,50,50,50,614.2900223750039,,,,,,,,,,,,,,,,,,,,,,,,,,,,,,,,,,,,,,,,,,,,,,,,,,,,,,,,,,,,,,,,,,,,,,,,,614.2837007080088,614.2900223750039,615.2871259580133,616.2725887080305,616.2725887080305,616.2725887080305,617.662648291036,left,1.3779545829747804,None,,,,,,,,476431,001,2024-12-05_12h10.13.709,Test,2024.2.4,None,2024-12-05 12h10.24.801640 +0100,
66,150,180,1,None,51,51,0,True,,,,left,1.4291221660096198,None,,,,,,,,,,,,,0,51,51,51,617.6757804580266,,,,,,,,,,,,,,,,,,,,,,,,,,,,,,,,,,,,,,,,,,,,,,,,,,,,,,,,,,,,,,,,,,,,,,,,,617.670996541041,617.6757804580266,618.6707803330501,619.6560705830343,619.6560705830343,619.6560705830343,621.0900897080428,left,1.4291221660096198,None,,,,,,,,476431,001,2024-12-05_12h10.13.709,Test,2024.2.4,None,2024-12-05 12h10.24.801640 +0100,
47,150,60,19,None,52,52,0,True,,,,left,1.092390375037212,None,,,,,,,,,,,,,0,52,52,52,621.1054942500195,,,,,,,,,,,,,,,,,,,,,,,,,,,,,,,,,,,,,,,,,,,,,,,,,,,,,,,,,,,,,,,,,,,,,,,,,621.0989257500041,621.1054942500195,622.1032519580331,623.0902914160397,623.0902914160397,623.0902914160397,624.1936583330389,left,1.092390375037212,None,,,,,,,,476431,001,2024-12-05_12h10.13.709,Test,2024.2.4,None,2024-12-05 12h10.24.801640 +0100,
1,150,0,42,None,53,53,0,False,,,,right,0.7482411250239238,None,,,,,,,,,,,,,0,53,53,53,624.2063556250068,,,,,,,,,,,,,,,,,,,,,,,,,,,,,,,,,,,,,,,,,,,,,,,,,,,,,,,,,,,,,,,,,,,,,,,,,624.2016161250067,624.2063556250068,625.2032966250554,626.1888594160555,626.1888594160555,626.1888594160555,626.9405985410558,right,0.7482411250239238,None,,,,,,,,476431,001,2024-12-05_12h10.13.709,Test,2024.2.4,None,2024-12-05 12h10.24.801640 +0100,
11,150,60,23,None,54,54,0,False,,,,right,0.8152600419707596,None,,,,,,,,,,,,,0,54,54,54,626.9554821250495,,,,,,,,,,,,,,,,,,,,,,,,,,,,,,,,,,,,,,,,,,,,,,,,,,,,,,,,,,,,,,,,,,,,,,,,,626.9491302080569,626.9554821250495,627.9538549580029,628.9396967909997,628.9396967909997,628.9396967909997,629.7575734160491,right,0.8152600419707596,None,,,,,,,,476431,001,2024-12-05_12h10.13.709,Test,2024.2.4,None,2024-12-05 12h10.24.801640 +0100,
57,150,120,68,None,55,55,0,True,,,,left,1.462545125046745,None,,,,,,,,,,,,,0,55,55,55,629.7733745830483,,,,,,,,,,,,,,,,,,,,,,,,,,,,,,,,,,,,,,,,,,,,,,,,,,,,,,,,,,,,,,,,,,,,,,,,,629.7673315410502,629.7733745830483,630.7700527080451,631.7558879160206,631.7558879160206,631.7558879160206,633.2236950000515,left,1.462545125046745,None,,,,,,,,476431,001,2024-12-05_12h10.13.709,Test,2024.2.4,None,2024-12-05 12h10.24.801640 +0100,
15,150,60,13,None,56,56,0,False,,,,left,0.8532357499934733,None,,,,,,,,,,,,,0,56,56,56,633.237138291006,,,,,,,,,,,,,,,,,,,,,,,,,,,,,,,,,,,,,,,,,,,,,,,,,,,,,,,,,,,,,,,,,,,,,,,,,633.2313556250301,633.237138291006,634.231821666006,635.2233470410574,635.2233470410574,635.2233470410574,636.0839830000186,left,0.8532357499934733,None,,,,,,,,476431,001,2024-12-05_12h10.13.709,Test,2024.2.4,None,2024-12-05 12h10.24.801640 +0100,
27,150,150,65,None,57,57,0,False,,,,right,0.9722751670051366,None,,,,,,,,,,,,,0,57,57,57,636.0984975410393,,,,,,,,,,,,,,,,,,,,,,,,,,,,,,,,,,,,,,,,,,,,,,,,,,,,,,,,,,,,,,,,,,,,,,,,,636.0922955410206,636.0984975410393,637.0864023330505,638.0818865410401,638.0818865410401,638.0818865410401,639.0576827910263,right,0.9722751670051366,None,,,,,,,,476431,001,2024-12-05_12h10.13.709,Test,2024.2.4,None,2024-12-05 12h10.24.801640 +0100,
10,150,30,53,None,58,58,0,False,,,,right,0.9939126250101253,None,,,,,,,,,,,,,0,58,58,58,639.0753852080088,,,,,,,,,,,,,,,,,,,,,,,,,,,,,,,,,,,,,,,,,,,,,,,,,,,,,,,,,,,,,,,,,,,,,,,,,639.0675721250009,639.0753852080088,640.0700594160007,641.0558850410162,641.0558850410162,641.0558850410162,642.0573410830111,right,0.9939126250101253,None,,,,,,,,476431,001,2024-12-05_12h10.13.709,Test,2024.2.4,None,2024-12-05 12h10.24.801640 +0100,
28,150,150,61,None,59,59,0,False,,,,right,1.0887684999615885,None,,,,,,,,,,,,,0,59,59,59,642.0754414160037,,,,,,,,,,,,,,,,,,,,,,,,,,,,,,,,,,,,,,,,,,,,,,,,,,,,,,,,,,,,,,,,,,,,,,,,,642.0684589580051,642.0754414160037,643.0705607910058,644.0558418330038,644.0558418330038,644.0558418330038,645.1513363330159,right,1.0887684999615885,None,,,,,,,,476431,001,2024-12-05_12h10.13.709,Test,2024.2.4,None,2024-12-05 12h10.24.801640 +0100,
65,150,150,31,None,60,60,0,True,,,,right,0.7122020000242628,None,,,,,,,,,,,,,0,60,60,60,645.1670575830503,,,,,,,,,,,,,,,,,,,,,,,,,,,,,,,,,,,,,,,,,,,,,,,,,,,,,,,,,,,,,,,,,,,,,,,,,645.1610112500493,645.1670575830503,646.165218500013,647.1488665830111,647.1488665830111,647.1488665830111,647.8674633330083,right,0.7122020000242628,None,,,,,,,,476431,001,2024-12-05_12h10.13.709,Test,2024.2.4,None,2024-12-05 12h10.24.801640 +0100,
51,150,90,40,None,61,61,0,True,,,,left,1.2171811669832096,None,,,,,,,,,,,,,0,61,61,61,647.8854184580268,,,,,,,,,,,,,,,,,,,,,,,,,,,,,,,,,,,,,,,,,,,,,,,,,,,,,,,,,,,,,,,,,,,,,,,,,647.8790275830543,647.8854184580268,648.8819340000045,649.8653538330109,649.8653538330109,649.8653538330109,651.0849772080546,left,1.2171811669832096,None,,,,,,,,476431,001,2024-12-05_12h10.13.709,Test,2024.2.4,None,2024-12-05 12h10.24.801640 +0100,
42,150,30,25,None,62,62,0,True,,,,left,0.7907350829918869,None,,,,,,,,,,,,,0,62,62,62,651.1023246660479,,,,,,,,,,,,,,,,,,,,,,,,,,,,,,,,,,,,,,,,,,,,,,,,,,,,,,,,,,,,,,,,,,,,,,,,,651.0962020000443,651.1023246660479,652.0987512080465,653.0820749580162,653.0820749580162,653.0820749580162,653.8841864160495,left,0.7907350829918869,None,,,,,,,,476431,001,2024-12-05_12h10.13.709,Test,2024.2.4,None,2024-12-05 12h10.24.801640 +0100,
67,150,180,43,None,63,63,0,True,,,,left,1.247310542035848,None,,,,,,,,,,,,,0,63,63,63,653.9003946660087,,,,,,,,,,,,,,,,,,,,,,,,,,,,,,,,,,,,,,,,,,,,,,,,,,,,,,,,,,,,,,,,,,,,,,,,,653.8937937080045,653.9003946660087,654.8986256660428,655.8819701660541,655.8819701660541,655.8819701660541,657.1339564580121,left,1.247310542035848,None,,,,,,,,476431,001,2024-12-05_12h10.13.709,Test,2024.2.4,None,2024-12-05 12h10.24.801640 +0100,
37,150,0,29,None,64,64,0,True,,,,left,1.006400208978448,None,,,,,,,,,,,,,0,64,64,64,657.1500848330325,,,,,,,,,,,,,,,,,,,,,,,,,,,,,,,,,,,,,,,,,,,,,,,,,,,,,,,,,,,,,,,,,,,,,,,,,657.1431717910455,657.1500848330325,658.1487027910189,659.1320767080178,659.1320767080178,659.1320767080178,660.1487979580415,left,1.006400208978448,None,,,,,,,,476431,001,2024-12-05_12h10.13.709,Test,2024.2.4,None,2024-12-05 12h10.24.801640 +0100,
4,150,0,18,None,65,65,0,False,,,,right,0.6717771249823272,None,,,,,,,,,,,,,0,65,65,65,660.1617672080174,,,,,,,,,,,,,,,,,,,,,,,,,,,,,,,,,,,,,,,,,,,,,,,,,,,,,,,,,,,,,,,,,,,,,,,,,660.1571381660178,660.1617672080174,661.1531599160517,662.1393554580281,662.1393554580281,662.1393554580281,662.817395791004,right,0.6717771249823272,None,,,,,,,,476431,001,2024-12-05_12h10.13.709,Test,2024.2.4,None,2024-12-05 12h10.24.801640 +0100,
32,150,180,50,None,66,66,0,False,,,,right,0.7743282080045901,None,,,,,,,,,,,,,0,66,66,66,662.8325574160554,,,,,,,,,,,,,,,,,,,,,,,,,,,,,,,,,,,,,,,,,,,,,,,,,,,,,,,,,,,,,,,,,,,,,,,,,662.8265937080141,662.8325574160554,663.8207364580012,664.8156428750372,664.8156428750372,664.8156428750372,665.6020735410275,right,0.7743282080045901,None,,,,,,,,476431,001,2024-12-05_12h10.13.709,Test,2024.2.4,None,2024-12-05 12h10.24.801640 +0100,
17,150,90,56,None,67,67,0,False,,,,left,0.9212542090099305,None,,,,,,,,,,,,,0,67,67,67,665.6164941250463,,,,,,,,,,,,,,,,,,,,,,,,,,,,,,,,,,,,,,,,,,,,,,,,,,,,,,,,,,,,,,,,,,,,,,,,,665.6108223750489,665.6164941250463,666.615383291035,667.598723666044,667.598723666044,667.598723666044,668.5242125410005,left,0.9212542090099305,None,,,,,,,,476431,001,2024-12-05_12h10.13.709,Test,2024.2.4,None,2024-12-05 12h10.24.801640 +0100,
38,150,0,28,None,68,68,0,True,,,,left,0.9209126249770634,None,,,,,,,,,,,,,0,68,68,68,668.5404361250112,,,,,,,,,,,,,,,,,,,,,,,,,,,,,,,,,,,,,,,,,,,,,,,,,,,,,,,,,,,,,,,,,,,,,,,,,668.5343120000325,668.5404361250112,669.5368640000233,670.5213681250461,670.5213681250461,670.5213681250461,671.4511445830576,left,0.9209126249770634,None,,,,,,,,476431,001,2024-12-05_12h10.13.709,Test,2024.2.4,None,2024-12-05 12h10.24.801640 +0100,
6,150,30,22,None,69,69,0,False,,,,left,1.192603666044306,None,,,,,,,,,,,,,0,69,69,69,671.4683778750477,,,,,,,,,,,,,,,,,,,,,,,,,,,,,,,,,,,,,,,,,,,,,,,,,,,,,,,,,,,,,,,,,,,,,,,,,671.461337625049,671.4683778750477,672.4652527910075,673.448726875009,673.448726875009,673.448726875009,674.6508900830522,left,1.192603666044306,None,,,,,,,,476431,001,2024-12-05_12h10.13.709,Test,2024.2.4,None,2024-12-05 12h10.24.801640 +0100,
,,,,,,,,,,,,,,,,,,,,,,,,,,,,,,,,,,,,,,,,,,,,,,,,,,,,,,,,,,,,,,,,,,,,,,,,,,,,,,,,,,,,,,,,,,,,,,,,,,,,,,,,,,,,,,,,,,674.6513555830461,674.6627200830262,674.6627200830262,676.8904932080186,space,2.2239624580251984,None,476431,001,2024-12-05_12h10.13.709,Test,2024.2.4,None,2024-12-05 12h10.24.801640 +0100,
