Trial_Number,Exposure_Duration,Displacement_Angle,Stimulus,Response,thisN,thisTrialN,thisRepN,Is_Distractor,key_resp_3.keys,key_resp_3.rt,key_resp_3.duration,key_resp_7.keys,key_resp_7.rt,key_resp_7.duration,trials.thisRepN,trials.thisTrialN,trials.thisN,trials.thisIndex,trials_2.thisRepN,trials_2.thisTrialN,trials_2.thisN,trials_2.thisIndex,trials_3.thisRepN,trials_3.thisTrialN,trials_3.thisN,trials_3.thisIndex,trials_4.thisRepN,trials_4.thisTrialN,trials_4.thisN,trials_4.thisIndex,thisRow.t,notes,Intro_to_experiment.started,important1_2.started,key_resp_8.started,Intro_to_experiment.stopped,key_resp_8.keys,key_resp_8.rt,key_resp_8.duration,important.started,important1.started,key_resp_4.started,important.stopped,key_resp_4.keys,key_resp_4.rt,key_resp_4.duration,instruction.started,text_7.started,key_resp_9.started,text_7.stopped,instruction.stopped,key_resp_9.keys,key_resp_9.rt,key_resp_9.duration,training_trial.started,cross.started,image.started,aperture.started,cross.stopped,image.stopped,aperture.stopped,training_trial.stopped,New_instruction.started,text.started,key_resp_2.started,New_instruction.stopped,key_resp_2.keys,key_resp_2.rt,key_resp_2.duration,test_trial.started,cross2.started,cross2.stopped,image_2.started,key_resp_3.started,aperture_2.started,test_trial.stopped,trials_2.key_resp_3.keys,trials_2.key_resp_3.rt,trials_2.key_resp_3.duration,start_blok_2.started,key_resp_5.started,text_4.started,start_blok_2.stopped,key_resp_5.keys,key_resp_5.rt,key_resp_5.duration,training_2.started,cross_2.started,image_3.started,aperture_3.started,cross_2.stopped,image_3.stopped,aperture_3.stopped,training_2.stopped,nyeste_instruks.started,text_5.started,key_resp_6.started,nyeste_instruks.stopped,key_resp_6.keys,key_resp_6.rt,key_resp_6.duration,test_2.started,cross2_2.started,cross2_2.stopped,image_4.started,key_resp_7.started,aperture_4.started,test_2.stopped,trials_4.key_resp_7.keys,trials_4.key_resp_7.rt,trials_4.key_resp_7.duration,Instruction1.started,Instruktion.started,key_resp.started,Instruction1.stopped,key_resp.keys,key_resp.rt,key_resp.duration,participant,session,date,expName,psychopyVersion,frameRate,expStart,
,,,,,,,,,,,,,,,,,,,,,,,,,,,,,,,,,0.0071441010004491545,0.01931422400230076,0.01931422400230076,47.32415864500217,space,47.28299837300074,None,,,,,,,,,,,,,,,,,,,,,,,,,,,,,,,,,,,,,,,,,,,,,,,,,,,,,,,,,,,,,,,,,,,,,,,,,,,,,,,,477402,001,2024-11-28_11h02.42.491,Test,2024.2.1,59.33769226076905,2024-11-28 11h02.50.432736 +0100,
,,,,,,,,,,,,,,,,,,,,,,,,,,,,,,,,,,,,,,,,47.324262817001,47.34122993800338,47.34122993800338,61.289358933001495,space,13.936576392999996,None,,,,,,,,,,,,,,,,,,,,,,,,,,,,,,,,,,,,,,,,,,,,,,,,,,,,,,,,,,,,,,,,,,,,,,,,,477402,001,2024-11-28_11h02.42.491,Test,2024.2.1,59.33769226076905,2024-11-28 11h02.50.432736 +0100,
,,,,,,,,,,,,,,,,,,,,,,,,,,,,,,,,,,,,,,,,,,,,,,,61.28942338800334,61.30305908800074,61.30305908800074,62.302794683000684,69.57442998900297,space,8.266665376999299,None,,,,,,,,,,,,,,,,,,,,,,,,,,,,,,,,,,,,,,,,,,,,,,,,,,,,,,,,,,,,,,,,,477402,001,2024-11-28_11h02.42.491,Test,2024.2.1,59.33769226076905,2024-11-28 11h02.50.432736 +0100,
15,150,60,61,None,0,0,0,,,,,,,,0,0,0,14,,,,,,,,,,,,,69.59945300700201,,,,,,,,,,,,,,,,,,,,,,,,69.5904459830017,69.59945300700201,69.78618534700217,69.78618534700217,69.80353760100115,71.50256400200306,71.50256400200306,71.47142915100267,,,,,,,,,,,,,,,,,,,,,,,,,,,,,,,,,,,,,,,,,,,,,,,,,,,,,,,,,477402,001,2024-11-28_11h02.42.491,Test,2024.2.1,59.33769226076905,2024-11-28 11h02.50.432736 +0100,
29,150,150,13,None,1,1,0,,,,,,,,0,1,1,28,,,,,,,,,,,,,71.50256400200306,,,,,,,,,,,,,,,,,,,,,,,,71.47930542700124,71.50256400200306,71.68718099700345,71.68718099700345,71.70414054000139,73.38846564699998,73.38846564699998,73.37224254000103,,,,,,,,,,,,,,,,,,,,,,,,,,,,,,,,,,,,,,,,,,,,,,,,,,,,,,,,,477402,001,2024-11-28_11h02.42.491,Test,2024.2.1,59.33769226076905,2024-11-28 11h02.50.432736 +0100,
27,150,150,62,None,2,2,0,,,,,,,,0,2,2,26,,,,,,,,,,,,,73.38846564699998,,,,,,,,,,,,,,,,,,,,,,,,73.37956052600202,73.38846564699998,73.58752870300304,73.58752870300304,73.58752870300304,,,75.28621824300353,,,,,,,,,,,,,,,,,,,,,,,,,,,,,,,,,,,,,,,,,,,,,,,,,,,,,,,,,477402,001,2024-11-28_11h02.42.491,Test,2024.2.1,59.33769226076905,2024-11-28 11h02.50.432736 +0100,
22,150,120,65,None,3,3,0,,,,,,,,0,3,3,21,,,,,,,,,,,,,75.30900584400297,,,,,,,,,,,,,,,,,,,,,,,,75.29036354600248,75.30900584400297,75.48708241400163,75.48708241400163,75.52035325500037,77.1870668920019,77.1870668920019,77.17085677300201,,,,,,,,,,,,,,,,,,,,,,,,,,,,,,,,,,,,,,,,,,,,,,,,,,,,,,,,,477402,001,2024-11-28_11h02.42.491,Test,2024.2.1,59.33769226076905,2024-11-28 11h02.50.432736 +0100,
24,150,120,33,None,4,4,0,,,,,,,,0,4,4,23,,,,,,,,,,,,,77.1870668920019,,,,,,,,,,,,,,,,,,,,,,,,77.17433245900247,77.1870668920019,77.38670664600068,77.38670664600068,77.38670664600068,79.08678244800103,79.08678244800103,79.07096620500306,,,,,,,,,,,,,,,,,,,,,,,,,,,,,,,,,,,,,,,,,,,,,,,,,,,,,,,,,477402,001,2024-11-28_11h02.42.491,Test,2024.2.1,59.33769226076905,2024-11-28 11h02.50.432736 +0100,
4,150,0,11,None,5,5,0,,,,,,,,0,5,5,3,,,,,,,,,,,,,79.08678244800103,,,,,,,,,,,,,,,,,,,,,,,,79.07444243000282,79.08678244800103,79.28778230400349,79.28778230400349,79.28778230400349,80.98709850800151,80.98709850800151,80.971203178,,,,,,,,,,,,,,,,,,,,,,,,,,,,,,,,,,,,,,,,,,,,,,,,,,,,,,,,,477402,001,2024-11-28_11h02.42.491,Test,2024.2.1,59.33769226076905,2024-11-28 11h02.50.432736 +0100,
2,150,0,27,None,6,6,0,,,,,,,,0,6,6,1,,,,,,,,,,,,,80.98709850800151,,,,,,,,,,,,,,,,,,,,,,,,80.97510729800342,80.98709850800151,81.18719695600157,81.18719695600157,81.18719695600157,82.88753508800073,82.88753508800073,82.87272608100102,,,,,,,,,,,,,,,,,,,,,,,,,,,,,,,,,,,,,,,,,,,,,,,,,,,,,,,,,477402,001,2024-11-28_11h02.42.491,Test,2024.2.1,59.33769226076905,2024-11-28 11h02.50.432736 +0100,
26,150,150,14,None,7,7,0,,,,,,,,0,7,7,25,,,,,,,,,,,,,82.88753508800073,,,,,,,,,,,,,,,,,,,,,,,,82.87921358300082,82.88753508800073,83.08790818000125,83.08790818000125,83.08790818000125,84.78800483500163,84.78800483500163,84.77301948100285,,,,,,,,,,,,,,,,,,,,,,,,,,,,,,,,,,,,,,,,,,,,,,,,,,,,,,,,,477402,001,2024-11-28_11h02.42.491,Test,2024.2.1,59.33769226076905,2024-11-28 11h02.50.432736 +0100,
33,150,180,3,None,8,8,0,,,,,,,,0,8,8,32,,,,,,,,,,,,,84.78800483500163,,,,,,,,,,,,,,,,,,,,,,,,84.77950526100176,84.78800483500163,84.9872901120034,84.9872901120034,84.9872901120034,86.68807480100077,86.68807480100077,86.67284716200083,,,,,,,,,,,,,,,,,,,,,,,,,,,,,,,,,,,,,,,,,,,,,,,,,,,,,,,,,477402,001,2024-11-28_11h02.42.491,Test,2024.2.1,59.33769226076905,2024-11-28 11h02.50.432736 +0100,
9,150,30,50,None,9,9,0,,,,,,,,0,9,9,8,,,,,,,,,,,,,86.68807480100077,,,,,,,,,,,,,,,,,,,,,,,,86.67968704100349,86.68807480100077,86.88793214300313,86.88793214300313,86.88793214300313,88.58749319500203,88.58749319500203,88.57204610700137,,,,,,,,,,,,,,,,,,,,,,,,,,,,,,,,,,,,,,,,,,,,,,,,,,,,,,,,,477402,001,2024-11-28_11h02.42.491,Test,2024.2.1,59.33769226076905,2024-11-28 11h02.50.432736 +0100,
31,150,180,17,None,10,10,0,,,,,,,,0,10,10,30,,,,,,,,,,,,,88.58749319500203,,,,,,,,,,,,,,,,,,,,,,,,88.57587623400104,88.58749319500203,88.78764112200224,88.78764112200224,88.78764112200224,90.48805639400234,90.48805639400234,90.47185550100039,,,,,,,,,,,,,,,,,,,,,,,,,,,,,,,,,,,,,,,,,,,,,,,,,,,,,,,,,477402,001,2024-11-28_11h02.42.491,Test,2024.2.1,59.33769226076905,2024-11-28 11h02.50.432736 +0100,
16,150,90,58,None,11,11,0,,,,,,,,0,11,11,15,,,,,,,,,,,,,90.48805639400234,,,,,,,,,,,,,,,,,,,,,,,,90.4756374810022,90.48805639400234,90.6877223870033,90.6877223870033,90.6877223870033,92.38883008500125,92.38883008500125,92.37347361100183,,,,,,,,,,,,,,,,,,,,,,,,,,,,,,,,,,,,,,,,,,,,,,,,,,,,,,,,,477402,001,2024-11-28_11h02.42.491,Test,2024.2.1,59.33769226076905,2024-11-28 11h02.50.432736 +0100,
34,150,180,57,None,12,12,0,,,,,,,,0,12,12,33,,,,,,,,,,,,,92.38883008500125,,,,,,,,,,,,,,,,,,,,,,,,92.37994597200304,92.38883008500125,92.58817785300198,92.58817785300198,92.58817785300198,94.2882600050034,94.2882600050034,94.27343746700353,,,,,,,,,,,,,,,,,,,,,,,,,,,,,,,,,,,,,,,,,,,,,,,,,,,,,,,,,477402,001,2024-11-28_11h02.42.491,Test,2024.2.1,59.33769226076905,2024-11-28 11h02.50.432736 +0100,
19,150,90,44,None,13,13,0,,,,,,,,0,13,13,18,,,,,,,,,,,,,94.2882600050034,,,,,,,,,,,,,,,,,,,,,,,,94.27980101000139,94.2882600050034,94.48807771000065,94.48807771000065,94.48807771000065,96.18887778300268,96.18887778300268,96.17358390500158,,,,,,,,,,,,,,,,,,,,,,,,,,,,,,,,,,,,,,,,,,,,,,,,,,,,,,,,,477402,001,2024-11-28_11h02.42.491,Test,2024.2.1,59.33769226076905,2024-11-28 11h02.50.432736 +0100,
5,150,0,42,None,14,14,0,,,,,,,,0,14,14,4,,,,,,,,,,,,,96.18887778300268,,,,,,,,,,,,,,,,,,,,,,,,96.18000167400169,96.18887778300268,96.38907826700233,96.38907826700233,96.38907826700233,98.0938922710011,98.0938922710011,98.07388352800263,,,,,,,,,,,,,,,,,,,,,,,,,,,,,,,,,,,,,,,,,,,,,,,,,,,,,,,,,477402,001,2024-11-28_11h02.42.491,Test,2024.2.1,59.33769226076905,2024-11-28 11h02.50.432736 +0100,
7,150,30,34,None,15,15,0,,,,,,,,0,15,15,6,,,,,,,,,,,,,98.0938922710011,,,,,,,,,,,,,,,,,,,,,,,,98.08557154600203,98.0938922710011,98.2887772330032,98.2887772330032,98.30555636100326,99.98827534200245,99.98827534200245,99.97237131100337,,,,,,,,,,,,,,,,,,,,,,,,,,,,,,,,,,,,,,,,,,,,,,,,,,,,,,,,,477402,001,2024-11-28_11h02.42.491,Test,2024.2.1,59.33769226076905,2024-11-28 11h02.50.432736 +0100,
10,150,30,67,None,16,16,0,,,,,,,,0,16,16,9,,,,,,,,,,,,,99.98827534200245,,,,,,,,,,,,,,,,,,,,,,,,99.97771503100012,99.98827534200245,100.18937781300338,100.18937781300338,100.18937781300338,101.88976696400277,101.88976696400277,101.87381895600265,,,,,,,,,,,,,,,,,,,,,,,,,,,,,,,,,,,,,,,,,,,,,,,,,,,,,,,,,477402,001,2024-11-28_11h02.42.491,Test,2024.2.1,59.33769226076905,2024-11-28 11h02.50.432736 +0100,
32,150,180,26,None,17,17,0,,,,,,,,0,17,17,31,,,,,,,,,,,,,101.88976696400277,,,,,,,,,,,,,,,,,,,,,,,,101.88094828900284,101.88976696400277,102.08914140100023,102.08914140100023,102.08914140100023,103.7895444550013,103.7895444550013,103.7740607040032,,,,,,,,,,,,,,,,,,,,,,,,,,,,,,,,,,,,,,,,,,,,,,,,,,,,,,,,,477402,001,2024-11-28_11h02.42.491,Test,2024.2.1,59.33769226076905,2024-11-28 11h02.50.432736 +0100,
18,150,90,40,None,18,18,0,,,,,,,,0,18,18,17,,,,,,,,,,,,,103.7895444550013,,,,,,,,,,,,,,,,,,,,,,,,103.78079484600312,103.7895444550013,103.98858001600092,103.98858001600092,103.98858001600092,105.68909227200129,105.68909227200129,105.67428393299997,,,,,,,,,,,,,,,,,,,,,,,,,,,,,,,,,,,,,,,,,,,,,,,,,,,,,,,,,477402,001,2024-11-28_11h02.42.491,Test,2024.2.1,59.33769226076905,2024-11-28 11h02.50.432736 +0100,
35,150,180,12,None,19,19,0,,,,,,,,0,19,19,34,,,,,,,,,,,,,105.68909227200129,,,,,,,,,,,,,,,,,,,,,,,,105.68075240899998,105.68909227200129,105.88879660900056,105.88879660900056,105.88879660900056,107.58910539000135,107.58910539000135,107.5743652300007,,,,,,,,,,,,,,,,,,,,,,,,,,,,,,,,,,,,,,,,,,,,,,,,,,,,,,,,,477402,001,2024-11-28_11h02.42.491,Test,2024.2.1,59.33769226076905,2024-11-28 11h02.50.432736 +0100,
25,150,120,59,None,20,20,0,,,,,,,,0,20,20,24,,,,,,,,,,,,,107.58910539000135,,,,,,,,,,,,,,,,,,,,,,,,107.58067423100147,107.58910539000135,107.789116750002,107.789116750002,107.789116750002,109.48884811600146,109.48884811600146,109.47361675200227,,,,,,,,,,,,,,,,,,,,,,,,,,,,,,,,,,,,,,,,,,,,,,,,,,,,,,,,,477402,001,2024-11-28_11h02.42.491,Test,2024.2.1,59.33769226076905,2024-11-28 11h02.50.432736 +0100,
12,150,60,1,None,21,21,0,,,,,,,,0,21,21,11,,,,,,,,,,,,,109.48884811600146,,,,,,,,,,,,,,,,,,,,,,,,109.47747547900144,109.48884811600146,109.68906827500177,109.68906827500177,109.68906827500177,111.38916110300124,111.38916110300124,111.37317344300027,,,,,,,,,,,,,,,,,,,,,,,,,,,,,,,,,,,,,,,,,,,,,,,,,,,,,,,,,477402,001,2024-11-28_11h02.42.491,Test,2024.2.1,59.33769226076905,2024-11-28 11h02.50.432736 +0100,
28,150,150,70,None,22,22,0,,,,,,,,0,22,22,27,,,,,,,,,,,,,111.38916110300124,,,,,,,,,,,,,,,,,,,,,,,,111.37684751900088,111.38916110300124,111.58929709200311,111.58929709200311,111.58929709200311,113.29115056500086,113.29115056500086,113.27471712400074,,,,,,,,,,,,,,,,,,,,,,,,,,,,,,,,,,,,,,,,,,,,,,,,,,,,,,,,,477402,001,2024-11-28_11h02.42.491,Test,2024.2.1,59.33769226076905,2024-11-28 11h02.50.432736 +0100,
30,150,150,46,None,23,23,0,,,,,,,,0,23,23,29,,,,,,,,,,,,,113.29115056500086,,,,,,,,,,,,,,,,,,,,,,,,113.28134758700253,113.29115056500086,113.48982555800103,113.48982555800103,113.50619156000175,115.18999456900201,115.18999456900201,115.17459513400172,,,,,,,,,,,,,,,,,,,,,,,,,,,,,,,,,,,,,,,,,,,,,,,,,,,,,,,,,477402,001,2024-11-28_11h02.42.491,Test,2024.2.1,59.33769226076905,2024-11-28 11h02.50.432736 +0100,
21,150,120,38,None,24,24,0,,,,,,,,0,24,24,20,,,,,,,,,,,,,115.18999456900201,,,,,,,,,,,,,,,,,,,,,,,,115.18122360800044,115.18999456900201,115.37359237700002,115.37359237700002,115.39119257600032,117.0732233910021,117.0732233910021,117.0575760310021,,,,,,,,,,,,,,,,,,,,,,,,,,,,,,,,,,,,,,,,,,,,,,,,,,,,,,,,,477402,001,2024-11-28_11h02.42.491,Test,2024.2.1,59.33769226076905,2024-11-28 11h02.50.432736 +0100,
3,150,0,35,None,25,25,0,,,,,,,,0,25,25,2,,,,,,,,,,,,,117.0732233910021,,,,,,,,,,,,,,,,,,,,,,,,117.06156642200222,117.09009680600138,117.27404414600096,117.27404414600096,117.29052088600292,118.97354084900144,118.97354084900144,118.95730518100027,,,,,,,,,,,,,,,,,,,,,,,,,,,,,,,,,,,,,,,,,,,,,,,,,,,,,,,,,477402,001,2024-11-28_11h02.42.491,Test,2024.2.1,59.33769226076905,2024-11-28 11h02.50.432736 +0100,
20,150,90,15,None,26,26,0,,,,,,,,0,26,26,19,,,,,,,,,,,,,118.97354084900144,,,,,,,,,,,,,,,,,,,,,,,,118.96105935500236,118.99067184200248,119.17380435200175,119.17380435200175,119.1905767740027,120.87315151900111,120.87315151900111,120.85736019900287,,,,,,,,,,,,,,,,,,,,,,,,,,,,,,,,,,,,,,,,,,,,,,,,,,,,,,,,,477402,001,2024-11-28_11h02.42.491,Test,2024.2.1,59.33769226076905,2024-11-28 11h02.50.432736 +0100,
17,150,90,52,None,27,27,0,,,,,,,,0,27,27,16,,,,,,,,,,,,,120.87315151900111,,,,,,,,,,,,,,,,,,,,,,,,120.8609078920017,120.8899726530035,121.07428674500261,121.07428674500261,121.09087010900112,122.77327461300229,122.77327461300229,122.75757380300274,,,,,,,,,,,,,,,,,,,,,,,,,,,,,,,,,,,,,,,,,,,,,,,,,,,,,,,,,477402,001,2024-11-28_11h02.42.491,Test,2024.2.1,59.33769226076905,2024-11-28 11h02.50.432736 +0100,
23,150,120,8,None,28,28,0,,,,,,,,0,28,28,22,,,,,,,,,,,,,122.77327461300229,,,,,,,,,,,,,,,,,,,,,,,,122.76223765500254,122.79033231500216,122.98997365400282,122.98997365400282,122.98997365400282,124.69039846900341,124.69039846900341,124.67544564200216,,,,,,,,,,,,,,,,,,,,,,,,,,,,,,,,,,,,,,,,,,,,,,,,,,,,,,,,,477402,001,2024-11-28_11h02.42.491,Test,2024.2.1,59.33769226076905,2024-11-28 11h02.50.432736 +0100,
1,150,0,28,None,29,29,0,,,,,,,,0,29,29,0,,,,,,,,,,,,,124.69039846900341,,,,,,,,,,,,,,,,,,,,,,,,124.68187061900244,124.69039846900341,124.87353106700175,124.87353106700175,124.89018603400109,126.57354330500311,126.57354330500311,126.55805896000311,,,,,,,,,,,,,,,,,,,,,,,,,,,,,,,,,,,,,,,,,,,,,,,,,,,,,,,,,477402,001,2024-11-28_11h02.42.491,Test,2024.2.1,59.33769226076905,2024-11-28 11h02.50.432736 +0100,
13,150,60,32,None,30,30,0,,,,,,,,0,30,30,12,,,,,,,,,,,,,126.57354330500311,,,,,,,,,,,,,,,,,,,,,,,,126.56176761800089,126.57354330500311,126.77443176400266,126.77443176400266,126.77443176400266,128.47478667100222,128.47478667100222,128.45920250300333,,,,,,,,,,,,,,,,,,,,,,,,,,,,,,,,,,,,,,,,,,,,,,,,,,,,,,,,,477402,001,2024-11-28_11h02.42.491,Test,2024.2.1,59.33769226076905,2024-11-28 11h02.50.432736 +0100,
6,150,30,24,None,31,31,0,,,,,,,,0,31,31,5,,,,,,,,,,,,,128.47478667100222,,,,,,,,,,,,,,,,,,,,,,,,128.46583607100183,128.47478667100222,128.67387876500288,128.67387876500288,128.67387876500288,130.37413245000062,130.37413245000062,130.35821273700276,,,,,,,,,,,,,,,,,,,,,,,,,,,,,,,,,,,,,,,,,,,,,,,,,,,,,,,,,477402,001,2024-11-28_11h02.42.491,Test,2024.2.1,59.33769226076905,2024-11-28 11h02.50.432736 +0100,
11,150,60,51,None,32,32,0,,,,,,,,0,32,32,10,,,,,,,,,,,,,130.37413245000062,,,,,,,,,,,,,,,,,,,,,,,,130.36203538300106,130.37413245000062,130.57390120900163,130.57390120900163,130.57390120900163,132.27390819300126,132.27390819300126,132.25961833900146,,,,,,,,,,,,,,,,,,,,,,,,,,,,,,,,,,,,,,,,,,,,,,,,,,,,,,,,,477402,001,2024-11-28_11h02.42.491,Test,2024.2.1,59.33769226076905,2024-11-28 11h02.50.432736 +0100,
14,150,60,21,None,33,33,0,,,,,,,,0,33,33,13,,,,,,,,,,,,,132.27390819300126,,,,,,,,,,,,,,,,,,,,,,,,132.26509090900072,132.27390819300126,132.47406810100074,132.47406810100074,132.47406810100074,134.17374787100198,134.17374787100198,134.15761348500018,,,,,,,,,,,,,,,,,,,,,,,,,,,,,,,,,,,,,,,,,,,,,,,,,,,,,,,,,477402,001,2024-11-28_11h02.42.491,Test,2024.2.1,59.33769226076905,2024-11-28 11h02.50.432736 +0100,
8,150,30,10,None,34,34,0,,,,,,,,0,34,34,7,,,,,,,,,,,,,134.17374787100198,,,,,,,,,,,,,,,,,,,,,,,,134.1624870960004,134.17374787100198,134.37491808100094,134.37491808100094,134.37491808100094,136.07407523400252,136.07407523400252,136.058316198003,,,,,,,,,,,,,,,,,,,,,,,,,,,,,,,,,,,,,,,,,,,,,,,,,,,,,,,,,477402,001,2024-11-28_11h02.42.491,Test,2024.2.1,59.33769226076905,2024-11-28 11h02.50.432736 +0100,
,,,,,,,,,,,,,,,,,,,,,,,,,,,,,,,,,,,,,,,,,,,,,,,,,,,,,,,,,,,,,,,136.05845952100208,136.07407523400252,136.07407523400252,145.50998816500214,space,9.42326223100099,None,,,,,,,,,,,,,,,,,,,,,,,,,,,,,,,,,,,,,,,,,,,,,,,,,,477402,001,2024-11-28_11h02.42.491,Test,2024.2.1,59.33769226076905,2024-11-28 11h02.50.432736 +0100,
29,150,150,13,None,0,0,0,False,right,0.8694224069986376,None,,,,,,,,0,0,0,0,,,,,,,,,145.53207990900046,,,,,,,,,,,,,,,,,,,,,,,,,,,,,,,,,,,,,,,145.52327854700343,145.53207990900046,146.54189679800038,147.52531092200297,147.52531092200297,147.52531092200297,148.40997258500283,right,0.8694224069986376,None,,,,,,,,,,,,,,,,,,,,,,,,,,,,,,,,,,,,,,,,477402,001,2024-11-28_11h02.42.491,Test,2024.2.1,59.33769226076905,2024-11-28 11h02.50.432736 +0100,
48,150,60,19,None,1,1,0,True,left,0.767195016000187,None,,,,,,,,0,1,1,1,,,,,,,,,148.43059061000167,,,,,,,,,,,,,,,,,,,,,,,,,,,,,,,,,,,,,,,148.41362502200354,148.43059061000167,149.4423716520032,150.4094804860033,150.4094804860033,150.4094804860033,151.19370936900305,left,0.767195016000187,None,,,,,,,,,,,,,,,,,,,,,,,,,,,,,,,,,,,,,,,,477402,001,2024-11-28_11h02.42.491,Test,2024.2.1,59.33769226076905,2024-11-28 11h02.50.432736 +0100,
63,150,150,69,None,2,2,0,True,right,0.6582642850007687,None,,,,,,,,0,2,2,2,,,,,,,,,151.20907540100234,,,,,,,,,,,,,,,,,,,,,,,,,,,,,,,,,,,,,,,151.19719426600204,151.20907540100234,152.20991016900007,153.20924704400022,153.20924704400022,153.20924704400022,153.8769098970006,right,0.6582642850007687,None,,,,,,,,,,,,,,,,,,,,,,,,,,,,,,,,,,,,,,,,477402,001,2024-11-28_11h02.42.491,Test,2024.2.1,59.33769226076905,2024-11-28 11h02.50.432736 +0100,
5,150,0,42,None,3,3,0,False,right,0.7889283220029029,None,,,,,,,,0,3,3,3,,,,,,,,,153.8921021490023,,,,,,,,,,,,,,,,,,,,,,,,,,,,,,,,,,,,,,,153.88083025000014,153.8921021490023,154.89311634300248,155.89245918400047,155.89245918400047,155.89245918400047,156.69358506500066,right,0.7889283220029029,None,,,,,,,,,,,,,,,,,,,,,,,,,,,,,,,,,,,,,,,,477402,001,2024-11-28_11h02.42.491,Test,2024.2.1,59.33769226076905,2024-11-28 11h02.50.432736 +0100,
62,150,150,43,None,4,4,0,True,left,0.7569951699988451,None,,,,,,,,0,4,4,4,,,,,,,,,156.70921479600293,,,,,,,,,,,,,,,,,,,,,,,,,,,,,,,,,,,,,,,156.69704549400194,156.70921479600293,157.70902959400337,158.6933884630016,158.6933884630016,158.6933884630016,159.4609139330023,left,0.7569951699988451,None,,,,,,,,,,,,,,,,,,,,,,,,,,,,,,,,,,,,,,,,477402,001,2024-11-28_11h02.42.491,Test,2024.2.1,59.33769226076905,2024-11-28 11h02.50.432736 +0100,
70,150,180,48,None,5,5,0,True,right,0.9425086850023945,None,,,,,,,,0,5,5,5,,,,,,,,,159.47543721600232,,,,,,,,,,,,,,,,,,,,,,,,,,,,,,,,,,,,,,,159.46443522900154,159.47543721600232,160.477087700001,161.47624223500316,161.47624223500316,161.47624223500316,162.42920967400278,right,0.9425086850023945,None,,,,,,,,,,,,,,,,,,,,,,,,,,,,,,,,,,,,,,,,477402,001,2024-11-28_11h02.42.491,Test,2024.2.1,59.33769226076905,2024-11-28 11h02.50.432736 +0100,
33,150,180,3,None,6,6,0,False,right,1.1771539090004808,None,,,,,,,,0,6,6,6,,,,,,,,,162.4427244380022,,,,,,,,,,,,,,,,,,,,,,,,,,,,,,,,,,,,,,,162.4333957400013,162.4427244380022,163.4429560790013,164.44407670500004,164.44407670500004,164.44407670500004,165.6303385900028,right,1.1771539090004808,None,,,,,,,,,,,,,,,,,,,,,,,,,,,,,,,,,,,,,,,,477402,001,2024-11-28_11h02.42.491,Test,2024.2.1,59.33769226076905,2024-11-28 11h02.50.432736 +0100,
12,150,60,1,None,7,7,0,False,left,1.0196805900013715,None,,,,,,,,0,7,7,7,,,,,,,,,165.64515391100213,,,,,,,,,,,,,,,,,,,,,,,,,,,,,,,,,,,,,,,165.63606838600026,165.64515391100213,166.659413925001,167.64314303000356,167.64314303000356,167.64314303000356,168.67821919000198,left,1.0196805900013715,None,,,,,,,,,,,,,,,,,,,,,,,,,,,,,,,,,,,,,,,,477402,001,2024-11-28_11h02.42.491,Test,2024.2.1,59.33769226076905,2024-11-28 11h02.50.432736 +0100,
15,150,60,61,None,8,8,0,False,right,0.8355086800002027,None,,,,,,,,0,8,8,8,,,,,,,,,168.6928752870008,,,,,,,,,,,,,,,,,,,,,,,,,,,,,,,,,,,,,,,168.68177405700044,168.6928752870008,169.69323159600026,170.69332185500025,170.69332185500025,170.69332185500025,171.5454070090018,right,0.8355086800002027,None,,,,,,,,,,,,,,,,,,,,,,,,,,,,,,,,,,,,,,,,477402,001,2024-11-28_11h02.42.491,Test,2024.2.1,59.33769226076905,2024-11-28 11h02.50.432736 +0100,
41,150,30,23,None,9,9,0,True,left,0.807950938000431,None,,,,,,,,0,9,9,9,,,,,,,,,171.559409169,,,,,,,,,,,,,,,,,,,,,,,,,,,,,,,,,,,,,,,171.54896110700065,171.559409169,172.5609635940018,173.5610617270031,173.5610617270031,173.5610617270031,174.37830950000352,left,0.807950938000431,None,,,,,,,,,,,,,,,,,,,,,,,,,,,,,,,,,,,,,,,,477402,001,2024-11-28_11h02.42.491,Test,2024.2.1,59.33769226076905,2024-11-28 11h02.50.432736 +0100,
6,150,30,24,None,10,10,0,False,left,1.1269937529978051,None,,,,,,,,0,10,10,10,,,,,,,,,174.39320361400314,,,,,,,,,,,,,,,,,,,,,,,,,,,,,,,,,,,,,,,174.38169572500192,174.39320361400314,175.39378214200042,176.3781168500027,176.3781168500027,176.3781168500027,177.5131923140034,left,1.1269937529978051,None,,,,,,,,,,,,,,,,,,,,,,,,,,,,,,,,,,,,,,,,477402,001,2024-11-28_11h02.42.491,Test,2024.2.1,59.33769226076905,2024-11-28 11h02.50.432736 +0100,
56,150,120,2,None,11,11,0,True,left,1.153099134000513,None,,,,,,,,0,11,11,11,,,,,,,,,177.52714731400192,,,,,,,,,,,,,,,,,,,,,,,,,,,,,,,,,,,,,,,177.51664171300217,177.52714731400192,178.52761140700022,179.52724379900246,179.52724379900246,179.52724379900246,180.69527384400135,left,1.153099134000513,None,,,,,,,,,,,,,,,,,,,,,,,,,,,,,,,,,,,,,,,,477402,001,2024-11-28_11h02.42.491,Test,2024.2.1,59.33769226076905,2024-11-28 11h02.50.432736 +0100,
43,150,30,6,None,12,12,0,True,left,0.811277273001906,None,,,,,,,,0,12,12,12,,,,,,,,,180.7100746670003,,,,,,,,,,,,,,,,,,,,,,,,,,,,,,,,,,,,,,,180.698695932002,180.7100746670003,181.71177012500266,182.69489855800202,182.69489855800202,182.69489855800202,183.51252730600027,left,0.811277273001906,None,,,,,,,,,,,,,,,,,,,,,,,,,,,,,,,,,,,,,,,,477402,001,2024-11-28_11h02.42.491,Test,2024.2.1,59.33769226076905,2024-11-28 11h02.50.432736 +0100,
37,150,0,41,None,13,13,0,True,right,0.7104279320010392,None,,,,,,,,0,13,13,13,,,,,,,,,183.52759981300187,,,,,,,,,,,,,,,,,,,,,,,,,,,,,,,,,,,,,,,183.51592623800025,183.52759981300187,184.52837079800156,185.51241466800275,185.51241466800275,185.51241466800275,186.23127648800073,right,0.7104279320010392,None,,,,,,,,,,,,,,,,,,,,,,,,,,,,,,,,,,,,,,,,477402,001,2024-11-28_11h02.42.491,Test,2024.2.1,59.33769226076905,2024-11-28 11h02.50.432736 +0100,
27,150,150,62,None,14,14,0,False,right,0.9340445829984674,None,,,,,,,,0,14,14,14,,,,,,,,,186.2444010700019,,,,,,,,,,,,,,,,,,,,,,,,,,,,,,,,,,,,,,,186.23550677500316,186.2444010700019,187.24442827400344,188.24484066600053,188.24484066600053,188.24484066600053,189.19556087599994,right,0.9340445829984674,None,,,,,,,,,,,,,,,,,,,,,,,,,,,,,,,,,,,,,,,,477402,001,2024-11-28_11h02.42.491,Test,2024.2.1,59.33769226076905,2024-11-28 11h02.50.432736 +0100,
52,150,90,47,None,15,15,0,True,right,1.0776649700019334,None,,,,,,,,0,15,15,15,,,,,,,,,189.2115621380035,,,,,,,,,,,,,,,,,,,,,,,,,,,,,,,,,,,,,,,189.1993269700033,189.2115621380035,190.2112451030007,191.19586540100136,191.19586540100136,191.19586540100136,192.2802012480024,right,1.0776649700019334,None,,,,,,,,,,,,,,,,,,,,,,,,,,,,,,,,,,,,,,,,477402,001,2024-11-28_11h02.42.491,Test,2024.2.1,59.33769226076905,2024-11-28 11h02.50.432736 +0100,
19,150,90,44,None,16,16,0,False,right,1.0012227820006956,None,,,,,,,,0,16,16,16,,,,,,,,,192.2950162490015,,,,,,,,,,,,,,,,,,,,,,,,,,,,,,,,,,,,,,,192.28394835400104,192.2950162490015,193.29527242600307,194.29508705100307,194.29508705100307,194.29508705100307,195.31402191300003,right,1.0012227820006956,None,,,,,,,,,,,,,,,,,,,,,,,,,,,,,,,,,,,,,,,,477402,001,2024-11-28_11h02.42.491,Test,2024.2.1,59.33769226076905,2024-11-28 11h02.50.432736 +0100,
3,150,0,35,None,17,17,0,False,right,0.9392930350004463,None,,,,,,,,0,17,17,17,,,,,,,,,195.32840254200346,,,,,,,,,,,,,,,,,,,,,,,,,,,,,,,,,,,,,,,195.31750528600242,195.32840254200346,196.32840276000206,197.32851112700155,197.32851112700155,197.32851112700155,198.28001415400286,right,0.9392930350004463,None,,,,,,,,,,,,,,,,,,,,,,,,,,,,,,,,,,,,,,,,477402,001,2024-11-28_11h02.42.491,Test,2024.2.1,59.33769226076905,2024-11-28 11h02.50.432736 +0100,
47,150,60,29,None,18,18,0,True,left,0.7848749789991416,None,,,,,,,,0,18,18,18,,,,,,,,,198.29537854700175,,,,,,,,,,,,,,,,,,,,,,,,,,,,,,,,,,,,,,,198.28354988700085,198.29537854700175,199.29519290700046,200.27862543200172,200.27862543200172,200.27862543200172,201.0805841620022,left,0.7848749789991416,None,,,,,,,,,,,,,,,,,,,,,,,,,,,,,,,,,,,,,,,,477402,001,2024-11-28_11h02.42.491,Test,2024.2.1,59.33769226076905,2024-11-28 11h02.50.432736 +0100,
68,150,180,36,None,19,19,0,True,left,1.0211948600008327,None,,,,,,,,0,19,19,19,,,,,,,,,201.0952871720001,,,,,,,,,,,,,,,,,,,,,,,,,,,,,,,,,,,,,,,201.0840767380032,201.0952871720001,202.09531911700105,203.0797368070016,203.0797368070016,203.0797368070016,204.11355968000134,left,1.0211948600008327,None,,,,,,,,,,,,,,,,,,,,,,,,,,,,,,,,,,,,,,,,477402,001,2024-11-28_11h02.42.491,Test,2024.2.1,59.33769226076905,2024-11-28 11h02.50.432736 +0100,
9,150,30,50,None,20,20,0,False,right,0.9571021900010237,None,,,,,,,,0,20,20,20,,,,,,,,,204.12866654800018,,,,,,,,,,,,,,,,,,,,,,,,,,,,,,,,,,,,,,,204.11721840600148,204.12866654800018,205.12975849800205,206.11356114299997,206.11356114299997,206.11356114299997,207.08126757100035,right,0.9571021900010237,None,,,,,,,,,,,,,,,,,,,,,,,,,,,,,,,,,,,,,,,,477402,001,2024-11-28_11h02.42.491,Test,2024.2.1,59.33769226076905,2024-11-28 11h02.50.432736 +0100,
42,150,30,63,None,21,21,0,True,right,0.9143609069978993,None,,,,,,,,0,21,21,21,,,,,,,,,207.09617399900162,,,,,,,,,,,,,,,,,,,,,,,,,,,,,,,,,,,,,,,207.0849931240009,207.09617399900162,208.09691461500188,209.0967063820026,209.0967063820026,209.0967063820026,210.0152389990035,right,0.9143609069978993,None,,,,,,,,,,,,,,,,,,,,,,,,,,,,,,,,,,,,,,,,477402,001,2024-11-28_11h02.42.491,Test,2024.2.1,59.33769226076905,2024-11-28 11h02.50.432736 +0100,
17,150,90,52,None,22,22,0,False,right,0.9481113639994874,None,,,,,,,,0,22,22,22,,,,,,,,,210.02886130700062,,,,,,,,,,,,,,,,,,,,,,,,,,,,,,,,,,,,,,,210.01867626700187,210.02886130700062,211.02979872200012,212.0292851990016,212.0292851990016,212.0292851990016,212.9835302490028,right,0.9481113639994874,None,,,,,,,,,,,,,,,,,,,,,,,,,,,,,,,,,,,,,,,,477402,001,2024-11-28_11h02.42.491,Test,2024.2.1,59.33769226076905,2024-11-28 11h02.50.432736 +0100,
38,150,0,56,None,23,23,0,True,left,0.6878254729999753,None,,,,,,,,0,23,23,23,,,,,,,,,212.9960280430023,,,,,,,,,,,,,,,,,,,,,,,,,,,,,,,,,,,,,,,212.98728387900337,212.9960280430023,213.99716879000334,214.99758861900045,214.99758861900045,214.99758861900045,215.69695606800087,left,0.6878254729999753,None,,,,,,,,,,,,,,,,,,,,,,,,,,,,,,,,,,,,,,,,477402,001,2024-11-28_11h02.42.491,Test,2024.2.1,59.33769226076905,2024-11-28 11h02.50.432736 +0100,
34,150,180,57,None,24,24,0,False,right,0.9524556800024584,None,,,,,,,,0,24,24,24,,,,,,,,,215.7127865850016,,,,,,,,,,,,,,,,,,,,,,,,,,,,,,,,,,,,,,,215.70031964400187,215.7127865850016,216.71406740600287,217.6972272330022,217.6972272330022,217.6972272330022,218.66526587500266,right,0.9524556800024584,None,,,,,,,,,,,,,,,,,,,,,,,,,,,,,,,,,,,,,,,,477402,001,2024-11-28_11h02.42.491,Test,2024.2.1,59.33769226076905,2024-11-28 11h02.50.432736 +0100,
67,150,180,16,None,25,25,0,True,right,0.7346048420004081,None,,,,,,,,0,25,25,25,,,,,,,,,218.6799881980005,,,,,,,,,,,,,,,,,,,,,,,,,,,,,,,,,,,,,,,218.66865781800152,218.6799881980005,219.68109969600118,220.67995017800058,220.67995017800058,220.67995017800058,221.43166474100144,right,0.7346048420004081,None,,,,,,,,,,,,,,,,,,,,,,,,,,,,,,,,,,,,,,,,477402,001,2024-11-28_11h02.42.491,Test,2024.2.1,59.33769226076905,2024-11-28 11h02.50.432736 +0100,
1,150,0,28,None,26,26,0,False,left,0.7875066909982706,None,,,,,,,,0,26,26,26,,,,,,,,,221.44656020300317,,,,,,,,,,,,,,,,,,,,,,,,,,,,,,,,,,,,,,,221.43517520300156,221.44656020300317,222.44703417100027,223.43108068200308,223.43108068200308,223.43108068200308,224.23186700800215,left,0.7875066909982706,None,,,,,,,,,,,,,,,,,,,,,,,,,,,,,,,,,,,,,,,,477402,001,2024-11-28_11h02.42.491,Test,2024.2.1,59.33769226076905,2024-11-28 11h02.50.432736 +0100,
4,150,0,11,None,27,27,0,False,right,0.9114190270011022,None,,,,,,,,0,27,27,27,,,,,,,,,224.2467716500032,,,,,,,,,,,,,,,,,,,,,,,,,,,,,,,,,,,,,,,224.2356677150019,224.2467716500032,225.24813972500124,226.24823100700087,226.24823100700087,226.24823100700087,227.16579133600317,right,0.9114190270011022,None,,,,,,,,,,,,,,,,,,,,,,,,,,,,,,,,,,,,,,,,477402,001,2024-11-28_11h02.42.491,Test,2024.2.1,59.33769226076905,2024-11-28 11h02.50.432736 +0100,
8,150,30,10,None,28,28,0,False,left,0.7410031190011068,None,,,,,,,,0,28,28,28,,,,,,,,,227.18076478400326,,,,,,,,,,,,,,,,,,,,,,,,,,,,,,,,,,,,,,,227.16917803400065,227.18076478400326,228.18063093300225,229.18081511900164,229.18081511900164,229.18081511900164,229.93220235400076,left,0.7410031190011068,None,,,,,,,,,,,,,,,,,,,,,,,,,,,,,,,,,,,,,,,,477402,001,2024-11-28_11h02.42.491,Test,2024.2.1,59.33769226076905,2024-11-28 11h02.50.432736 +0100,
13,150,60,32,None,29,29,0,False,left,0.7932447599996522,None,,,,,,,,0,29,29,29,,,,,,,,,229.94743102600114,,,,,,,,,,,,,,,,,,,,,,,,,,,,,,,,,,,,,,,229.9356946250009,229.94743102600114,230.94861494200086,231.94769238400113,231.94769238400113,231.94769238400113,232.75098635700124,left,0.7932447599996522,None,,,,,,,,,,,,,,,,,,,,,,,,,,,,,,,,,,,,,,,,477402,001,2024-11-28_11h02.42.491,Test,2024.2.1,59.33769226076905,2024-11-28 11h02.50.432736 +0100,
64,150,150,4,None,30,30,0,True,right,0.8233978290008963,None,,,,,,,,0,30,30,30,,,,,,,,,232.76419566700133,,,,,,,,,,,,,,,,,,,,,,,,,,,,,,,,,,,,,,,232.75501856400297,232.76419566700133,233.76508815000125,234.765053911,234.765053911,234.765053911,235.5989051530014,right,0.8233978290008963,None,,,,,,,,,,,,,,,,,,,,,,,,,,,,,,,,,,,,,,,,477402,001,2024-11-28_11h02.42.491,Test,2024.2.1,59.33769226076905,2024-11-28 11h02.50.432736 +0100,
20,150,90,15,None,31,31,0,False,right,0.8925372929988953,None,,,,,,,,0,31,31,31,,,,,,,,,235.61420974700013,,,,,,,,,,,,,,,,,,,,,,,,,,,,,,,,,,,,,,,235.60270703500282,235.61420974700013,236.6148341090011,237.59882285700223,237.59882285700223,237.59882285700223,238.49957024300238,right,0.8925372929988953,None,,,,,,,,,,,,,,,,,,,,,,,,,,,,,,,,,,,,,,,,477402,001,2024-11-28_11h02.42.491,Test,2024.2.1,59.33769226076905,2024-11-28 11h02.50.432736 +0100,
46,150,60,53,None,32,32,0,True,left,0.6922027119981067,None,,,,,,,,0,32,32,32,,,,,,,,,238.5144243020004,,,,,,,,,,,,,,,,,,,,,,,,,,,,,,,,,,,,,,,238.5030630830006,238.5144243020004,239.515694462003,240.49902690800081,240.49902690800081,240.49902690800081,241.19959209300214,left,0.6922027119981067,None,,,,,,,,,,,,,,,,,,,,,,,,,,,,,,,,,,,,,,,,477402,001,2024-11-28_11h02.42.491,Test,2024.2.1,59.33769226076905,2024-11-28 11h02.50.432736 +0100,
61,150,150,20,None,33,33,0,True,right,0.935905100999662,None,,,,,,,,0,33,33,33,,,,,,,,,241.2148051300028,,,,,,,,,,,,,,,,,,,,,,,,,,,,,,,,,,,,,,,241.20301161300085,241.2148051300028,242.21583439000096,243.19916159600325,243.19916159600325,243.19916159600325,244.1500448800034,right,0.935905100999662,None,,,,,,,,,,,,,,,,,,,,,,,,,,,,,,,,,,,,,,,,477402,001,2024-11-28_11h02.42.491,Test,2024.2.1,59.33769226076905,2024-11-28 11h02.50.432736 +0100,
16,150,90,58,None,34,34,0,False,left,1.1468851700010418,None,,,,,,,,0,34,34,34,,,,,,,,,244.1649525890025,,,,,,,,,,,,,,,,,,,,,,,,,,,,,,,,,,,,,,,244.1535512720002,244.1649525890025,245.16626135000115,246.14941430600084,246.14941430600084,246.14941430600084,247.30300128600356,left,1.1468851700010418,None,,,,,,,,,,,,,,,,,,,,,,,,,,,,,,,,,,,,,,,,477402,001,2024-11-28_11h02.42.491,Test,2024.2.1,59.33769226076905,2024-11-28 11h02.50.432736 +0100,
10,150,30,67,None,35,35,0,False,left,0.7509190599994326,None,,,,,,,,0,35,35,35,,,,,,,,,247.31646539900248,,,,,,,,,,,,,,,,,,,,,,,,,,,,,,,,,,,,,,,247.30766897300055,247.31646539900248,248.31617543600078,249.31648706300257,249.31648706300257,249.31648706300257,250.0835993610017,left,0.7509190599994326,None,,,,,,,,,,,,,,,,,,,,,,,,,,,,,,,,,,,,,,,,477402,001,2024-11-28_11h02.42.491,Test,2024.2.1,59.33769226076905,2024-11-28 11h02.50.432736 +0100,
55,150,90,5,None,36,36,0,True,right,1.5869015409989515,None,,,,,,,,0,36,36,36,,,,,,,,,250.09828719000143,,,,,,,,,,,,,,,,,,,,,,,,,,,,,,,,,,,,,,,250.08725367100124,250.09828719000143,251.09979708300307,252.08331902200007,252.08331902200007,252.08331902200007,253.685503435001,right,1.5869015409989515,None,,,,,,,,,,,,,,,,,,,,,,,,,,,,,,,,,,,,,,,,477402,001,2024-11-28_11h02.42.491,Test,2024.2.1,59.33769226076905,2024-11-28 11h02.50.432736 +0100,
39,150,0,49,None,37,37,0,True,left,1.5304749569986598,None,,,,,,,,0,37,37,37,,,,,,,,,253.69888963200356,,,,,,,,,,,,,,,,,,,,,,,,,,,,,,,,,,,,,,,253.68961447000038,253.69888963200356,254.69997026900091,255.69946448300107,255.69946448300107,255.69946448300107,257.2348514680016,left,1.5304749569986598,None,,,,,,,,,,,,,,,,,,,,,,,,,,,,,,,,,,,,,,,,477402,001,2024-11-28_11h02.42.491,Test,2024.2.1,59.33769226076905,2024-11-28 11h02.50.432736 +0100,
69,150,180,68,None,38,38,0,True,left,2.27461256999959,None,,,,,,,,0,38,38,38,,,,,,,,,257.2491730900001,,,,,,,,,,,,,,,,,,,,,,,,,,,,,,,,,,,,,,,257.23983231900274,257.2491730900001,258.25030574000266,259.24939767100295,259.24939767100295,259.24939767100295,261.5341998380027,left,2.27461256999959,None,,,,,,,,,,,,,,,,,,,,,,,,,,,,,,,,,,,,,,,,477402,001,2024-11-28_11h02.42.491,Test,2024.2.1,59.33769226076905,2024-11-28 11h02.50.432736 +0100,
50,150,60,54,None,39,39,0,True,left,0.8406603399998858,None,,,,,,,,0,39,39,39,,,,,,,,,261.54953522100186,,,,,,,,,,,,,,,,,,,,,,,,,,,,,,,,,,,,,,,261.53770412800077,261.54953522100186,262.54919468500157,263.54974067900184,263.54974067900184,263.54974067900184,264.40127355000004,left,0.8406603399998858,None,,,,,,,,,,,,,,,,,,,,,,,,,,,,,,,,,,,,,,,,477402,001,2024-11-28_11h02.42.491,Test,2024.2.1,59.33769226076905,2024-11-28 11h02.50.432736 +0100,
58,150,120,7,None,40,40,0,True,right,0.8149204530018324,None,,,,,,,,0,40,40,40,,,,,,,,,264.4162029770014,,,,,,,,,,,,,,,,,,,,,,,,,,,,,,,,,,,,,,,264.4047605470005,264.4162029770014,265.41741863100106,266.40064745700147,266.40064745700147,266.40064745700147,267.2213385040013,right,0.8149204530018324,None,,,,,,,,,,,,,,,,,,,,,,,,,,,,,,,,,,,,,,,,477402,001,2024-11-28_11h02.42.491,Test,2024.2.1,59.33769226076905,2024-11-28 11h02.50.432736 +0100,
23,150,120,8,None,41,41,0,False,left,1.7696614390006289,None,,,,,,,,0,41,41,41,,,,,,,,,267.2341411120033,,,,,,,,,,,,,,,,,,,,,,,,,,,,,,,,,,,,,,,267.22492565300126,267.2341411120033,268.24995894400126,269.23457996900106,269.23457996900106,269.23457996900106,271.0192269670006,left,1.7696614390006289,None,,,,,,,,,,,,,,,,,,,,,,,,,,,,,,,,,,,,,,,,477402,001,2024-11-28_11h02.42.491,Test,2024.2.1,59.33769226076905,2024-11-28 11h02.50.432736 +0100,
59,150,120,45,None,42,42,0,True,left,1.4714765500029898,None,,,,,,,,0,42,42,42,,,,,,,,,271.03357020500334,,,,,,,,,,,,,,,,,,,,,,,,,,,,,,,,,,,,,,,271.02293467100026,271.03357020500334,272.03391321600066,273.0341698230004,273.0341698230004,273.0341698230004,274.5186467070016,left,1.4714765500029898,None,,,,,,,,,,,,,,,,,,,,,,,,,,,,,,,,,,,,,,,,477402,001,2024-11-28_11h02.42.491,Test,2024.2.1,59.33769226076905,2024-11-28 11h02.50.432736 +0100,
18,150,90,40,None,43,43,0,False,right,0.9165383050021774,None,,,,,,,,0,43,43,43,,,,,,,,,274.53398636300335,,,,,,,,,,,,,,,,,,,,,,,,,,,,,,,,,,,,,,,274.52217688900055,274.53398636300335,275.5341628350034,276.5172265750007,276.5172265750007,276.5172265750007,277.4365751960031,right,0.9165383050021774,None,,,,,,,,,,,,,,,,,,,,,,,,,,,,,,,,,,,,,,,,477402,001,2024-11-28_11h02.42.491,Test,2024.2.1,59.33769226076905,2024-11-28 11h02.50.432736 +0100,
28,150,150,70,None,44,44,0,False,right,1.5335745509983099,None,,,,,,,,0,44,44,44,,,,,,,,,277.4501764120032,,,,,,,,,,,,,,,,,,,,,,,,,,,,,,,,,,,,,,,277.439958580002,277.4501764120032,278.45105769100337,279.45178143400335,279.45178143400335,279.45178143400335,281.00248094500057,right,1.5335745509983099,None,,,,,,,,,,,,,,,,,,,,,,,,,,,,,,,,,,,,,,,,477402,001,2024-11-28_11h02.42.491,Test,2024.2.1,59.33769226076905,2024-11-28 11h02.50.432736 +0100,
51,150,90,31,None,45,45,0,True,left,0.8022626439997111,None,,,,,,,,0,45,45,45,,,,,,,,,281.01709562700125,,,,,,,,,,,,,,,,,,,,,,,,,,,,,,,,,,,,,,,281.00604910600305,281.01709562700125,282.01780852900265,283.01811820500006,283.01811820500006,283.01811820500006,283.83633921900037,left,0.8022626439997111,None,,,,,,,,,,,,,,,,,,,,,,,,,,,,,,,,,,,,,,,,477402,001,2024-11-28_11h02.42.491,Test,2024.2.1,59.33769226076905,2024-11-28 11h02.50.432736 +0100,
25,150,120,59,None,46,46,0,False,right,1.306781019000482,None,,,,,,,,0,46,46,46,,,,,,,,,283.85086102600326,,,,,,,,,,,,,,,,,,,,,,,,,,,,,,,,,,,,,,,283.8399875920004,283.85086102600326,284.8516390540026,285.85101542100165,285.85101542100165,285.85101542100165,287.16956742600087,right,1.306781019000482,None,,,,,,,,,,,,,,,,,,,,,,,,,,,,,,,,,,,,,,,,477402,001,2024-11-28_11h02.42.491,Test,2024.2.1,59.33769226076905,2024-11-28 11h02.50.432736 +0100,
45,150,30,9,None,47,47,0,True,right,1.129114411000046,None,,,,,,,,0,47,47,47,,,,,,,,,287.18486306900013,,,,,,,,,,,,,,,,,,,,,,,,,,,,,,,,,,,,,,,287.17308518100253,287.18486306900013,288.18470373700256,289.169370196003,289.169370196003,289.169370196003,290.303447166003,right,1.129114411000046,None,,,,,,,,,,,,,,,,,,,,,,,,,,,,,,,,,,,,,,,,477402,001,2024-11-28_11h02.42.491,Test,2024.2.1,59.33769226076905,2024-11-28 11h02.50.432736 +0100,
66,150,180,25,None,48,48,0,True,left,1.025439370998356,None,,,,,,,,0,48,48,48,,,,,,,,,290.3177200350001,,,,,,,,,,,,,,,,,,,,,,,,,,,,,,,,,,,,,,,290.3068707050006,290.3177200350001,291.3195357620025,292.3025213860019,292.3025213860019,292.3025213860019,293.33750170500207,left,1.025439370998356,None,,,,,,,,,,,,,,,,,,,,,,,,,,,,,,,,,,,,,,,,477402,001,2024-11-28_11h02.42.491,Test,2024.2.1,59.33769226076905,2024-11-28 11h02.50.432736 +0100,
40,150,0,37,None,49,49,0,True,left,1.1354044940017047,None,,,,,,,,0,49,49,49,,,,,,,,,293.3512459830017,,,,,,,,,,,,,,,,,,,,,,,,,,,,,,,,,,,,,,,293.34105901300063,293.3512459830017,294.3526747120013,295.352708745002,295.352708745002,295.352708745002,296.50399485300295,left,1.1354044940017047,None,,,,,,,,,,,,,,,,,,,,,,,,,,,,,,,,,,,,,,,,477402,001,2024-11-28_11h02.42.491,Test,2024.2.1,59.33769226076905,2024-11-28 11h02.50.432736 +0100,
44,150,30,55,None,50,50,0,True,left,1.071335733999149,None,,,,,,,,0,50,50,50,,,,,,,,,296.5187255020028,,,,,,,,,,,,,,,,,,,,,,,,,,,,,,,,,,,,,,,296.50757581700236,296.5187255020028,297.51984775200253,298.51950926000063,298.51950926000063,298.51950926000063,299.6039431510035,left,1.071335733999149,None,,,,,,,,,,,,,,,,,,,,,,,,,,,,,,,,,,,,,,,,477402,001,2024-11-28_11h02.42.491,Test,2024.2.1,59.33769226076905,2024-11-28 11h02.50.432736 +0100,
21,150,120,38,None,51,51,0,False,right,0.6429236830008449,None,,,,,,,,0,51,51,51,,,,,,,,,299.6182378600024,,,,,,,,,,,,,,,,,,,,,,,,,,,,,,,,,,,,,,,299.6074741110024,299.6182378600024,300.6187774120008,301.6191589520022,301.6191589520022,301.6191589520022,302.2712980920005,right,0.6429236830008449,None,,,,,,,,,,,,,,,,,,,,,,,,,,,,,,,,,,,,,,,,477402,001,2024-11-28_11h02.42.491,Test,2024.2.1,59.33769226076905,2024-11-28 11h02.50.432736 +0100,
30,150,150,46,None,52,52,0,False,left,0.9500530220029759,None,,,,,,,,0,52,52,52,,,,,,,,,302.285829542001,,,,,,,,,,,,,,,,,,,,,,,,,,,,,,,,,,,,,,,302.27484999900116,302.285829542001,303.28673465700194,304.28658116299994,304.28658116299994,304.28658116299994,305.24086701500346,left,0.9500530220029759,None,,,,,,,,,,,,,,,,,,,,,,,,,,,,,,,,,,,,,,,,477402,001,2024-11-28_11h02.42.491,Test,2024.2.1,59.33769226076905,2024-11-28 11h02.50.432736 +0100,
26,150,150,14,None,53,53,0,False,right,0.7919550409969816,None,,,,,,,,0,53,53,53,,,,,,,,,305.2538997990014,,,,,,,,,,,,,,,,,,,,,,,,,,,,,,,,,,,,,,,305.2452108630023,305.2538997990014,306.2527623450005,307.2528940530028,307.2528940530028,307.2528940530028,308.05591862000074,right,0.7919550409969816,None,,,,,,,,,,,,,,,,,,,,,,,,,,,,,,,,,,,,,,,,477402,001,2024-11-28_11h02.42.491,Test,2024.2.1,59.33769226076905,2024-11-28 11h02.50.432736 +0100,
7,150,30,34,None,54,54,0,False,right,0.8805828570002632,None,,,,,,,,0,54,54,54,,,,,,,,,308.07081352300156,,,,,,,,,,,,,,,,,,,,,,,,,,,,,,,,,,,,,,,308.06139258900293,308.07081352300156,309.0864379450031,310.07009346700215,310.07009346700215,310.07009346700215,310.9568829300006,right,0.8805828570002632,None,,,,,,,,,,,,,,,,,,,,,,,,,,,,,,,,,,,,,,,,477402,001,2024-11-28_11h02.42.491,Test,2024.2.1,59.33769226076905,2024-11-28 11h02.50.432736 +0100,
24,150,120,33,None,55,55,0,False,right,1.0439690700004576,None,,,,,,,,0,55,55,55,,,,,,,,,310.97121968600186,,,,,,,,,,,,,,,,,,,,,,,,,,,,,,,,,,,,,,,310.962506666001,310.97121968600186,311.98697305000314,312.9706891630012,312.9706891630012,312.9706891630012,314.02350072400077,right,1.0439690700004576,None,,,,,,,,,,,,,,,,,,,,,,,,,,,,,,,,,,,,,,,,477402,001,2024-11-28_11h02.42.491,Test,2024.2.1,59.33769226076905,2024-11-28 11h02.50.432736 +0100,
54,150,90,60,None,56,56,0,True,left,0.6789547099979245,None,,,,,,,,0,56,56,56,,,,,,,,,314.03725034500167,,,,,,,,,,,,,,,,,,,,,,,,,,,,,,,,,,,,,,,314.02791809700284,314.03725034500167,315.03679824400024,316.0367467330034,316.0367467330034,316.0367467330034,316.7220542230025,left,0.6789547099979245,None,,,,,,,,,,,,,,,,,,,,,,,,,,,,,,,,,,,,,,,,477402,001,2024-11-28_11h02.42.491,Test,2024.2.1,59.33769226076905,2024-11-28 11h02.50.432736 +0100,
49,150,60,66,None,57,57,0,True,left,1.0665234330008388,None,,,,,,,,0,57,57,57,,,,,,,,,316.7363550760019,,,,,,,,,,,,,,,,,,,,,,,,,,,,,,,,,,,,,,,316.725614539002,316.7363550760019,317.73793815700265,318.73768092500177,318.73768092500177,318.73768092500177,319.82178105800267,left,1.0665234330008388,None,,,,,,,,,,,,,,,,,,,,,,,,,,,,,,,,,,,,,,,,477402,001,2024-11-28_11h02.42.491,Test,2024.2.1,59.33769226076905,2024-11-28 11h02.50.432736 +0100,
57,150,120,22,None,58,58,0,True,left,0.7974838120026106,None,,,,,,,,0,58,58,58,,,,,,,,,319.83718912900076,,,,,,,,,,,,,,,,,,,,,,,,,,,,,,,,,,,,,,,319.82516212300106,319.83718912900076,320.8374873110006,321.8370998450009,321.8370998450009,321.8370998450009,322.63975901100275,left,0.7974838120026106,None,,,,,,,,,,,,,,,,,,,,,,,,,,,,,,,,,,,,,,,,477402,001,2024-11-28_11h02.42.491,Test,2024.2.1,59.33769226076905,2024-11-28 11h02.50.432736 +0100,
22,150,120,65,None,59,59,0,False,left,0.7798634649989253,None,,,,,,,,0,59,59,59,,,,,,,,,322.6540033350029,,,,,,,,,,,,,,,,,,,,,,,,,,,,,,,,,,,,,,,322.6433715890016,322.6540033350029,323.6547229200005,324.6549689800013,324.6549689800013,324.6549689800013,325.4419106980022,left,0.7798634649989253,None,,,,,,,,,,,,,,,,,,,,,,,,,,,,,,,,,,,,,,,,477402,001,2024-11-28_11h02.42.491,Test,2024.2.1,59.33769226076905,2024-11-28 11h02.50.432736 +0100,
2,150,0,27,None,60,60,0,False,right,1.0845855680017848,None,,,,,,,,0,60,60,60,,,,,,,,,325.4698274950024,,,,,,,,,,,,,,,,,,,,,,,,,,,,,,,,,,,,,,,325.4465620740011,325.4698274950024,326.4715242930033,327.4541980480026,327.4541980480026,327.4541980480026,328.55608205500175,right,1.0845855680017848,None,,,,,,,,,,,,,,,,,,,,,,,,,,,,,,,,,,,,,,,,477402,001,2024-11-28_11h02.42.491,Test,2024.2.1,59.33769226076905,2024-11-28 11h02.50.432736 +0100,
14,150,60,21,None,61,61,0,False,right,1.3140712779968453,None,,,,,,,,0,61,61,61,,,,,,,,,328.5712721100026,,,,,,,,,,,,,,,,,,,,,,,,,,,,,,,,,,,,,,,328.55955255400113,328.5712721100026,329.5719418550034,330.57167292800295,330.57167292800295,330.57167292800295,331.88985094700183,right,1.3140712779968453,None,,,,,,,,,,,,,,,,,,,,,,,,,,,,,,,,,,,,,,,,477402,001,2024-11-28_11h02.42.491,Test,2024.2.1,59.33769226076905,2024-11-28 11h02.50.432736 +0100,
31,150,180,17,None,62,62,0,False,right,1.8446710759999405,None,,,,,,,,0,62,62,62,,,,,,,,,331.90449428300053,,,,,,,,,,,,,,,,,,,,,,,,,,,,,,,,,,,,,,,331.89335423300145,331.90449428300053,332.90427068200006,333.9052813900016,333.9052813900016,333.9052813900016,335.7563679170016,right,1.8446710759999405,None,,,,,,,,,,,,,,,,,,,,,,,,,,,,,,,,,,,,,,,,477402,001,2024-11-28_11h02.42.491,Test,2024.2.1,59.33769226076905,2024-11-28 11h02.50.432736 +0100,
36,150,0,30,None,63,63,0,True,left,0.7056728770003247,None,,,,,,,,0,63,63,63,,,,,,,,,335.7708652170004,,,,,,,,,,,,,,,,,,,,,,,,,,,,,,,,,,,,,,,335.7597578040004,335.7708652170004,336.7721210020027,337.7558310320019,337.7558310320019,337.7558310320019,338.47265751800296,left,0.7056728770003247,None,,,,,,,,,,,,,,,,,,,,,,,,,,,,,,,,,,,,,,,,477402,001,2024-11-28_11h02.42.491,Test,2024.2.1,59.33769226076905,2024-11-28 11h02.50.432736 +0100,
35,150,180,12,None,64,64,0,False,right,1.00059785400299,None,,,,,,,,0,64,64,64,,,,,,,,,338.48786455400113,,,,,,,,,,,,,,,,,,,,,,,,,,,,,,,,,,,,,,,338.47612306200244,338.48786455400113,339.48894412200025,340.4726030510028,340.4726030510028,340.4726030510028,341.49041615700116,right,1.00059785400299,None,,,,,,,,,,,,,,,,,,,,,,,,,,,,,,,,,,,,,,,,477402,001,2024-11-28_11h02.42.491,Test,2024.2.1,59.33769226076905,2024-11-28 11h02.50.432736 +0100,
53,150,90,64,None,65,65,0,True,right,1.705129803998716,None,,,,,,,,0,65,65,65,,,,,,,,,341.5046109800023,,,,,,,,,,,,,,,,,,,,,,,,,,,,,,,,,,,,,,,341.4941275190031,341.5046109800023,342.50602669100044,343.5065481340025,343.5065481340025,343.5065481340025,345.22263832000317,right,1.705129803998716,None,,,,,,,,,,,,,,,,,,,,,,,,,,,,,,,,,,,,,,,,477402,001,2024-11-28_11h02.42.491,Test,2024.2.1,59.33769226076905,2024-11-28 11h02.50.432736 +0100,
11,150,60,51,None,66,66,0,False,left,0.7359865750004246,None,,,,,,,,0,66,66,66,,,,,,,,,345.23923209200075,,,,,,,,,,,,,,,,,,,,,,,,,,,,,,,,,,,,,,,345.22603386000264,345.23923209200075,346.23987965000197,347.22297040000194,347.22297040000194,347.22297040000194,347.9742534450015,left,0.7359865750004246,None,,,,,,,,,,,,,,,,,,,,,,,,,,,,,,,,,,,,,,,,477402,001,2024-11-28_11h02.42.491,Test,2024.2.1,59.33769226076905,2024-11-28 11h02.50.432736 +0100,
60,150,120,39,None,67,67,0,True,left,0.9399306189989147,None,,,,,,,,0,67,67,67,,,,,,,,,347.98869240300337,,,,,,,,,,,,,,,,,,,,,,,,,,,,,,,,,,,,,,,347.97776709600294,347.98869240300337,348.98885596600303,349.98884045100203,349.98884045100203,349.98884045100203,350.9409701430013,left,0.9399306189989147,None,,,,,,,,,,,,,,,,,,,,,,,,,,,,,,,,,,,,,,,,477402,001,2024-11-28_11h02.42.491,Test,2024.2.1,59.33769226076905,2024-11-28 11h02.50.432736 +0100,
32,150,180,26,None,68,68,0,False,left,1.2432321090018377,None,,,,,,,,0,68,68,68,,,,,,,,,350.9550555190035,,,,,,,,,,,,,,,,,,,,,,,,,,,,,,,,,,,,,,,350.9443825410017,350.9550555190035,351.95656177300043,352.9567893730018,352.9567893730018,352.9567893730018,354.20780023000043,left,1.2432321090018377,None,,,,,,,,,,,,,,,,,,,,,,,,,,,,,,,,,,,,,,,,477402,001,2024-11-28_11h02.42.491,Test,2024.2.1,59.33769226076905,2024-11-28 11h02.50.432736 +0100,
65,150,150,18,None,69,69,0,True,left,0.9138494090002496,None,,,,,,,,0,69,69,69,,,,,,,,,354.22219613200286,,,,,,,,,,,,,,,,,,,,,,,,,,,,,,,,,,,,,,,354.2112359090024,354.22219613200286,355.22251265700106,356.2228462760031,356.2228462760031,356.2228462760031,357.1414867880012,left,0.9138494090002496,None,,,,,,,,,,,,,,,,,,,,,,,,,,,,,,,,,,,,,,,,477402,001,2024-11-28_11h02.42.491,Test,2024.2.1,59.33769226076905,2024-11-28 11h02.50.432736 +0100,
,,,,,,,,,,,,,,,,,,,,,,,,,,,,,,,,,,,,,,,,,,,,,,,,,,,,,,,,,,,,,,,,,,,,,,,,,,,,,,,,357.1416634240013,357.15650026000003,357.15650026000003,360.9581064570011,space,3.793598825002846,None,,,,,,,,,,,,,,,,,,,,,,,,,,,,,,,,,477402,001,2024-11-28_11h02.42.491,Test,2024.2.1,59.33769226076905,2024-11-28 11h02.50.432736 +0100,
27,150,150,62,None,0,0,0,,,,,,,,,,,,,,,,0,0,0,26,,,,,360.97812334000264,,,,,,,,,,,,,,,,,,,,,,,,,,,,,,,,,,,,,,,,,,,,,,,,,,,,,,,,360.9673396230028,360.97812334000264,361.17329689500184,361.17329689500184,361.19033499200305,362.87481280200154,362.87481280200154,362.8586200910031,,,,,,,,,,,,,,,,,,,,,,,,,477402,001,2024-11-28_11h02.42.491,Test,2024.2.1,59.33769226076905,2024-11-28 11h02.50.432736 +0100,
11,150,60,51,None,1,1,0,,,,,,,,,,,,,,,,0,1,1,10,,,,,362.87481280200154,,,,,,,,,,,,,,,,,,,,,,,,,,,,,,,,,,,,,,,,,,,,,,,,,,,,,,,,362.86677489700014,362.87481280200154,363.05765574100224,363.05765574100224,363.07446173800054,364.75626648100297,364.75626648100297,364.7413523280011,,,,,,,,,,,,,,,,,,,,,,,,,477402,001,2024-11-28_11h02.42.491,Test,2024.2.1,59.33769226076905,2024-11-28 11h02.50.432736 +0100,
18,150,90,40,None,2,2,0,,,,,,,,,,,,,,,,0,2,2,17,,,,,364.75626648100297,,,,,,,,,,,,,,,,,,,,,,,,,,,,,,,,,,,,,,,,,,,,,,,,,,,,,,,,364.74528734800333,364.75626648100297,364.9738152200007,364.9738152200007,364.9566683560006,366.67394804500145,366.67394804500145,366.6590124510003,,,,,,,,,,,,,,,,,,,,,,,,,477402,001,2024-11-28_11h02.42.491,Test,2024.2.1,59.33769226076905,2024-11-28 11h02.50.432736 +0100,
33,150,180,3,None,3,3,0,,,,,,,,,,,,,,,,0,3,3,32,,,,,366.67394804500145,,,,,,,,,,,,,,,,,,,,,,,,,,,,,,,,,,,,,,,,,,,,,,,,,,,,,,,,366.66539073700187,366.67394804500145,366.8740761070003,366.8740761070003,366.8740761070003,368.5747823660022,368.5747823660022,368.55901426200217,,,,,,,,,,,,,,,,,,,,,,,,,477402,001,2024-11-28_11h02.42.491,Test,2024.2.1,59.33769226076905,2024-11-28 11h02.50.432736 +0100,
20,150,90,15,None,4,4,0,,,,,,,,,,,,,,,,0,4,4,19,,,,,368.5747823660022,,,,,,,,,,,,,,,,,,,,,,,,,,,,,,,,,,,,,,,,,,,,,,,,,,,,,,,,368.5657284270019,368.5747823660022,368.7578446920015,368.7578446920015,368.7743798110023,370.45705647400246,370.45705647400246,370.44137130900344,,,,,,,,,,,,,,,,,,,,,,,,,477402,001,2024-11-28_11h02.42.491,Test,2024.2.1,59.33769226076905,2024-11-28 11h02.50.432736 +0100,
30,150,150,46,None,5,5,0,,,,,,,,,,,,,,,,0,5,5,29,,,,,370.45705647400246,,,,,,,,,,,,,,,,,,,,,,,,,,,,,,,,,,,,,,,,,,,,,,,,,,,,,,,,370.44513052800176,370.45705647400246,370.65738683600284,370.65738683600284,370.65738683600284,372.35803810200014,372.35803810200014,372.34258872600185,,,,,,,,,,,,,,,,,,,,,,,,,477402,001,2024-11-28_11h02.42.491,Test,2024.2.1,59.33769226076905,2024-11-28 11h02.50.432736 +0100,
10,150,30,67,None,6,6,0,,,,,,,,,,,,,,,,0,6,6,9,,,,,372.35803810200014,,,,,,,,,,,,,,,,,,,,,,,,,,,,,,,,,,,,,,,,,,,,,,,,,,,,,,,,372.3490196890016,372.35803810200014,372.5745656580002,372.5745656580002,372.5573821910002,374.2739123490028,374.2739123490028,374.25818732600237,,,,,,,,,,,,,,,,,,,,,,,,,477402,001,2024-11-28_11h02.42.491,Test,2024.2.1,59.33769226076905,2024-11-28 11h02.50.432736 +0100,
25,150,120,59,None,7,7,0,,,,,,,,,,,,,,,,0,7,7,24,,,,,374.2739123490028,,,,,,,,,,,,,,,,,,,,,,,,,,,,,,,,,,,,,,,,,,,,,,,,,,,,,,,,374.2618290540013,374.2739123490028,374.4574036910017,374.4574036910017,374.4739239340015,376.15847529000166,376.15847529000166,376.14289792400086,,,,,,,,,,,,,,,,,,,,,,,,,477402,001,2024-11-28_11h02.42.491,Test,2024.2.1,59.33769226076905,2024-11-28 11h02.50.432736 +0100,
15,150,60,61,None,8,8,0,,,,,,,,,,,,,,,,0,8,8,14,,,,,376.15847529000166,,,,,,,,,,,,,,,,,,,,,,,,,,,,,,,,,,,,,,,,,,,,,,,,,,,,,,,,376.1496095060029,376.15847529000166,376.3576042450004,376.3576042450004,376.374376486001,378.0577797980004,378.0577797980004,378.0417272170016,,,,,,,,,,,,,,,,,,,,,,,,,477402,001,2024-11-28_11h02.42.491,Test,2024.2.1,59.33769226076905,2024-11-28 11h02.50.432736 +0100,
35,150,180,12,None,9,9,0,,,,,,,,,,,,,,,,0,9,9,34,,,,,378.0577797980004,,,,,,,,,,,,,,,,,,,,,,,,,,,,,,,,,,,,,,,,,,,,,,,,,,,,,,,,378.0455897290012,378.0577797980004,378.25850233000165,378.25850233000165,378.25850233000165,379.9748021020023,379.9748021020023,379.9586207270004,,,,,,,,,,,,,,,,,,,,,,,,,477402,001,2024-11-28_11h02.42.491,Test,2024.2.1,59.33769226076905,2024-11-28 11h02.50.432736 +0100,
13,150,60,32,None,10,10,0,,,,,,,,,,,,,,,,0,10,10,12,,,,,379.9748021020023,,,,,,,,,,,,,,,,,,,,,,,,,,,,,,,,,,,,,,,,,,,,,,,,,,,,,,,,379.96259924800324,379.9748021020023,380.15769086800356,380.15769086800356,380.17429433800135,381.85855904300115,381.85855904300115,381.8433485530004,,,,,,,,,,,,,,,,,,,,,,,,,477402,001,2024-11-28_11h02.42.491,Test,2024.2.1,59.33769226076905,2024-11-28 11h02.50.432736 +0100,
1,150,0,28,None,11,11,0,,,,,,,,,,,,,,,,0,11,11,0,,,,,381.85855904300115,,,,,,,,,,,,,,,,,,,,,,,,,,,,,,,,,,,,,,,,,,,,,,,,,,,,,,,,381.8499425150003,381.85855904300115,382.05826056500155,382.05826056500155,382.05826056500155,383.7586149180024,383.7586149180024,383.7422587580004,,,,,,,,,,,,,,,,,,,,,,,,,477402,001,2024-11-28_11h02.42.491,Test,2024.2.1,59.33769226076905,2024-11-28 11h02.50.432736 +0100,
28,150,150,70,None,12,12,0,,,,,,,,,,,,,,,,0,12,12,27,,,,,383.7586149180024,,,,,,,,,,,,,,,,,,,,,,,,,,,,,,,,,,,,,,,,,,,,,,,,,,,,,,,,383.7455909970013,383.7586149180024,383.9592252500006,383.9592252500006,383.9592252500006,385.65926584800036,385.65926584800036,385.6434139140001,,,,,,,,,,,,,,,,,,,,,,,,,477402,001,2024-11-28_11h02.42.491,Test,2024.2.1,59.33769226076905,2024-11-28 11h02.50.432736 +0100,
6,150,30,24,None,13,13,0,,,,,,,,,,,,,,,,0,13,13,5,,,,,385.65926584800036,,,,,,,,,,,,,,,,,,,,,,,,,,,,,,,,,,,,,,,,,,,,,,,,,,,,,,,,385.650128133002,385.65926584800036,385.85836066600314,385.85836066600314,385.85836066600314,387.5583749430007,387.5583749430007,387.54232729900104,,,,,,,,,,,,,,,,,,,,,,,,,477402,001,2024-11-28_11h02.42.491,Test,2024.2.1,59.33769226076905,2024-11-28 11h02.50.432736 +0100,
32,150,180,26,None,14,14,0,,,,,,,,,,,,,,,,0,14,14,31,,,,,387.5583749430007,,,,,,,,,,,,,,,,,,,,,,,,,,,,,,,,,,,,,,,,,,,,,,,,,,,,,,,,387.5461506930005,387.5583749430007,387.7592444590009,387.7592444590009,387.7592444590009,389.4591437920026,389.4591437920026,389.44355236600313,,,,,,,,,,,,,,,,,,,,,,,,,477402,001,2024-11-28_11h02.42.491,Test,2024.2.1,59.33769226076905,2024-11-28 11h02.50.432736 +0100,
8,150,30,10,None,15,15,0,,,,,,,,,,,,,,,,0,15,15,7,,,,,389.4591437920026,,,,,,,,,,,,,,,,,,,,,,,,,,,,,,,,,,,,,,,,,,,,,,,,,,,,,,,,389.4504007400028,389.4591437920026,389.6580845480021,389.6580845480021,389.6580845480021,391.35898021600224,391.35898021600224,391.3427405120019,,,,,,,,,,,,,,,,,,,,,,,,,477402,001,2024-11-28_11h02.42.491,Test,2024.2.1,59.33769226076905,2024-11-28 11h02.50.432736 +0100,
16,150,90,58,None,16,16,0,,,,,,,,,,,,,,,,0,16,16,15,,,,,391.35898021600224,,,,,,,,,,,,,,,,,,,,,,,,,,,,,,,,,,,,,,,,,,,,,,,,,,,,,,,,391.34749757900136,391.35898021600224,391.55841766400044,391.55841766400044,391.55841766400044,393.25891704400055,393.25891704400055,393.2430403620019,,,,,,,,,,,,,,,,,,,,,,,,,477402,001,2024-11-28_11h02.42.491,Test,2024.2.1,59.33769226076905,2024-11-28 11h02.50.432736 +0100,
17,150,90,52,None,17,17,0,,,,,,,,,,,,,,,,0,17,17,16,,,,,393.25891704400055,,,,,,,,,,,,,,,,,,,,,,,,,,,,,,,,,,,,,,,,,,,,,,,,,,,,,,,,393.2468177310002,393.25891704400055,393.45961677000014,393.45961677000014,393.45961677000014,395.15939457600325,395.15939457600325,395.14411899900006,,,,,,,,,,,,,,,,,,,,,,,,,477402,001,2024-11-28_11h02.42.491,Test,2024.2.1,59.33769226076905,2024-11-28 11h02.50.432736 +0100,
29,150,150,13,None,18,18,0,,,,,,,,,,,,,,,,0,18,18,28,,,,,395.15939457600325,,,,,,,,,,,,,,,,,,,,,,,,,,,,,,,,,,,,,,,,,,,,,,,,,,,,,,,,395.1506760960001,395.15939457600325,395.3596703490002,395.3596703490002,395.3596703490002,397.0594653700027,397.0594653700027,397.04430635000244,,,,,,,,,,,,,,,,,,,,,,,,,477402,001,2024-11-28_11h02.42.491,Test,2024.2.1,59.33769226076905,2024-11-28 11h02.50.432736 +0100,
5,150,0,42,None,19,19,0,,,,,,,,,,,,,,,,0,19,19,4,,,,,397.0594653700027,,,,,,,,,,,,,,,,,,,,,,,,,,,,,,,,,,,,,,,,,,,,,,,,,,,,,,,,397.05026625200117,397.0594653700027,397.2588344880023,397.2588344880023,397.2588344880023,398.9603091980025,398.9603091980025,398.94463487600297,,,,,,,,,,,,,,,,,,,,,,,,,477402,001,2024-11-28_11h02.42.491,Test,2024.2.1,59.33769226076905,2024-11-28 11h02.50.432736 +0100,
26,150,150,14,None,20,20,0,,,,,,,,,,,,,,,,0,20,20,25,,,,,398.9603091980025,,,,,,,,,,,,,,,,,,,,,,,,,,,,,,,,,,,,,,,,,,,,,,,,,,,,,,,,398.95129806500336,398.9603091980025,399.1599662220033,399.1599662220033,399.1599662220033,400.8599403060034,400.8599403060034,400.8446554760012,,,,,,,,,,,,,,,,,,,,,,,,,477402,001,2024-11-28_11h02.42.491,Test,2024.2.1,59.33769226076905,2024-11-28 11h02.50.432736 +0100,
24,150,120,33,None,21,21,0,,,,,,,,,,,,,,,,0,21,21,23,,,,,400.8599403060034,,,,,,,,,,,,,,,,,,,,,,,,,,,,,,,,,,,,,,,,,,,,,,,,,,,,,,,,400.8510698380014,400.8599403060034,401.0603428700015,401.0603428700015,401.0603428700015,,,402.7595939160019,,,,,,,,,,,,,,,,,,,,,,,,,477402,001,2024-11-28_11h02.42.491,Test,2024.2.1,59.33769226076905,2024-11-28 11h02.50.432736 +0100,
31,150,180,17,None,22,22,0,,,,,,,,,,,,,,,,0,22,22,30,,,,,402.775970343002,,,,,,,,,,,,,,,,,,,,,,,,,,,,,,,,,,,,,,,,,,,,,,,,,,,,,,,,402.76414893200126,402.775970343002,402.9596937280003,402.9596937280003,402.97603139600324,404.65925362800044,404.65925362800044,404.64380326800165,,,,,,,,,,,,,,,,,,,,,,,,,477402,001,2024-11-28_11h02.42.491,Test,2024.2.1,59.33769226076905,2024-11-28 11h02.50.432736 +0100,
22,150,120,65,None,23,23,0,,,,,,,,,,,,,,,,0,23,23,21,,,,,404.65925362800044,,,,,,,,,,,,,,,,,,,,,,,,,,,,,,,,,,,,,,,,,,,,,,,,,,,,,,,,404.64746215200284,404.65925362800044,404.8603867840029,404.8603867840029,404.8603867840029,406.56126180900173,406.56126180900173,406.54497998400257,,,,,,,,,,,,,,,,,,,,,,,,,477402,001,2024-11-28_11h02.42.491,Test,2024.2.1,59.33769226076905,2024-11-28 11h02.50.432736 +0100,
4,150,0,11,None,24,24,0,,,,,,,,,,,,,,,,0,24,24,3,,,,,406.56126180900173,,,,,,,,,,,,,,,,,,,,,,,,,,,,,,,,,,,,,,,,,,,,,,,,,,,,,,,,406.5524252080031,406.56126180900173,406.75947883400295,406.75947883400295,406.7760684490022,408.4597805810008,408.4597805810008,408.44356826400326,,,,,,,,,,,,,,,,,,,,,,,,,477402,001,2024-11-28_11h02.42.491,Test,2024.2.1,59.33769226076905,2024-11-28 11h02.50.432736 +0100,
23,150,120,8,None,25,25,0,,,,,,,,,,,,,,,,0,25,25,22,,,,,408.4597805810008,,,,,,,,,,,,,,,,,,,,,,,,,,,,,,,,,,,,,,,,,,,,,,,,,,,,,,,,408.4482736460013,408.4597805810008,408.6606037770034,408.6606037770034,408.6606037770034,410.3592888530002,410.3592888530002,410.34356648500034,,,,,,,,,,,,,,,,,,,,,,,,,477402,001,2024-11-28_11h02.42.491,Test,2024.2.1,59.33769226076905,2024-11-28 11h02.50.432736 +0100,
21,150,120,38,None,26,26,0,,,,,,,,,,,,,,,,0,26,26,20,,,,,410.3592888530002,,,,,,,,,,,,,,,,,,,,,,,,,,,,,,,,,,,,,,,,,,,,,,,,,,,,,,,,410.3477288460017,410.3592888530002,410.5596941160002,410.5596941160002,410.5596941160002,412.26009954200345,412.26009954200345,412.24377447000006,,,,,,,,,,,,,,,,,,,,,,,,,477402,001,2024-11-28_11h02.42.491,Test,2024.2.1,59.33769226076905,2024-11-28 11h02.50.432736 +0100,
12,150,60,1,None,27,27,0,,,,,,,,,,,,,,,,0,27,27,11,,,,,412.26009954200345,,,,,,,,,,,,,,,,,,,,,,,,,,,,,,,,,,,,,,,,,,,,,,,,,,,,,,,,412.24751847300286,412.26009954200345,412.46082557200134,412.46082557200134,412.46082557200134,414.1601122170032,414.1601122170032,414.1444678400003,,,,,,,,,,,,,,,,,,,,,,,,,477402,001,2024-11-28_11h02.42.491,Test,2024.2.1,59.33769226076905,2024-11-28 11h02.50.432736 +0100,
34,150,180,57,None,28,28,0,,,,,,,,,,,,,,,,0,28,28,33,,,,,414.1601122170032,,,,,,,,,,,,,,,,,,,,,,,,,,,,,,,,,,,,,,,,,,,,,,,,,,,,,,,,414.14833905800333,414.1601122170032,414.3599685350018,414.3599685350018,414.3599685350018,416.0601610840022,416.0601610840022,416.04453506700156,,,,,,,,,,,,,,,,,,,,,,,,,477402,001,2024-11-28_11h02.42.491,Test,2024.2.1,59.33769226076905,2024-11-28 11h02.50.432736 +0100,
14,150,60,21,None,29,29,0,,,,,,,,,,,,,,,,0,29,29,13,,,,,416.0601610840022,,,,,,,,,,,,,,,,,,,,,,,,,,,,,,,,,,,,,,,,,,,,,,,,,,,,,,,,416.0479006280002,416.0601610840022,416.26016858700314,416.26016858700314,416.26016858700314,417.960226272,417.960226272,417.94490032100293,,,,,,,,,,,,,,,,,,,,,,,,,477402,001,2024-11-28_11h02.42.491,Test,2024.2.1,59.33769226076905,2024-11-28 11h02.50.432736 +0100,
2,150,0,27,None,30,30,0,,,,,,,,,,,,,,,,0,30,30,1,,,,,417.960226272,,,,,,,,,,,,,,,,,,,,,,,,,,,,,,,,,,,,,,,,,,,,,,,,,,,,,,,,417.94872940300047,417.960226272,418.1606008860035,418.1606008860035,418.1606008860035,419.86063832500076,419.86063832500076,419.8454237700025,,,,,,,,,,,,,,,,,,,,,,,,,477402,001,2024-11-28_11h02.42.491,Test,2024.2.1,59.33769226076905,2024-11-28 11h02.50.432736 +0100,
9,150,30,50,None,31,31,0,,,,,,,,,,,,,,,,0,31,31,8,,,,,419.86063832500076,,,,,,,,,,,,,,,,,,,,,,,,,,,,,,,,,,,,,,,,,,,,,,,,,,,,,,,,419.84927756600155,419.86063832500076,420.0619274540004,420.0619274540004,420.0619274540004,,,421.76019927400193,,,,,,,,,,,,,,,,,,,,,,,,,477402,001,2024-11-28_11h02.42.491,Test,2024.2.1,59.33769226076905,2024-11-28 11h02.50.432736 +0100,
3,150,0,35,None,32,32,0,,,,,,,,,,,,,,,,0,32,32,2,,,,,421.7766341550014,,,,,,,,,,,,,,,,,,,,,,,,,,,,,,,,,,,,,,,,,,,,,,,,,,,,,,,,421.76408237800206,421.7766341550014,421.96030373900066,421.96030373900066,421.97682557400185,423.66074040400053,423.66074040400053,423.64485429400156,,,,,,,,,,,,,,,,,,,,,,,,,477402,001,2024-11-28_11h02.42.491,Test,2024.2.1,59.33769226076905,2024-11-28 11h02.50.432736 +0100,
19,150,90,44,None,33,33,0,,,,,,,,,,,,,,,,0,33,33,18,,,,,423.66074040400053,,,,,,,,,,,,,,,,,,,,,,,,,,,,,,,,,,,,,,,,,,,,,,,,,,,,,,,,423.64860598600353,423.66074040400053,423.8607676060019,423.8607676060019,423.8607676060019,425.5608926010027,425.5608926010027,425.54511980900133,,,,,,,,,,,,,,,,,,,,,,,,,477402,001,2024-11-28_11h02.42.491,Test,2024.2.1,59.33769226076905,2024-11-28 11h02.50.432736 +0100,
7,150,30,34,None,34,34,0,,,,,,,,,,,,,,,,0,34,34,6,,,,,425.5608926010027,,,,,,,,,,,,,,,,,,,,,,,,,,,,,,,,,,,,,,,,,,,,,,,,,,,,,,,,425.54900521900345,425.5608926010027,425.761011994,425.761011994,425.761011994,427.4612909990028,427.4612909990028,427.4458623520004,,,,,,,,,,,,,,,,,,,,,,,,,477402,001,2024-11-28_11h02.42.491,Test,2024.2.1,59.33769226076905,2024-11-28 11h02.50.432736 +0100,
,,,,,,,,,,,,,,,,,,,,,,,,,,,,,,,,,,,,,,,,,,,,,,,,,,,,,,,,,,,,,,,,,,,,,,,,,,,,,,,,,,,,,,,,,,,,,,,427.4460720490024,427.4612909990028,427.4612909990028,435.0963869290026,space,7.6198044839984505,None,,,,,,,,,,,,,,,,,,477402,001,2024-11-28_11h02.42.491,Test,2024.2.1,59.33769226076905,2024-11-28 11h02.50.432736 +0100,
29,150,150,13,None,0,0,0,False,,,,right,0.7405221139997593,None,,,,,,,,,,,,,0,0,0,0,435.11730528300177,,,,,,,,,,,,,,,,,,,,,,,,,,,,,,,,,,,,,,,,,,,,,,,,,,,,,,,,,,,,,,,,,,,,,,,435.10826033000194,435.11730528300177,436.1292494570007,437.11193669600107,437.11193669600107,437.11193669600107,437.8643739750005,right,0.7405221139997593,None,,,,,,,,477402,001,2024-11-28_11h02.42.491,Test,2024.2.1,59.33769226076905,2024-11-28 11h02.50.432736 +0100,
48,150,60,19,None,1,1,0,True,,,,right,1.0886388559993065,None,,,,,,,,,,,,,0,1,1,1,437.8783874410001,,,,,,,,,,,,,,,,,,,,,,,,,,,,,,,,,,,,,,,,,,,,,,,,,,,,,,,,,,,,,,,,,,,,,,,437.86880810700313,437.8783874410001,438.87945338200007,439.8793583170009,439.8793583170009,439.8793583170009,440.9800026230005,right,1.0886388559993065,None,,,,,,,,477402,001,2024-11-28_11h02.42.491,Test,2024.2.1,59.33769226076905,2024-11-28 11h02.50.432736 +0100,
63,150,150,69,None,2,2,0,True,,,,left,0.8008203899989894,None,,,,,,,,,,,,,0,2,2,2,440.99497543800317,,,,,,,,,,,,,,,,,,,,,,,,,,,,,,,,,,,,,,,,,,,,,,,,,,,,,,,,,,,,,,,,,,,,,,,440.98378699500245,440.99497543800317,441.9948384490017,442.97938379300103,442.97938379300103,442.97938379300103,443.7969234620032,left,0.8008203899989894,None,,,,,,,,477402,001,2024-11-28_11h02.42.491,Test,2024.2.1,59.33769226076905,2024-11-28 11h02.50.432736 +0100,
5,150,0,42,None,3,3,0,False,,,,right,0.742165366998961,None,,,,,,,,,,,,,0,3,3,3,443.81201830200007,,,,,,,,,,,,,,,,,,,,,,,,,,,,,,,,,,,,,,,,,,,,,,,,,,,,,,,,,,,,,,,,,,,,,,,443.8004422610029,443.81201830200007,444.81292724300147,445.8122500160025,445.8122500160025,445.8122500160025,446.56416380200244,right,0.742165366998961,None,,,,,,,,477402,001,2024-11-28_11h02.42.491,Test,2024.2.1,59.33769226076905,2024-11-28 11h02.50.432736 +0100,
62,150,150,43,None,4,4,0,True,,,,right,1.0902737389988033,None,,,,,,,,,,,,,0,4,4,4,446.5784501740018,,,,,,,,,,,,,,,,,,,,,,,,,,,,,,,,,,,,,,,,,,,,,,,,,,,,,,,,,,,,,,,,,,,,,,,446.56755567800064,446.5784501740018,447.57901674400273,448.5791253910029,448.5791253910029,448.5791253910029,449.6812906840023,right,1.0902737389988033,None,,,,,,,,477402,001,2024-11-28_11h02.42.491,Test,2024.2.1,59.33769226076905,2024-11-28 11h02.50.432736 +0100,
70,150,180,48,None,5,5,0,True,,,,left,0.8040561139969213,None,,,,,,,,,,,,,0,5,5,5,449.6954944340032,,,,,,,,,,,,,,,,,,,,,,,,,,,,,,,,,,,,,,,,,,,,,,,,,,,,,,,,,,,,,,,,,,,,,,,449.6847060500004,449.6954944340032,450.6957901630012,451.69606432300134,451.69606432300134,451.69606432300134,452.5146253810017,left,0.8040561139969213,None,,,,,,,,477402,001,2024-11-28_11h02.42.491,Test,2024.2.1,59.33769226076905,2024-11-28 11h02.50.432736 +0100,
33,150,180,3,None,6,6,0,False,,,,left,1.3052850249987387,None,,,,,,,,,,,,,0,6,6,6,452.52949638500286,,,,,,,,,,,,,,,,,,,,,,,,,,,,,,,,,,,,,,,,,,,,,,,,,,,,,,,,,,,,,,,,,,,,,,,452.51808611300294,452.52949638500286,453.5293665770005,454.5299900400023,454.5299900400023,454.5299900400023,455.84827608600244,left,1.3052850249987387,None,,,,,,,,477402,001,2024-11-28_11h02.42.491,Test,2024.2.1,59.33769226076905,2024-11-28 11h02.50.432736 +0100,
12,150,60,1,None,7,7,0,False,,,,right,1.109119072996691,None,,,,,,,,,,,,,0,7,7,7,455.863179613003,,,,,,,,,,,,,,,,,,,,,,,,,,,,,,,,,,,,,,,,,,,,,,,,,,,,,,,,,,,,,,,,,,,,,,,455.8518892860011,455.863179613003,456.8638453030035,457.86349618400345,457.86349618400345,457.86349618400345,458.98626249300287,right,1.109119072996691,None,,,,,,,,477402,001,2024-11-28_11h02.42.491,Test,2024.2.1,59.33769226076905,2024-11-28 11h02.50.432736 +0100,
15,150,60,61,None,8,8,0,False,,,,right,1.044000963000144,None,,,,,,,,,,,,,0,8,8,8,458.998583386001,,,,,,,,,,,,,,,,,,,,,,,,,,,,,,,,,,,,,,,,,,,,,,,,,,,,,,,,,,,,,,,,,,,,,,,458.9904220640019,458.998583386001,460.01325143000213,460.99774036000235,460.99774036000235,460.99774036000235,462.0486966870012,right,1.044000963000144,None,,,,,,,,477402,001,2024-11-28_11h02.42.491,Test,2024.2.1,59.33769226076905,2024-11-28 11h02.50.432736 +0100,
41,150,30,23,None,9,9,0,True,,,,left,1.4683473799996136,None,,,,,,,,,,,,,0,9,9,9,462.0636045220017,,,,,,,,,,,,,,,,,,,,,,,,,,,,,,,,,,,,,,,,,,,,,,,,,,,,,,,,,,,,,,,,,,,,,,,462.05254137200245,462.0636045220017,463.06361692200153,464.0633651310018,464.0633651310018,464.0633651310018,465.5485251650025,left,1.4683473799996136,None,,,,,,,,477402,001,2024-11-28_11h02.42.491,Test,2024.2.1,59.33769226076905,2024-11-28 11h02.50.432736 +0100,
6,150,30,24,None,10,10,0,False,,,,right,0.7092086329976155,None,,,,,,,,,,,,,0,10,10,10,465.5636811070035,,,,,,,,,,,,,,,,,,,,,,,,,,,,,,,,,,,,,,,,,,,,,,,,,,,,,,,,,,,,,,,,,,,,,,,465.5521664120024,465.5636811070035,466.563507117,467.54814263900334,467.54814263900334,467.54814263900334,468.2680190830033,right,0.7092086329976155,None,,,,,,,,477402,001,2024-11-28_11h02.42.491,Test,2024.2.1,59.33769226076905,2024-11-28 11h02.50.432736 +0100,
56,150,120,2,None,11,11,0,True,,,,right,0.9072089419969416,None,,,,,,,,,,,,,0,11,11,11,468.2834597100009,,,,,,,,,,,,,,,,,,,,,,,,,,,,,,,,,,,,,,,,,,,,,,,,,,,,,,,,,,,,,,,,,,,,,,,468.2740676350004,468.2834597100009,469.2979812980011,470.28187279800113,470.28187279800113,470.28187279800113,471.1983354340009,right,0.9072089419969416,None,,,,,,,,477402,001,2024-11-28_11h02.42.491,Test,2024.2.1,59.33769226076905,2024-11-28 11h02.50.432736 +0100,
43,150,30,6,None,12,12,0,True,,,,left,0.9729563360015163,None,,,,,,,,,,,,,0,12,12,12,471.21366620200206,,,,,,,,,,,,,,,,,,,,,,,,,,,,,,,,,,,,,,,,,,,,,,,,,,,,,,,,,,,,,,,,,,,,,,,471.20242919500015,471.21366620200206,472.2147279280034,473.19850064300044,473.19850064300044,473.19850064300044,474.18220658500286,left,0.9729563360015163,None,,,,,,,,477402,001,2024-11-28_11h02.42.491,Test,2024.2.1,59.33769226076905,2024-11-28 11h02.50.432736 +0100,
37,150,0,41,None,13,13,0,True,,,,left,0.8313827530000708,None,,,,,,,,,,,,,0,13,13,13,474.1974993310032,,,,,,,,,,,,,,,,,,,,,,,,,,,,,,,,,,,,,,,,,,,,,,,,,,,,,,,,,,,,,,,,,,,,,,,474.18574667800203,474.1974993310032,475.198735451002,476.19801138200273,476.19801138200273,476.19801138200273,477.0335245150018,left,0.8313827530000708,None,,,,,,,,477402,001,2024-11-28_11h02.42.491,Test,2024.2.1,59.33769226076905,2024-11-28 11h02.50.432736 +0100,
27,150,150,62,None,14,14,0,False,,,,left,1.0889489900000626,None,,,,,,,,,,,,,0,14,14,14,477.04770916100097,,,,,,,,,,,,,,,,,,,,,,,,,,,,,,,,,,,,,,,,,,,,,,,,,,,,,,,,,,,,,,,,,,,,,,,477.03801946300155,477.04770916100097,478.0477617690012,479.04791068600025,479.04791068600025,479.04791068600025,480.14956273400094,left,1.0889489900000626,None,,,,,,,,477402,001,2024-11-28_11h02.42.491,Test,2024.2.1,59.33769226076905,2024-11-28 11h02.50.432736 +0100,
52,150,90,47,None,15,15,0,True,,,,right,1.184985271000187,None,,,,,,,,,,,,,0,15,15,15,480.16428614899996,,,,,,,,,,,,,,,,,,,,,,,,,,,,,,,,,,,,,,,,,,,,,,,,,,,,,,,,,,,,,,,,,,,,,,,480.1543473840029,480.16428614899996,481.16463301100157,482.148078831,482.148078831,482.148078831,483.3508099270002,right,1.184985271000187,None,,,,,,,,477402,001,2024-11-28_11h02.42.491,Test,2024.2.1,59.33769226076905,2024-11-28 11h02.50.432736 +0100,
19,150,90,44,None,16,16,0,False,,,,right,0.7871793190024619,None,,,,,,,,,,,,,0,16,16,16,483.36462501500137,,,,,,,,,,,,,,,,,,,,,,,,,,,,,,,,,,,,,,,,,,,,,,,,,,,,,,,,,,,,,,,,,,,,,,,483.3542883730006,483.36462501500137,484.36507368000093,485.36514818700016,485.36514818700016,485.36514818700016,486.1676484230011,right,0.7871793190024619,None,,,,,,,,477402,001,2024-11-28_11h02.42.491,Test,2024.2.1,59.33769226076905,2024-11-28 11h02.50.432736 +0100,
3,150,0,35,None,17,17,0,False,,,,left,1.2757454179991328,None,,,,,,,,,,,,,0,17,17,17,486.1818518330001,,,,,,,,,,,,,,,,,,,,,,,,,,,,,,,,,,,,,,,,,,,,,,,,,,,,,,,,,,,,,,,,,,,,,,,486.17145236000215,486.1818518330001,487.1822014670033,488.1815606580021,488.1815606580021,488.1815606580021,489.4664995810017,left,1.2757454179991328,None,,,,,,,,477402,001,2024-11-28_11h02.42.491,Test,2024.2.1,59.33769226076905,2024-11-28 11h02.50.432736 +0100,
47,150,60,29,None,18,18,0,True,,,,left,1.1313916399994923,None,,,,,,,,,,,,,0,18,18,18,489.48220303700145,,,,,,,,,,,,,,,,,,,,,,,,,,,,,,,,,,,,,,,,,,,,,,,,,,,,,,,,,,,,,,,,,,,,,,,489.4701436580035,489.48220303700145,490.4829069300031,491.4816140230032,491.4816140230032,491.4816140230032,492.61730753800293,left,1.1313916399994923,None,,,,,,,,477402,001,2024-11-28_11h02.42.491,Test,2024.2.1,59.33769226076905,2024-11-28 11h02.50.432736 +0100,
68,150,180,36,None,19,19,0,True,,,,left,1.8971132980004768,None,,,,,,,,,,,,,0,19,19,19,492.63198064800235,,,,,,,,,,,,,,,,,,,,,,,,,,,,,,,,,,,,,,,,,,,,,,,,,,,,,,,,,,,,,,,,,,,,,,,492.62069333800173,492.63198064800235,493.6333900160025,494.63253231800263,494.63253231800263,494.63253231800263,496.5366866830009,left,1.8971132980004768,None,,,,,,,,477402,001,2024-11-28_11h02.42.491,Test,2024.2.1,59.33769226076905,2024-11-28 11h02.50.432736 +0100,
9,150,30,50,None,20,20,0,False,,,,right,1.0154771100023936,None,,,,,,,,,,,,,0,20,20,20,496.5507964330027,,,,,,,,,,,,,,,,,,,,,,,,,,,,,,,,,,,,,,,,,,,,,,,,,,,,,,,,,,,,,,,,,,,,,,,496.5416905380007,496.5507964330027,497.56584700700114,498.5500183920012,498.5500183920012,498.5500183920012,499.57217428700096,right,1.0154771100023936,None,,,,,,,,477402,001,2024-11-28_11h02.42.491,Test,2024.2.1,59.33769226076905,2024-11-28 11h02.50.432736 +0100,
42,150,30,63,None,21,21,0,True,,,,right,1.0667496649984969,None,,,,,,,,,,,,,0,21,21,21,499.5859359760034,,,,,,,,,,,,,,,,,,,,,,,,,,,,,,,,,,,,,,,,,,,,,,,,,,,,,,,,,,,,,,,,,,,,,,,499.57718209000086,499.5859359760034,500.5992254240009,501.58367397000256,501.58367397000256,501.58367397000256,502.6673244120029,right,1.0667496649984969,None,,,,,,,,477402,001,2024-11-28_11h02.42.491,Test,2024.2.1,59.33769226076905,2024-11-28 11h02.50.432736 +0100,
17,150,90,52,None,22,22,0,False,,,,left,1.0841920960010611,None,,,,,,,,,,,,,0,22,22,22,502.6825542410006,,,,,,,,,,,,,,,,,,,,,,,,,,,,,,,,,,,,,,,,,,,,,,,,,,,,,,,,,,,,,,,,,,,,,,,502.6710404610021,502.6825542410006,503.6836905850032,504.66721605600105,504.66721605600105,504.66721605600105,505.7680622070002,left,1.0841920960010611,None,,,,,,,,477402,001,2024-11-28_11h02.42.491,Test,2024.2.1,59.33769226076905,2024-11-28 11h02.50.432736 +0100,
38,150,0,56,None,23,23,0,True,,,,right,2.0964525939998566,None,,,,,,,,,,,,,0,23,23,23,505.7825098170033,,,,,,,,,,,,,,,,,,,,,,,,,,,,,,,,,,,,,,,,,,,,,,,,,,,,,,,,,,,,,,,,,,,,,,,505.7716076020006,505.7825098170033,506.78287298000214,507.7674399660027,507.7674399660027,507.7674399660027,509.86886499200045,right,2.0964525939998566,None,,,,,,,,477402,001,2024-11-28_11h02.42.491,Test,2024.2.1,59.33769226076905,2024-11-28 11h02.50.432736 +0100,
34,150,180,57,None,24,24,0,False,,,,left,1.9734986539988313,None,,,,,,,,,,,,,0,24,24,24,509.88322082800005,,,,,,,,,,,,,,,,,,,,,,,,,,,,,,,,,,,,,,,,,,,,,,,,,,,,,,,,,,,,,,,,,,,,,,,509.87234405100025,509.88322082800005,510.8840786760011,511.8831187040014,511.8831187040014,511.8831187040014,513.8690429430026,left,1.9734986539988313,None,,,,,,,,477402,001,2024-11-28_11h02.42.491,Test,2024.2.1,59.33769226076905,2024-11-28 11h02.50.432736 +0100,
67,150,180,16,None,25,25,0,True,,,,right,0.7491775560010865,None,,,,,,,,,,,,,0,25,25,25,513.8838622080002,,,,,,,,,,,,,,,,,,,,,,,,,,,,,,,,,,,,,,,,,,,,,,,,,,,,,,,,,,,,,,,,,,,,,,,513.873071981001,513.8838622080002,514.8846920250035,515.885050877001,515.885050877001,515.885050877001,516.636592867002,right,0.7491775560010865,None,,,,,,,,477402,001,2024-11-28_11h02.42.491,Test,2024.2.1,59.33769226076905,2024-11-28 11h02.50.432736 +0100,
1,150,0,28,None,26,26,0,False,,,,left,2.154472356000042,None,,,,,,,,,,,,,0,26,26,26,516.6504124470011,,,,,,,,,,,,,,,,,,,,,,,,,,,,,,,,,,,,,,,,,,,,,,,,,,,,,,,,,,,,,,,,,,,,,,,516.6402082480017,516.6504124470011,517.6509885370033,518.6509658700015,518.6509658700015,518.6509658700015,520.8191430170009,left,2.154472356000042,None,,,,,,,,477402,001,2024-11-28_11h02.42.491,Test,2024.2.1,59.33769226076905,2024-11-28 11h02.50.432736 +0100,
4,150,0,11,None,27,27,0,False,,,,right,0.8011251900024945,None,,,,,,,,,,,,,0,27,27,27,520.835082880003,,,,,,,,,,,,,,,,,,,,,,,,,,,,,,,,,,,,,,,,,,,,,,,,,,,,,,,,,,,,,,,,,,,,,,,520.8246071350004,520.835082880003,521.8507521120009,522.818425677,522.818425677,522.818425677,523.6361923860022,right,0.8011251900024945,None,,,,,,,,477402,001,2024-11-28_11h02.42.491,Test,2024.2.1,59.33769226076905,2024-11-28 11h02.50.432736 +0100,
8,150,30,10,None,28,28,0,False,,,,right,1.0072981689991138,None,,,,,,,,,,,,,0,28,28,28,523.6511074050031,,,,,,,,,,,,,,,,,,,,,,,,,,,,,,,,,,,,,,,,,,,,,,,,,,,,,,,,,,,,,,,,,,,,,,,523.6409610040027,523.6511074050031,524.6511498320033,525.6516494660027,525.6516494660027,525.6516494660027,526.6690601770024,right,1.0072981689991138,None,,,,,,,,477402,001,2024-11-28_11h02.42.491,Test,2024.2.1,59.33769226076905,2024-11-28 11h02.50.432736 +0100,
13,150,60,32,None,29,29,0,False,,,,right,1.0763284050008224,None,,,,,,,,,,,,,0,29,29,29,526.6846784820009,,,,,,,,,,,,,,,,,,,,,,,,,,,,,,,,,,,,,,,,,,,,,,,,,,,,,,,,,,,,,,,,,,,,,,,526.6725241230015,526.6846784820009,527.684675833003,528.6690278840033,528.6690278840033,528.6690278840033,529.7540835910004,right,1.0763284050008224,None,,,,,,,,477402,001,2024-11-28_11h02.42.491,Test,2024.2.1,59.33769226076905,2024-11-28 11h02.50.432736 +0100,
64,150,150,4,None,30,30,0,True,,,,right,1.8003445630019996,None,,,,,,,,,,,,,0,30,30,30,529.7674402340017,,,,,,,,,,,,,,,,,,,,,,,,,,,,,,,,,,,,,,,,,,,,,,,,,,,,,,,,,,,,,,,,,,,,,,,529.7576946610025,529.7674402340017,530.7692241480036,531.7690880400005,531.7690880400005,531.7690880400005,533.5866834280023,right,1.8003445630019996,None,,,,,,,,477402,001,2024-11-28_11h02.42.491,Test,2024.2.1,59.33769226076905,2024-11-28 11h02.50.432736 +0100,
20,150,90,15,None,31,31,0,False,,,,right,1.1889284390017565,None,,,,,,,,,,,,,0,31,31,31,533.6010534160014,,,,,,,,,,,,,,,,,,,,,,,,,,,,,,,,,,,,,,,,,,,,,,,,,,,,,,,,,,,,,,,,,,,,,,,533.5901878170007,533.6010534160014,534.6016183240026,535.6017374420007,535.6017374420007,535.6017374420007,536.8037092600025,right,1.1889284390017565,None,,,,,,,,477402,001,2024-11-28_11h02.42.491,Test,2024.2.1,59.33769226076905,2024-11-28 11h02.50.432736 +0100,
46,150,60,53,None,32,32,0,True,,,,left,1.3669111019989941,None,,,,,,,,,,,,,0,32,32,32,536.8179540800011,,,,,,,,,,,,,,,,,,,,,,,,,,,,,,,,,,,,,,,,,,,,,,,,,,,,,,,,,,,,,,,,,,,,,,,536.8071336040011,536.8179540800011,537.8194482410036,538.8191831290023,538.8191831290023,538.8191831290023,540.1885437110031,left,1.3669111019989941,None,,,,,,,,477402,001,2024-11-28_11h02.42.491,Test,2024.2.1,59.33769226076905,2024-11-28 11h02.50.432736 +0100,
61,150,150,20,None,33,33,0,True,,,,right,2.4847740039986093,None,,,,,,,,,,,,,0,33,33,33,540.2020686220021,,,,,,,,,,,,,,,,,,,,,,,,,,,,,,,,,,,,,,,,,,,,,,,,,,,,,,,,,,,,,,,,,,,,,,,540.1919904900024,540.2020686220021,541.2021742950019,542.1849649700016,542.1849649700016,542.1849649700016,544.6714508020013,right,2.4847740039986093,None,,,,,,,,477402,001,2024-11-28_11h02.42.491,Test,2024.2.1,59.33769226076905,2024-11-28 11h02.50.432736 +0100,
16,150,90,58,None,34,34,0,False,,,,right,0.6819375889972434,None,,,,,,,,,,,,,0,34,34,34,544.6854523680013,,,,,,,,,,,,,,,,,,,,,,,,,,,,,,,,,,,,,,,,,,,,,,,,,,,,,,,,,,,,,,,,,,,,,,,544.6751030310006,544.6854523680013,545.6864170080007,546.6868977810009,546.6868977810009,546.6868977810009,547.3735653380027,right,0.6819375889972434,None,,,,,,,,477402,001,2024-11-28_11h02.42.491,Test,2024.2.1,59.33769226076905,2024-11-28 11h02.50.432736 +0100,
10,150,30,67,None,35,35,0,False,,,,left,0.7692844080011128,None,,,,,,,,,,,,,0,35,35,35,547.3859886600003,,,,,,,,,,,,,,,,,,,,,,,,,,,,,,,,,,,,,,,,,,,,,,,,,,,,,,,,,,,,,,,,,,,,,,,547.3772684080031,547.3859886600003,548.3863706390002,549.3870073160033,549.3870073160033,549.3870073160033,550.1716645740016,left,0.7692844080011128,None,,,,,,,,477402,001,2024-11-28_11h02.42.491,Test,2024.2.1,59.33769226076905,2024-11-28 11h02.50.432736 +0100,
55,150,90,5,None,36,36,0,True,,,,right,0.9166484199995466,None,,,,,,,,,,,,,0,36,36,36,550.1862610000026,,,,,,,,,,,,,,,,,,,,,,,,,,,,,,,,,,,,,,,,,,,,,,,,,,,,,,,,,,,,,,,,,,,,,,,550.175223461003,550.1862610000026,551.1865451090016,552.1872977890016,552.1872977890016,552.1872977890016,553.1211039340014,right,0.9166484199995466,None,,,,,,,,477402,001,2024-11-28_11h02.42.491,Test,2024.2.1,59.33769226076905,2024-11-28 11h02.50.432736 +0100,
39,150,0,49,None,37,37,0,True,,,,left,1.209035652998864,None,,,,,,,,,,,,,0,37,37,37,553.1358326930022,,,,,,,,,,,,,,,,,,,,,,,,,,,,,,,,,,,,,,,,,,,,,,,,,,,,,,,,,,,,,,,,,,,,,,,553.1246990850013,553.1358326930022,554.1362958390018,555.1197678470016,555.1197678470016,555.1197678470016,556.3377198590024,left,1.209035652998864,None,,,,,,,,477402,001,2024-11-28_11h02.42.491,Test,2024.2.1,59.33769226076905,2024-11-28 11h02.50.432736 +0100,
69,150,180,68,None,38,38,0,True,,,,left,1.0653006050015392,None,,,,,,,,,,,,,0,38,38,38,556.3532595570032,,,,,,,,,,,,,,,,,,,,,,,,,,,,,,,,,,,,,,,,,,,,,,,,,,,,,,,,,,,,,,,,,,,,,,,556.3410222460006,556.3532595570032,557.3536393270006,558.3534536390034,558.3534536390034,558.3534536390034,559.4248401270015,left,1.0653006050015392,None,,,,,,,,477402,001,2024-11-28_11h02.42.491,Test,2024.2.1,59.33769226076905,2024-11-28 11h02.50.432736 +0100,
50,150,60,54,None,39,39,0,True,,,,right,0.8602227699993819,None,,,,,,,,,,,,,0,39,39,39,559.4526040490018,,,,,,,,,,,,,,,,,,,,,,,,,,,,,,,,,,,,,,,,,,,,,,,,,,,,,,,,,,,,,,,,,,,,,,,559.4292909410033,559.4526040490018,560.4547290400005,561.4369511360019,561.4369511360019,561.4369511360019,562.3051363800005,right,0.8602227699993819,None,,,,,,,,477402,001,2024-11-28_11h02.42.491,Test,2024.2.1,59.33769226076905,2024-11-28 11h02.50.432736 +0100,
58,150,120,7,None,40,40,0,True,,,,right,0.9803482220013393,None,,,,,,,,,,,,,0,40,40,40,562.3198596760012,,,,,,,,,,,,,,,,,,,,,,,,,,,,,,,,,,,,,,,,,,,,,,,,,,,,,,,,,,,,,,,,,,,,,,,562.3085652610025,562.3198596760012,563.3211767690009,564.3047098270035,564.3047098270035,564.3047098270035,565.2914089660007,right,0.9803482220013393,None,,,,,,,,477402,001,2024-11-28_11h02.42.491,Test,2024.2.1,59.33769226076905,2024-11-28 11h02.50.432736 +0100,
23,150,120,8,None,41,41,0,False,,,,left,1.7358299090010405,None,,,,,,,,,,,,,0,41,41,41,565.3052230910034,,,,,,,,,,,,,,,,,,,,,,,,,,,,,,,,,,,,,,,,,,,,,,,,,,,,,,,,,,,,,,,,,,,,,,,565.2957016910004,565.3052230910034,566.3050692330035,567.3040604710004,567.3040604710004,567.3040604710004,569.0554266890031,left,1.7358299090010405,None,,,,,,,,477402,001,2024-11-28_11h02.42.491,Test,2024.2.1,59.33769226076905,2024-11-28 11h02.50.432736 +0100,
59,150,120,45,None,42,42,0,True,,,,right,0.8259667370002717,None,,,,,,,,,,,,,0,42,42,42,569.0707692010001,,,,,,,,,,,,,,,,,,,,,,,,,,,,,,,,,,,,,,,,,,,,,,,,,,,,,,,,,,,,,,,,,,,,,,,569.0594777540027,569.0707692010001,570.0707553520006,571.0717187220034,571.0717187220034,571.0717187220034,571.9070108990018,right,0.8259667370002717,None,,,,,,,,477402,001,2024-11-28_11h02.42.491,Test,2024.2.1,59.33769226076905,2024-11-28 11h02.50.432736 +0100,
18,150,90,40,None,43,43,0,False,,,,right,0.8878772319985728,None,,,,,,,,,,,,,0,43,43,43,571.921020269001,,,,,,,,,,,,,,,,,,,,,,,,,,,,,,,,,,,,,,,,,,,,,,,,,,,,,,,,,,,,,,,,,,,,,,,571.910534507002,571.921020269001,572.9210271700031,573.9220666090005,573.9220666090005,573.9220666090005,574.8234730000004,right,0.8878772319985728,None,,,,,,,,477402,001,2024-11-28_11h02.42.491,Test,2024.2.1,59.33769226076905,2024-11-28 11h02.50.432736 +0100,
28,150,150,70,None,44,44,0,False,,,,right,1.1302441420011746,None,,,,,,,,,,,,,0,44,44,44,574.8374316690024,,,,,,,,,,,,,,,,,,,,,,,,,,,,,,,,,,,,,,,,,,,,,,,,,,,,,,,,,,,,,,,,,,,,,,,574.8269255740015,574.8374316690024,575.8378565870007,576.8390556350023,576.8390556350023,576.8390556350023,577.9733672700022,right,1.1302441420011746,None,,,,,,,,477402,001,2024-11-28_11h02.42.491,Test,2024.2.1,59.33769226076905,2024-11-28 11h02.50.432736 +0100,
51,150,90,31,None,45,45,0,True,,,,left,1.8412275439986843,None,,,,,,,,,,,,,0,45,45,45,577.9882919670017,,,,,,,,,,,,,,,,,,,,,,,,,,,,,,,,,,,,,,,,,,,,,,,,,,,,,,,,,,,,,,,,,,,,,,,577.9769262430018,577.9882919670017,578.988112346,579.9882413680025,579.9882413680025,579.9882413680025,581.8402321910035,left,1.8412275439986843,None,,,,,,,,477402,001,2024-11-28_11h02.42.491,Test,2024.2.1,59.33769226076905,2024-11-28 11h02.50.432736 +0100,
25,150,120,59,None,46,46,0,False,,,,right,0.9070113400011905,None,,,,,,,,,,,,,0,46,46,46,581.855066463002,,,,,,,,,,,,,,,,,,,,,,,,,,,,,,,,,,,,,,,,,,,,,,,,,,,,,,,,,,,,,,,,,,,,,,,581.8437151690014,581.855066463002,582.8548639990004,583.839482935,583.839482935,583.839482935,584.7569071290018,right,0.9070113400011905,None,,,,,,,,477402,001,2024-11-28_11h02.42.491,Test,2024.2.1,59.33769226076905,2024-11-28 11h02.50.432736 +0100,
45,150,30,9,None,47,47,0,True,,,,left,0.9385740050020104,None,,,,,,,,,,,,,0,47,47,47,584.7720011660022,,,,,,,,,,,,,,,,,,,,,,,,,,,,,,,,,,,,,,,,,,,,,,,,,,,,,,,,,,,,,,,,,,,,,,,584.7604101350007,584.7720011660022,585.7725667430022,586.7560532220014,586.7560532220014,586.7560532220014,587.7071536200019,left,0.9385740050020104,None,,,,,,,,477402,001,2024-11-28_11h02.42.491,Test,2024.2.1,59.33769226076905,2024-11-28 11h02.50.432736 +0100,
66,150,180,25,None,48,48,0,True,,,,right,1.349613310998393,None,,,,,,,,,,,,,0,48,48,48,587.7221637140028,,,,,,,,,,,,,,,,,,,,,,,,,,,,,,,,,,,,,,,,,,,,,,,,,,,,,,,,,,,,,,,,,,,,,,,587.710488126002,587.7221637140028,588.7231028270035,589.7064798690008,589.7064798690008,589.7064798690008,591.0583100040021,right,1.349613310998393,None,,,,,,,,477402,001,2024-11-28_11h02.42.491,Test,2024.2.1,59.33769226076905,2024-11-28 11h02.50.432736 +0100,
40,150,0,37,None,49,49,0,True,,,,right,1.2224344489986834,None,,,,,,,,,,,,,0,49,49,49,591.0718324100017,,,,,,,,,,,,,,,,,,,,,,,,,,,,,,,,,,,,,,,,,,,,,,,,,,,,,,,,,,,,,,,,,,,,,,,591.061662801003,591.0718324100017,592.073231675,593.0850064450024,593.0850064450024,593.0850064450024,594.3110414660005,right,1.2224344489986834,None,,,,,,,,477402,001,2024-11-28_11h02.42.491,Test,2024.2.1,59.33769226076905,2024-11-28 11h02.50.432736 +0100,
44,150,30,55,None,50,50,0,True,,,,left,1.0387409139984811,None,,,,,,,,,,,,,0,50,50,50,594.3238660250026,,,,,,,,,,,,,,,,,,,,,,,,,,,,,,,,,,,,,,,,,,,,,,,,,,,,,,,,,,,,,,,,,,,,,,,594.3152854660002,594.3238660250026,595.3387555640002,596.3235602530003,596.3235602530003,596.3235602530003,597.3743606500029,left,1.0387409139984811,None,,,,,,,,477402,001,2024-11-28_11h02.42.491,Test,2024.2.1,59.33769226076905,2024-11-28 11h02.50.432736 +0100,
21,150,120,38,None,51,51,0,False,,,,left,1.3713110579992644,None,,,,,,,,,,,,,0,51,51,51,597.388893708001,,,,,,,,,,,,,,,,,,,,,,,,,,,,,,,,,,,,,,,,,,,,,,,,,,,,,,,,,,,,,,,,,,,,,,,597.3779283860022,597.388893708001,598.3898329560034,599.3739934050027,599.3739934050027,599.3739934050027,600.7574557760017,left,1.3713110579992644,None,,,,,,,,477402,001,2024-11-28_11h02.42.491,Test,2024.2.1,59.33769226076905,2024-11-28 11h02.50.432736 +0100,
30,150,150,46,None,52,52,0,False,,,,right,1.3195760050002718,None,,,,,,,,,,,,,0,52,52,52,600.7733789490012,,,,,,,,,,,,,,,,,,,,,,,,,,,,,,,,,,,,,,,,,,,,,,,,,,,,,,,,,,,,,,,,,,,,,,,600.760800125001,600.7733789490012,601.7737907290029,602.7571570020009,602.7571570020009,602.7571570020009,604.0918392580024,right,1.3195760050002718,None,,,,,,,,477402,001,2024-11-28_11h02.42.491,Test,2024.2.1,59.33769226076905,2024-11-28 11h02.50.432736 +0100,
26,150,150,14,None,53,53,0,False,,,,right,0.8229418939990865,None,,,,,,,,,,,,,0,53,53,53,604.1063331040023,,,,,,,,,,,,,,,,,,,,,,,,,,,,,,,,,,,,,,,,,,,,,,,,,,,,,,,,,,,,,,,,,,,,,,,604.0952574700023,604.1063331040023,605.1078453790033,606.0906661010013,606.0906661010013,606.0906661010013,606.9253216140023,right,0.8229418939990865,None,,,,,,,,477402,001,2024-11-28_11h02.42.491,Test,2024.2.1,59.33769226076905,2024-11-28 11h02.50.432736 +0100,
7,150,30,34,None,54,54,0,False,,,,left,0.9230678300009458,None,,,,,,,,,,,,,0,54,54,54,606.9394982900012,,,,,,,,,,,,,,,,,,,,,,,,,,,,,,,,,,,,,,,,,,,,,,,,,,,,,,,,,,,,,,,,,,,,,,,606.9287367780016,606.9394982900012,607.9405439050024,608.9402759660006,608.9402759660006,608.9402759660006,609.8752193790024,left,0.9230678300009458,None,,,,,,,,477402,001,2024-11-28_11h02.42.491,Test,2024.2.1,59.33769226076905,2024-11-28 11h02.50.432736 +0100,
24,150,120,33,None,55,55,0,False,,,,right,0.6679088470009447,None,,,,,,,,,,,,,0,55,55,55,609.8900227870035,,,,,,,,,,,,,,,,,,,,,,,,,,,,,,,,,,,,,,,,,,,,,,,,,,,,,,,,,,,,,,,,,,,,,,,609.8786066110006,609.8900227870035,610.8911233310027,611.8745840180018,611.8745840180018,611.8745840180018,612.5588225650026,right,0.6679088470009447,None,,,,,,,,477402,001,2024-11-28_11h02.42.491,Test,2024.2.1,59.33769226076905,2024-11-28 11h02.50.432736 +0100,
54,150,90,60,None,56,56,0,True,,,,right,1.7339008820017625,None,,,,,,,,,,,,,0,56,56,56,612.5739651720032,,,,,,,,,,,,,,,,,,,,,,,,,,,,,,,,,,,,,,,,,,,,,,,,,,,,,,,,,,,,,,,,,,,,,,,612.5624768020025,612.5739651720032,613.5750171040017,614.5579878120006,614.5579878120006,614.5579878120006,616.2957369340002,right,1.7339008820017625,None,,,,,,,,477402,001,2024-11-28_11h02.42.491,Test,2024.2.1,59.33769226076905,2024-11-28 11h02.50.432736 +0100,
49,150,60,66,None,57,57,0,True,,,,right,0.8403800729975046,None,,,,,,,,,,,,,0,57,57,57,616.3088537050025,,,,,,,,,,,,,,,,,,,,,,,,,,,,,,,,,,,,,,,,,,,,,,,,,,,,,,,,,,,,,,,,,,,,,,,616.3000278480031,616.3088537050025,617.3245397460014,618.3075465330003,618.3075465330003,618.3075465330003,619.159890283001,right,0.8403800729975046,None,,,,,,,,477402,001,2024-11-28_11h02.42.491,Test,2024.2.1,59.33769226076905,2024-11-28 11h02.50.432736 +0100,
57,150,120,22,None,58,58,0,True,,,,right,0.7244587179993687,None,,,,,,,,,,,,,0,58,58,58,619.1737732940019,,,,,,,,,,,,,,,,,,,,,,,,,,,,,,,,,,,,,,,,,,,,,,,,,,,,,,,,,,,,,,,,,,,,,,,619.1635495590017,619.1737732940019,620.174973571,621.1748519380017,621.1748519380017,621.1748519380017,621.9095129020025,right,0.7244587179993687,None,,,,,,,,477402,001,2024-11-28_11h02.42.491,Test,2024.2.1,59.33769226076905,2024-11-28 11h02.50.432736 +0100,
22,150,120,65,None,59,59,0,False,,,,right,0.9518014200002654,None,,,,,,,,,,,,,0,59,59,59,621.9245619760004,,,,,,,,,,,,,,,,,,,,,,,,,,,,,,,,,,,,,,,,,,,,,,,,,,,,,,,,,,,,,,,,,,,,,,,621.9129038630017,621.9245619760004,622.925464832002,623.9249311670028,623.9249311670028,623.9249311670028,624.8934415660005,right,0.9518014200002654,None,,,,,,,,477402,001,2024-11-28_11h02.42.491,Test,2024.2.1,59.33769226076905,2024-11-28 11h02.50.432736 +0100,
2,150,0,27,None,60,60,0,False,,,,right,1.4575160889980907,None,,,,,,,,,,,,,0,60,60,60,624.9079766170034,,,,,,,,,,,,,,,,,,,,,,,,,,,,,,,,,,,,,,,,,,,,,,,,,,,,,,,,,,,,,,,,,,,,,,,624.8972834210035,624.9079766170034,625.908064555002,626.9093932700016,626.9093932700016,626.9093932700016,628.3758889760029,right,1.4575160889980907,None,,,,,,,,477402,001,2024-11-28_11h02.42.491,Test,2024.2.1,59.33769226076905,2024-11-28 11h02.50.432736 +0100,
14,150,60,21,None,61,61,0,False,,,,right,1.32039657399946,None,,,,,,,,,,,,,0,61,61,61,628.391510665002,,,,,,,,,,,,,,,,,,,,,,,,,,,,,,,,,,,,,,,,,,,,,,,,,,,,,,,,,,,,,,,,,,,,,,,628.3793225850022,628.391510665002,629.3915392570016,630.3758437360011,630.3758437360011,630.3758437360011,631.7107400700006,right,1.32039657399946,None,,,,,,,,477402,001,2024-11-28_11h02.42.491,Test,2024.2.1,59.33769226076905,2024-11-28 11h02.50.432736 +0100,
31,150,180,17,None,62,62,0,False,,,,left,1.379837526998017,None,,,,,,,,,,,,,0,62,62,62,631.725192705002,,,,,,,,,,,,,,,,,,,,,,,,,,,,,,,,,,,,,,,,,,,,,,,,,,,,,,,,,,,,,,,,,,,,,,,631.7141886100035,631.725192705002,632.7260480540026,633.72804713,633.72804713,633.72804713,635.1136145540004,left,1.379837526998017,None,,,,,,,,477402,001,2024-11-28_11h02.42.491,Test,2024.2.1,59.33769226076905,2024-11-28 11h02.50.432736 +0100,
36,150,0,30,None,63,63,0,True,,,,left,1.6078047669980151,None,,,,,,,,,,,,,0,63,63,63,635.1267194200009,,,,,,,,,,,,,,,,,,,,,,,,,,,,,,,,,,,,,,,,,,,,,,,,,,,,,,,,,,,,,,,,,,,,,,,635.1179504600004,635.1267194200009,636.1263643010025,637.1267401320001,637.1267401320001,637.1267401320001,638.7451555960033,left,1.6078047669980151,None,,,,,,,,477402,001,2024-11-28_11h02.42.491,Test,2024.2.1,59.33769226076905,2024-11-28 11h02.50.432736 +0100,
35,150,180,12,None,64,64,0,False,,,,right,2.1354074249975383,None,,,,,,,,,,,,,0,64,64,64,638.759079923002,,,,,,,,,,,,,,,,,,,,,,,,,,,,,,,,,,,,,,,,,,,,,,,,,,,,,,,,,,,,,,,,,,,,,,,638.7490748210002,638.759079923002,639.7597232030021,640.7601858890011,640.7601858890011,640.7601858890011,642.9107555130031,right,2.1354074249975383,None,,,,,,,,477402,001,2024-11-28_11h02.42.491,Test,2024.2.1,59.33769226076905,2024-11-28 11h02.50.432736 +0100,
53,150,90,64,None,65,65,0,True,,,,right,0.6829562790007913,None,,,,,,,,,,,,,0,65,65,65,642.9258878040018,,,,,,,,,,,,,,,,,,,,,,,,,,,,,,,,,,,,,,,,,,,,,,,,,,,,,,,,,,,,,,,,,,,,,,,642.9142246740012,642.9258878040018,643.9254120230034,644.9101516830015,644.9101516830015,644.9101516830015,645.5950818050005,right,0.6829562790007913,None,,,,,,,,477402,001,2024-11-28_11h02.42.491,Test,2024.2.1,59.33769226076905,2024-11-28 11h02.50.432736 +0100,
11,150,60,51,None,66,66,0,False,,,,left,0.834672013999807,None,,,,,,,,,,,,,0,66,66,66,645.6094771800017,,,,,,,,,,,,,,,,,,,,,,,,,,,,,,,,,,,,,,,,,,,,,,,,,,,,,,,,,,,,,,,,,,,,,,,645.5986174600002,645.6094771800017,646.6094356640024,647.6101188080029,647.6101188080029,647.6101188080029,648.4614741780024,left,0.834672013999807,None,,,,,,,,477402,001,2024-11-28_11h02.42.491,Test,2024.2.1,59.33769226076905,2024-11-28 11h02.50.432736 +0100,
60,150,120,39,None,67,67,0,True,,,,right,0.9343228840007214,None,,,,,,,,,,,,,0,67,67,67,648.4759357070034,,,,,,,,,,,,,,,,,,,,,,,,,,,,,,,,,,,,,,,,,,,,,,,,,,,,,,,,,,,,,,,,,,,,,,,648.4654628160024,648.4759357070034,649.4767343750027,650.4608261120011,650.4608261120011,650.4608261120011,651.4104829950011,right,0.9343228840007214,None,,,,,,,,477402,001,2024-11-28_11h02.42.491,Test,2024.2.1,59.33769226076905,2024-11-28 11h02.50.432736 +0100,
32,150,180,26,None,68,68,0,False,,,,right,1.172180852998281,None,,,,,,,,,,,,,0,68,68,68,651.4263258780011,,,,,,,,,,,,,,,,,,,,,,,,,,,,,,,,,,,,,,,,,,,,,,,,,,,,,,,,,,,,,,,,,,,,,,,651.4139103600028,651.4263258780011,652.4263519010019,653.4099428980007,653.4099428980007,653.4099428980007,654.5949114890027,right,1.172180852998281,None,,,,,,,,477402,001,2024-11-28_11h02.42.491,Test,2024.2.1,59.33769226076905,2024-11-28 11h02.50.432736 +0100,
65,150,150,18,None,69,69,0,True,,,,left,1.0580459849988983,None,,,,,,,,,,,,,0,69,69,69,654.6095889090029,,,,,,,,,,,,,,,,,,,,,,,,,,,,,,,,,,,,,,,,,,,,,,,,,,,,,,,,,,,,,,,,,,,,,,,654.5983808730016,654.6095889090029,655.6100274440032,656.6104138090013,656.6104138090013,656.6104138090013,657.678825813,left,1.0580459849988983,None,,,,,,,,477402,001,2024-11-28_11h02.42.491,Test,2024.2.1,59.33769226076905,2024-11-28 11h02.50.432736 +0100,
,,,,,,,,,,,,,,,,,,,,,,,,,,,,,,,,,,,,,,,,,,,,,,,,,,,,,,,,,,,,,,,,,,,,,,,,,,,,,,,,,,,,,,,,,,,,,,,,,,,,,,,,,,,,,,,,657.679038688002,657.6934653440003,657.6934653440003,659.6459193720002,space,1.9393639959998836,None,477402,001,2024-11-28_11h02.42.491,Test,2024.2.1,59.33769226076905,2024-11-28 11h02.50.432736 +0100,
