Trial_Number,Exposure_Duration,Displacement_Angle,Stimulus,Response,thisN,thisTrialN,thisRepN,Is_Distractor,key_resp_3.keys,key_resp_3.rt,key_resp_3.duration,key_resp_7.keys,key_resp_7.rt,key_resp_7.duration,trials.thisRepN,trials.thisTrialN,trials.thisN,trials.thisIndex,trials_2.thisRepN,trials_2.thisTrialN,trials_2.thisN,trials_2.thisIndex,trials_3.thisRepN,trials_3.thisTrialN,trials_3.thisN,trials_3.thisIndex,trials_4.thisRepN,trials_4.thisTrialN,trials_4.thisN,trials_4.thisIndex,thisRow.t,notes,Intro_to_experiment.started,important1_2.started,key_resp_8.started,Intro_to_experiment.stopped,key_resp_8.keys,key_resp_8.rt,key_resp_8.duration,important.started,important1.started,key_resp_4.started,important.stopped,key_resp_4.keys,key_resp_4.rt,key_resp_4.duration,instruction.started,text_7.started,key_resp_9.started,instruction.stopped,key_resp_9.keys,key_resp_9.rt,key_resp_9.duration,training_trial.started,cross.started,image.started,aperture.started,cross.stopped,image.stopped,aperture.stopped,training_trial.stopped,New_instruction.started,text.started,key_resp_2.started,New_instruction.stopped,key_resp_2.keys,key_resp_2.rt,key_resp_2.duration,test_trial.started,cross2.started,cross2.stopped,image_2.started,key_resp_3.started,aperture_2.started,image_2.stopped,text_3.started,aperture_2.stopped,test_trial.stopped,trials_2.key_resp_3.keys,trials_2.key_resp_3.rt,trials_2.key_resp_3.duration,start_blok_2.started,key_resp_5.started,text_4.started,start_blok_2.stopped,key_resp_5.keys,key_resp_5.rt,key_resp_5.duration,training_2.started,cross_2.started,image_3.started,aperture_3.started,cross_2.stopped,image_3.stopped,aperture_3.stopped,training_2.stopped,nyeste_instruks.started,text_5.started,key_resp_6.started,nyeste_instruks.stopped,key_resp_6.keys,key_resp_6.rt,key_resp_6.duration,test_2.started,cross2_2.started,cross2_2.stopped,image_4.started,key_resp_7.started,aperture_4.started,test_2.stopped,trials_4.key_resp_7.keys,trials_4.key_resp_7.rt,trials_4.key_resp_7.duration,text_6.started,image_4.stopped,aperture_4.stopped,Instruction1.started,Instruktion.started,key_resp.started,Instruction1.stopped,key_resp.keys,key_resp.rt,key_resp.duration,participant,session,date,expName,psychopyVersion,frameRate,expStart,
,,,,,,,,,,,,,,,,,,,,,,,,,,,,,,,,,0.01828460700198775,0.03742115100249066,0.03742115100249066,70.62622724900211,space,70.56133246800164,None,,,,,,,,,,,,,,,,,,,,,,,,,,,,,,,,,,,,,,,,,,,,,,,,,,,,,,,,,,,,,,,,,,,,,,,,,,,,,,,,,,,,,547145,001,2024-12-01_16h27.10.843,Test,2024.2.1,60.073045219003646,2024-12-01 16h27.25.383647 +0100,
,,,,,,,,,,,,,,,,,,,,,,,,,,,,,,,,,,,,,,,,70.62630631700085,70.64840040600029,70.64840040600029,72.6548429200011,space,1.9982929499965394,None,,,,,,,,,,,,,,,,,,,,,,,,,,,,,,,,,,,,,,,,,,,,,,,,,,,,,,,,,,,,,,,,,,,,,,,,,,,,,,547145,001,2024-12-01_16h27.10.843,Test,2024.2.1,60.073045219003646,2024-12-01 16h27.25.383647 +0100,
,,,,,,,,,,,,,,,,,,,,,,,,,,,,,,,,,,,,,,,,,,,,,,,72.65490605200102,72.67045907099964,72.67045907099964,77.52167981200182,space,4.838968986001419,None,,,,,,,,,,,,,,,,,,,,,,,,,,,,,,,,,,,,,,,,,,,,,,,,,,,,,,,,,,,,,,,,,,,,,,,547145,001,2024-12-01_16h27.10.843,Test,2024.2.1,60.073045219003646,2024-12-01 16h27.25.383647 +0100,
5,150,0,4,None,0,0,0,,,,,,,,0,0,0,4,,,,,,,,,,,,,77.60086096500163,,,,,,,,,,,,,,,,,,,,,,,77.59152843899938,77.60086096500163,77.7207906290023,77.7207906290023,77.80458063500191,79.4238816649995,79.4238816649995,79.40532506300224,,,,,,,,,,,,,,,,,,,,,,,,,,,,,,,,,,,,,,,,,,,,,,,,,,,,,,,,,,,,,,,547145,001,2024-12-01_16h27.10.843,Test,2024.2.1,60.073045219003646,2024-12-01 16h27.25.383647 +0100,
6,150,30,20,None,1,1,0,,,,,,,,0,1,1,5,,,,,,,,,,,,,79.4238816649995,,,,,,,,,,,,,,,,,,,,,,,79.4155932270005,79.4238816649995,79.62102142100048,79.62102142100048,79.63784216700151,81.32197202799944,81.32197202799944,81.305273553,,,,,,,,,,,,,,,,,,,,,,,,,,,,,,,,,,,,,,,,,,,,,,,,,,,,,,,,,,,,,,,547145,001,2024-12-01_16h27.10.843,Test,2024.2.1,60.073045219003646,2024-12-01 16h27.25.383647 +0100,
33,150,180,70,None,2,2,0,,,,,,,,0,2,2,32,,,,,,,,,,,,,81.32197202799944,,,,,,,,,,,,,,,,,,,,,,,81.31327897700248,81.32197202799944,81.5210180920003,81.5210180920003,81.5210180920003,83.22139028500169,83.22139028500169,83.20484329300234,,,,,,,,,,,,,,,,,,,,,,,,,,,,,,,,,,,,,,,,,,,,,,,,,,,,,,,,,,,,,,,547145,001,2024-12-01_16h27.10.843,Test,2024.2.1,60.073045219003646,2024-12-01 16h27.25.383647 +0100,
20,150,90,41,None,3,3,0,,,,,,,,0,3,3,19,,,,,,,,,,,,,83.22139028500169,,,,,,,,,,,,,,,,,,,,,,,83.21330482700068,83.22139028500169,83.42098452999926,83.42098452999926,83.42098452999926,85.1211021679992,85.1211021679992,85.1052000080017,,,,,,,,,,,,,,,,,,,,,,,,,,,,,,,,,,,,,,,,,,,,,,,,,,,,,,,,,,,,,,,547145,001,2024-12-01_16h27.10.843,Test,2024.2.1,60.073045219003646,2024-12-01 16h27.25.383647 +0100,
32,150,180,13,None,4,4,0,,,,,,,,0,4,4,31,,,,,,,,,,,,,85.1211021679992,,,,,,,,,,,,,,,,,,,,,,,85.1107762520005,85.1211021679992,85.32123352000053,85.32123352000053,85.32123352000053,87.02133386800051,87.02133386800051,87.0055839730012,,,,,,,,,,,,,,,,,,,,,,,,,,,,,,,,,,,,,,,,,,,,,,,,,,,,,,,,,,,,,,,547145,001,2024-12-01_16h27.10.843,Test,2024.2.1,60.073045219003646,2024-12-01 16h27.25.383647 +0100,
13,150,60,46,None,5,5,0,,,,,,,,0,5,5,12,,,,,,,,,,,,,87.02133386800051,,,,,,,,,,,,,,,,,,,,,,,87.0115003710016,87.02133386800051,87.22177909400125,87.22177909400125,87.22177909400125,88.9238198910025,88.9238198910025,88.90619537400198,,,,,,,,,,,,,,,,,,,,,,,,,,,,,,,,,,,,,,,,,,,,,,,,,,,,,,,,,,,,,,,547145,001,2024-12-01_16h27.10.843,Test,2024.2.1,60.073045219003646,2024-12-01 16h27.25.383647 +0100,
26,150,150,12,None,6,6,0,,,,,,,,0,6,6,25,,,,,,,,,,,,,88.9238198910025,,,,,,,,,,,,,,,,,,,,,,,88.91574088400012,88.9238198910025,89.12229888100046,89.12229888100046,89.13837960900128,90.82340172100157,90.82340172100157,90.8055728420004,,,,,,,,,,,,,,,,,,,,,,,,,,,,,,,,,,,,,,,,,,,,,,,,,,,,,,,,,,,,,,,547145,001,2024-12-01_16h27.10.843,Test,2024.2.1,60.073045219003646,2024-12-01 16h27.25.383647 +0100,
16,150,90,33,None,7,7,0,,,,,,,,0,7,7,15,,,,,,,,,,,,,90.82340172100157,,,,,,,,,,,,,,,,,,,,,,,90.81534001399996,90.82340172100157,91.02142872400145,91.02142872400145,91.03836745100125,92.73508008600038,92.73508008600038,92.70689771000252,,,,,,,,,,,,,,,,,,,,,,,,,,,,,,,,,,,,,,,,,,,,,,,,,,,,,,,,,,,,,,,547145,001,2024-12-01_16h27.10.843,Test,2024.2.1,60.073045219003646,2024-12-01 16h27.25.383647 +0100,
22,150,120,34,None,8,8,0,,,,,,,,0,8,8,21,,,,,,,,,,,,,92.73508008600038,,,,,,,,,,,,,,,,,,,,,,,92.72675485900254,92.73508008600038,92.92199117199925,92.92199117199925,92.93830056200022,94.62269672500042,94.62269672500042,94.60601112999939,,,,,,,,,,,,,,,,,,,,,,,,,,,,,,,,,,,,,,,,,,,,,,,,,,,,,,,,,,,,,,,547145,001,2024-12-01_16h27.10.843,Test,2024.2.1,60.073045219003646,2024-12-01 16h27.25.383647 +0100,
23,150,120,63,None,9,9,0,,,,,,,,0,9,9,22,,,,,,,,,,,,,94.62269672500042,,,,,,,,,,,,,,,,,,,,,,,94.61370791400259,94.62269672500042,94.82191385700207,94.82191385700207,94.82191385700207,96.52529376700113,96.52529376700113,96.5072675190022,,,,,,,,,,,,,,,,,,,,,,,,,,,,,,,,,,,,,,,,,,,,,,,,,,,,,,,,,,,,,,,547145,001,2024-12-01_16h27.10.843,Test,2024.2.1,60.073045219003646,2024-12-01 16h27.25.383647 +0100,
28,150,150,36,None,10,10,0,,,,,,,,0,10,10,27,,,,,,,,,,,,,96.52529376700113,,,,,,,,,,,,,,,,,,,,,,,96.51686024300216,96.52529376700113,96.72228749400165,96.72228749400165,96.73865504400237,98.42244818000108,98.42244818000108,98.40618519800046,,,,,,,,,,,,,,,,,,,,,,,,,,,,,,,,,,,,,,,,,,,,,,,,,,,,,,,,,,,,,,,547145,001,2024-12-01_16h27.10.843,Test,2024.2.1,60.073045219003646,2024-12-01 16h27.25.383647 +0100,
7,150,30,22,None,11,11,0,,,,,,,,0,11,11,6,,,,,,,,,,,,,98.42244818000108,,,,,,,,,,,,,,,,,,,,,,,98.41406273300163,98.42244818000108,98.62262803699923,98.62262803699923,98.62262803699923,100.32173864500146,100.32173864500146,100.30618338100248,,,,,,,,,,,,,,,,,,,,,,,,,,,,,,,,,,,,,,,,,,,,,,,,,,,,,,,,,,,,,,,547145,001,2024-12-01_16h27.10.843,Test,2024.2.1,60.073045219003646,2024-12-01 16h27.25.383647 +0100,
10,150,30,59,None,12,12,0,,,,,,,,0,12,12,9,,,,,,,,,,,,,100.32173864500146,,,,,,,,,,,,,,,,,,,,,,,100.31191005499932,100.32173864500146,100.52233082300154,100.52233082300154,100.52233082300154,102.22442142,102.22442142,102.20705317600004,,,,,,,,,,,,,,,,,,,,,,,,,,,,,,,,,,,,,,,,,,,,,,,,,,,,,,,,,,,,,,,547145,001,2024-12-01_16h27.10.843,Test,2024.2.1,60.073045219003646,2024-12-01 16h27.25.383647 +0100,
14,150,60,9,None,13,13,0,,,,,,,,0,13,13,13,,,,,,,,,,,,,102.22442142,,,,,,,,,,,,,,,,,,,,,,,102.216556252999,102.22442142,102.42232123299982,102.42232123299982,102.43942489000256,104.12291855600051,104.12291855600051,104.10688592099905,,,,,,,,,,,,,,,,,,,,,,,,,,,,,,,,,,,,,,,,,,,,,,,,,,,,,,,,,,,,,,,547145,001,2024-12-01_16h27.10.843,Test,2024.2.1,60.073045219003646,2024-12-01 16h27.25.383647 +0100,
8,150,30,43,None,14,14,0,,,,,,,,0,14,14,7,,,,,,,,,,,,,104.12291855600051,,,,,,,,,,,,,,,,,,,,,,,104.11295854399941,104.12291855600051,104.32252572600191,104.32252572600191,104.32252572600191,106.02249022199976,106.02249022199976,106.007005260999,,,,,,,,,,,,,,,,,,,,,,,,,,,,,,,,,,,,,,,,,,,,,,,,,,,,,,,,,,,,,,,547145,001,2024-12-01_16h27.10.843,Test,2024.2.1,60.073045219003646,2024-12-01 16h27.25.383647 +0100,
34,150,180,55,None,15,15,0,,,,,,,,0,15,15,33,,,,,,,,,,,,,106.02249022199976,,,,,,,,,,,,,,,,,,,,,,,106.01285397700121,106.02249022199976,106.22287682100068,106.22287682100068,106.22287682100068,107.92244629299967,107.92244629299967,107.90728945099909,,,,,,,,,,,,,,,,,,,,,,,,,,,,,,,,,,,,,,,,,,,,,,,,,,,,,,,,,,,,,,,547145,001,2024-12-01_16h27.10.843,Test,2024.2.1,60.073045219003646,2024-12-01 16h27.25.383647 +0100,
35,150,180,21,None,16,16,0,,,,,,,,0,16,16,34,,,,,,,,,,,,,107.92244629299967,,,,,,,,,,,,,,,,,,,,,,,107.91337376400043,107.92244629299967,108.12273710700174,108.12273710700174,108.12273710700174,109.82317821700053,109.82317821700053,109.80741960200248,,,,,,,,,,,,,,,,,,,,,,,,,,,,,,,,,,,,,,,,,,,,,,,,,,,,,,,,,,,,,,,547145,001,2024-12-01_16h27.10.843,Test,2024.2.1,60.073045219003646,2024-12-01 16h27.25.383647 +0100,
27,150,150,65,None,17,17,0,,,,,,,,0,17,17,26,,,,,,,,,,,,,109.82317821700053,,,,,,,,,,,,,,,,,,,,,,,109.8149002320024,109.82317821700053,110.02321471200048,110.02321471200048,110.02321471200048,111.72276591500122,111.72276591500122,111.70694854700196,,,,,,,,,,,,,,,,,,,,,,,,,,,,,,,,,,,,,,,,,,,,,,,,,,,,,,,,,,,,,,,547145,001,2024-12-01_16h27.10.843,Test,2024.2.1,60.073045219003646,2024-12-01 16h27.25.383647 +0100,
4,150,0,19,None,18,18,0,,,,,,,,0,18,18,3,,,,,,,,,,,,,111.72276591500122,,,,,,,,,,,,,,,,,,,,,,,111.71253778900063,111.72276591500122,111.9235321720007,111.9235321720007,111.9235321720007,113.62277696200181,113.62277696200181,113.60724750000008,,,,,,,,,,,,,,,,,,,,,,,,,,,,,,,,,,,,,,,,,,,,,,,,,,,,,,,,,,,,,,,547145,001,2024-12-01_16h27.10.843,Test,2024.2.1,60.073045219003646,2024-12-01 16h27.25.383647 +0100,
15,150,60,54,None,19,19,0,,,,,,,,0,19,19,14,,,,,,,,,,,,,113.62277696200181,,,,,,,,,,,,,,,,,,,,,,,113.61325639799907,113.62277696200181,113.82308402499984,113.82308402499984,113.82308402499984,115.5238310570021,115.5238310570021,115.50723466199997,,,,,,,,,,,,,,,,,,,,,,,,,,,,,,,,,,,,,,,,,,,,,,,,,,,,,,,,,,,,,,,547145,001,2024-12-01_16h27.10.843,Test,2024.2.1,60.073045219003646,2024-12-01 16h27.25.383647 +0100,
1,150,0,68,None,20,20,0,,,,,,,,0,20,20,0,,,,,,,,,,,,,115.5238310570021,,,,,,,,,,,,,,,,,,,,,,,115.51287451499957,115.5238310570021,115.72341566500108,115.72341566500108,115.72341566500108,117.42297132400199,117.42297132400199,117.40742066600069,,,,,,,,,,,,,,,,,,,,,,,,,,,,,,,,,,,,,,,,,,,,,,,,,,,,,,,,,,,,,,,547145,001,2024-12-01_16h27.10.843,Test,2024.2.1,60.073045219003646,2024-12-01 16h27.25.383647 +0100,
21,150,120,28,None,21,21,0,,,,,,,,0,21,21,20,,,,,,,,,,,,,117.42297132400199,,,,,,,,,,,,,,,,,,,,,,,117.41323182199994,117.42297132400199,117.62402415299948,117.62402415299948,117.62402415299948,119.32434820100025,119.32434820100025,119.30867173899969,,,,,,,,,,,,,,,,,,,,,,,,,,,,,,,,,,,,,,,,,,,,,,,,,,,,,,,,,,,,,,,547145,001,2024-12-01_16h27.10.843,Test,2024.2.1,60.073045219003646,2024-12-01 16h27.25.383647 +0100,
29,150,150,48,None,22,22,0,,,,,,,,0,22,22,28,,,,,,,,,,,,,119.32434820100025,,,,,,,,,,,,,,,,,,,,,,,119.315937055002,119.32434820100025,119.52404841899988,119.52404841899988,119.52404841899988,121.22466879499916,121.22466879499916,121.20880120700167,,,,,,,,,,,,,,,,,,,,,,,,,,,,,,,,,,,,,,,,,,,,,,,,,,,,,,,,,,,,,,,547145,001,2024-12-01_16h27.10.843,Test,2024.2.1,60.073045219003646,2024-12-01 16h27.25.383647 +0100,
12,150,60,44,None,23,23,0,,,,,,,,0,23,23,11,,,,,,,,,,,,,121.22466879499916,,,,,,,,,,,,,,,,,,,,,,,121.21743934100232,121.22466879499916,121.42361064299985,121.42361064299985,121.44050682799934,123.12384751699938,123.12384751699938,123.10799436600064,,,,,,,,,,,,,,,,,,,,,,,,,,,,,,,,,,,,,,,,,,,,,,,,,,,,,,,,,,,,,,,547145,001,2024-12-01_16h27.10.843,Test,2024.2.1,60.073045219003646,2024-12-01 16h27.25.383647 +0100,
18,150,90,51,None,24,24,0,,,,,,,,0,24,24,17,,,,,,,,,,,,,123.12384751699938,,,,,,,,,,,,,,,,,,,,,,,123.11418356700233,123.12384751699938,123.32422244100235,123.32422244100235,123.32422244100235,125.02393181400112,125.02393181400112,125.00750817399967,,,,,,,,,,,,,,,,,,,,,,,,,,,,,,,,,,,,,,,,,,,,,,,,,,,,,,,,,,,,,,,547145,001,2024-12-01_16h27.10.843,Test,2024.2.1,60.073045219003646,2024-12-01 16h27.25.383647 +0100,
11,150,60,56,None,25,25,0,,,,,,,,0,25,25,10,,,,,,,,,,,,,125.02393181400112,,,,,,,,,,,,,,,,,,,,,,,125.01339522900162,125.02393181400112,125.22530087500127,125.22530087500127,125.22530087500127,126.92432764100158,126.92432764100158,126.90896597900064,,,,,,,,,,,,,,,,,,,,,,,,,,,,,,,,,,,,,,,,,,,,,,,,,,,,,,,,,,,,,,,547145,001,2024-12-01_16h27.10.843,Test,2024.2.1,60.073045219003646,2024-12-01 16h27.25.383647 +0100,
30,150,150,11,None,26,26,0,,,,,,,,0,26,26,29,,,,,,,,,,,,,126.92432764100158,,,,,,,,,,,,,,,,,,,,,,,126.91504929200164,126.92432764100158,127.12384210200253,127.12384210200253,127.12384210200253,128.82374572700064,128.82374572700064,128.80822753599932,,,,,,,,,,,,,,,,,,,,,,,,,,,,,,,,,,,,,,,,,,,,,,,,,,,,,,,,,,,,,,,547145,001,2024-12-01_16h27.10.843,Test,2024.2.1,60.073045219003646,2024-12-01 16h27.25.383647 +0100,
9,150,30,18,None,27,27,0,,,,,,,,0,27,27,8,,,,,,,,,,,,,128.82374572700064,,,,,,,,,,,,,,,,,,,,,,,128.8144736409995,128.82374572700064,129.02462496900262,129.02462496900262,129.02462496900262,130.72394491700106,130.72394491700106,130.70802028400067,,,,,,,,,,,,,,,,,,,,,,,,,,,,,,,,,,,,,,,,,,,,,,,,,,,,,,,,,,,,,,,547145,001,2024-12-01_16h27.10.843,Test,2024.2.1,60.073045219003646,2024-12-01 16h27.25.383647 +0100,
24,150,120,2,None,28,28,0,,,,,,,,0,28,28,23,,,,,,,,,,,,,130.72394491700106,,,,,,,,,,,,,,,,,,,,,,,130.71303716500188,130.72394491700106,130.92401325500032,130.92401325500032,130.92401325500032,132.6278127250007,132.6278127250007,132.60955815499983,,,,,,,,,,,,,,,,,,,,,,,,,,,,,,,,,,,,,,,,,,,,,,,,,,,,,,,,,,,,,,,547145,001,2024-12-01_16h27.10.843,Test,2024.2.1,60.073045219003646,2024-12-01 16h27.25.383647 +0100,
17,150,90,1,None,29,29,0,,,,,,,,0,29,29,16,,,,,,,,,,,,,132.6278127250007,,,,,,,,,,,,,,,,,,,,,,,132.61909838000065,132.6278127250007,132.82440707600108,132.82440707600108,132.8409888339993,134.52451789300176,134.52451789300176,134.50862161400073,,,,,,,,,,,,,,,,,,,,,,,,,,,,,,,,,,,,,,,,,,,,,,,,,,,,,,,,,,,,,,,547145,001,2024-12-01_16h27.10.843,Test,2024.2.1,60.073045219003646,2024-12-01 16h27.25.383647 +0100,
2,150,0,53,None,30,30,0,,,,,,,,0,30,30,1,,,,,,,,,,,,,134.52451789300176,,,,,,,,,,,,,,,,,,,,,,,134.51352939900244,134.52451789300176,134.72505441500107,134.72505441500107,134.72505441500107,136.42459622800015,136.42459622800015,136.40906856700167,,,,,,,,,,,,,,,,,,,,,,,,,,,,,,,,,,,,,,,,,,,,,,,,,,,,,,,,,,,,,,,547145,001,2024-12-01_16h27.10.843,Test,2024.2.1,60.073045219003646,2024-12-01 16h27.25.383647 +0100,
3,150,0,62,None,31,31,0,,,,,,,,0,31,31,2,,,,,,,,,,,,,136.42459622800015,,,,,,,,,,,,,,,,,,,,,,,136.41462497400062,136.42459622800015,136.62468535299922,136.62468535299922,136.62468535299922,138.324396385,138.324396385,138.30901187500058,,,,,,,,,,,,,,,,,,,,,,,,,,,,,,,,,,,,,,,,,,,,,,,,,,,,,,,,,,,,,,,547145,001,2024-12-01_16h27.10.843,Test,2024.2.1,60.073045219003646,2024-12-01 16h27.25.383647 +0100,
19,150,90,39,None,32,32,0,,,,,,,,0,32,32,18,,,,,,,,,,,,,138.324396385,,,,,,,,,,,,,,,,,,,,,,,138.3150181460005,138.324396385,138.5252740399992,138.5252740399992,138.5252740399992,140.22578807100217,140.22578807100217,140.20923387600124,,,,,,,,,,,,,,,,,,,,,,,,,,,,,,,,,,,,,,,,,,,,,,,,,,,,,,,,,,,,,,,547145,001,2024-12-01_16h27.10.843,Test,2024.2.1,60.073045219003646,2024-12-01 16h27.25.383647 +0100,
25,150,120,38,None,33,33,0,,,,,,,,0,33,33,24,,,,,,,,,,,,,140.22578807100217,,,,,,,,,,,,,,,,,,,,,,,140.21512377199906,140.22578807100217,140.4249879150011,140.4249879150011,140.4249879150011,142.1252079629994,142.1252079629994,142.10907479399975,,,,,,,,,,,,,,,,,,,,,,,,,,,,,,,,,,,,,,,,,,,,,,,,,,,,,,,,,,,,,,,547145,001,2024-12-01_16h27.10.843,Test,2024.2.1,60.073045219003646,2024-12-01 16h27.25.383647 +0100,
31,150,180,10,None,34,34,0,,,,,,,,0,34,34,30,,,,,,,,,,,,,142.1252079629994,,,,,,,,,,,,,,,,,,,,,,,142.1145601829994,142.1252079629994,142.32528915900184,142.32528915900184,142.32528915900184,144.0254271920021,144.0254271920021,144.01036203600233,,,,,,,,,,,,,,,,,,,,,,,,,,,,,,,,,,,,,,,,,,,,,,,,,,,,,,,,,,,,,,,547145,001,2024-12-01_16h27.10.843,Test,2024.2.1,60.073045219003646,2024-12-01 16h27.25.383647 +0100,
,,,,,,,,,,,,,,,,,,,,,,,,,,,,,,,,,,,,,,,,,,,,,,,,,,,,,,,,,,,,,,144.010596144999,144.0254271920021,144.0254271920021,155.54451143400001,space,11.512504215999797,None,,,,,,,,,,,,,,,,,,,,,,,,,,,,,,,,,,,,,,,,,,,,,,,,,,,,,,,,547145,001,2024-12-01_16h27.10.843,Test,2024.2.1,60.073045219003646,2024-12-01 16h27.25.383647 +0100,
70,150,180,60,None,0,0,0,True,right,7.125422745997639,None,,,,,,,,0,0,0,0,,,,,,,,,155.5725357980009,,,,,,,,,,,,,,,,,,,,,,,,,,,,,,,,,,,,,,155.56297109799925,155.5725357980009,156.57632429300065,157.55910115699953,157.55910115699953,157.55910115699953,160.5592228280002,160.5592228280002,160.5592228280002,164.6944801080026,right,7.125422745997639,None,,,,,,,,,,,,,,,,,,,,,,,,,,,,,,,,,,,,,,,,,,,547145,001,2024-12-01_16h27.10.843,Test,2024.2.1,60.073045219003646,2024-12-01 16h27.25.383647 +0100,
66,150,180,47,None,1,1,0,True,right,0.9113491239986615,None,,,,,,,,0,1,1,1,,,,,,,,,164.74122975700084,,,,,,,,,,,,,,,,,,,,,,,,,,,,,,,,,,,,,,164.699902493001,164.74122975700084,165.74383478000163,166.69438811900181,166.69438811900181,166.69438811900181,,,,167.6126925230019,right,0.9113491239986615,None,,,,,,,,,,,,,,,,,,,,,,,,,,,,,,,,,,,,,,,,,,,547145,001,2024-12-01_16h27.10.843,Test,2024.2.1,60.073045219003646,2024-12-01 16h27.25.383647 +0100,
1,150,0,68,None,2,2,0,False,right,0.8529387100024906,None,,,,,,,,0,2,2,2,,,,,,,,,167.62628509800197,,,,,,,,,,,,,,,,,,,,,,,,,,,,,,,,,,,,,,167.61613006799962,167.62628509800197,168.62772679699992,169.62743175300056,169.62743175300056,169.62743175300056,,,,170.49568183000156,right,0.8529387100024906,None,,,,,,,,,,,,,,,,,,,,,,,,,,,,,,,,,,,,,,,,,,,547145,001,2024-12-01_16h27.10.843,Test,2024.2.1,60.073045219003646,2024-12-01 16h27.25.383647 +0100,
29,150,150,48,None,3,3,0,False,right,2.037676026000554,None,,,,,,,,0,3,3,3,,,,,,,,,170.51045337300093,,,,,,,,,,,,,,,,,,,,,,,,,,,,,,,,,,,,,,170.4995618590001,170.51045337300093,171.5108308050003,172.4950857460026,172.4950857460026,172.4950857460026,,,,174.54542826100078,right,2.037676026000554,None,,,,,,,,,,,,,,,,,,,,,,,,,,,,,,,,,,,,,,,,,,,547145,001,2024-12-01_16h27.10.843,Test,2024.2.1,60.073045219003646,2024-12-01 16h27.25.383647 +0100,
21,150,120,28,None,4,4,0,False,right,3.90387236999959,None,,,,,,,,0,4,4,4,,,,,,,,,174.56109267500142,,,,,,,,,,,,,,,,,,,,,,,,,,,,,,,,,,,,,,174.54880429200057,174.56109267500142,175.56113608099986,176.54543647800165,176.54543647800165,176.54543647800165,179.5440265690013,179.5440265690013,179.5440265690013,180.46482603700133,right,3.90387236999959,None,,,,,,,,,,,,,,,,,,,,,,,,,,,,,,,,,,,,,,,,,,,547145,001,2024-12-01_16h27.10.843,Test,2024.2.1,60.073045219003646,2024-12-01 16h27.25.383647 +0100,
42,150,30,32,None,5,5,0,True,left,2.352523747002124,None,,,,,,,,0,5,5,5,,,,,,,,,180.48425162000058,,,,,,,,,,,,,,,,,,,,,,,,,,,,,,,,,,,,,,180.47467041799973,180.48425162000058,181.4946107450014,182.46205178400123,182.46205178400123,182.46205178400123,,,,184.8303675089992,left,2.352523747002124,None,,,,,,,,,,,,,,,,,,,,,,,,,,,,,,,,,,,,,,,,,,,547145,001,2024-12-01_16h27.10.843,Test,2024.2.1,60.073045219003646,2024-12-01 16h27.25.383647 +0100,
56,150,120,40,None,6,6,0,True,right,1.7131642780004768,None,,,,,,,,0,6,6,6,,,,,,,,,184.84752751199994,,,,,,,,,,,,,,,,,,,,,,,,,,,,,,,,,,,,,,184.83813152199946,184.84752751199994,185.86166687399964,186.8456288769994,186.8456288769994,186.8456288769994,,,,188.56370886700097,right,1.7131642780004768,None,,,,,,,,,,,,,,,,,,,,,,,,,,,,,,,,,,,,,,,,,,,547145,001,2024-12-01_16h27.10.843,Test,2024.2.1,60.073045219003646,2024-12-01 16h27.25.383647 +0100,
16,150,90,33,None,7,7,0,False,left,2.2435579279990634,None,,,,,,,,0,7,7,7,,,,,,,,,188.5783553680012,,,,,,,,,,,,,,,,,,,,,,,,,,,,,,,,,,,,,,188.5690891910017,188.5783553680012,189.5782803280017,190.57836425300047,190.57836425300047,190.57836425300047,,,,192.83024820699939,left,2.2435579279990634,None,,,,,,,,,,,,,,,,,,,,,,,,,,,,,,,,,,,,,,,,,,,547145,001,2024-12-01_16h27.10.843,Test,2024.2.1,60.073045219003646,2024-12-01 16h27.25.383647 +0100,
36,150,0,57,None,8,8,0,True,right,2.0552046000011615,None,,,,,,,,0,8,8,8,,,,,,,,,192.8456043210026,,,,,,,,,,,,,,,,,,,,,,,,,,,,,,,,,,,,,,192.83639125099944,192.8456043210026,193.84586426100213,194.82961254700058,194.82961254700058,194.82961254700058,,,,196.89666485899943,right,2.0552046000011615,None,,,,,,,,,,,,,,,,,,,,,,,,,,,,,,,,,,,,,,,,,,,547145,001,2024-12-01_16h27.10.843,Test,2024.2.1,60.073045219003646,2024-12-01 16h27.25.383647 +0100,
15,150,60,54,None,9,9,0,False,right,2.071466307999799,None,,,,,,,,0,9,9,9,,,,,,,,,196.91160411300007,,,,,,,,,,,,,,,,,,,,,,,,,,,,,,,,,,,,,,196.90212781599985,196.91160411300007,197.91219208099938,198.91289951100043,198.91289951100043,198.91289951100043,,,,200.99861291200068,right,2.071466307999799,None,,,,,,,,,,,,,,,,,,,,,,,,,,,,,,,,,,,,,,,,,,,547145,001,2024-12-01_16h27.10.843,Test,2024.2.1,60.073045219003646,2024-12-01 16h27.25.383647 +0100,
20,150,90,41,None,10,10,0,False,left,2.332461179001257,None,,,,,,,,0,10,10,10,,,,,,,,,201.01515600399944,,,,,,,,,,,,,,,,,,,,,,,,,,,,,,,,,,,,,,201.00599418099955,201.01515600399944,202.03042287000062,203.01392303900138,203.01392303900138,203.01392303900138,,,,205.3487523290023,left,2.332461179001257,None,,,,,,,,,,,,,,,,,,,,,,,,,,,,,,,,,,,,,,,,,,,547145,001,2024-12-01_16h27.10.843,Test,2024.2.1,60.073045219003646,2024-12-01 16h27.25.383647 +0100,
26,150,150,12,None,11,11,0,False,right,1.9742938260023948,None,,,,,,,,0,11,11,11,,,,,,,,,205.36529904000054,,,,,,,,,,,,,,,,,,,,,,,,,,,,,,,,,,,,,,205.35615472800055,205.36529904000054,206.37951774700196,207.3630528930007,207.3630528930007,207.3630528930007,,,,209.34781795600065,right,1.9742938260023948,None,,,,,,,,,,,,,,,,,,,,,,,,,,,,,,,,,,,,,,,,,,,547145,001,2024-12-01_16h27.10.843,Test,2024.2.1,60.073045219003646,2024-12-01 16h27.25.383647 +0100,
60,150,120,67,None,12,12,0,True,right,1.419378015001712,None,,,,,,,,0,12,12,12,,,,,,,,,209.36305127200103,,,,,,,,,,,,,,,,,,,,,,,,,,,,,,,,,,,,,,209.3541839690006,209.36305127200103,210.3637011589999,211.36329345600097,211.36329345600097,211.36329345600097,,,,212.79864207799983,right,1.419378015001712,None,,,,,,,,,,,,,,,,,,,,,,,,,,,,,,,,,,,,,,,,,,,547145,001,2024-12-01_16h27.10.843,Test,2024.2.1,60.073045219003646,2024-12-01 16h27.25.383647 +0100,
64,150,150,5,None,13,13,0,True,left,1.872765623000305,None,,,,,,,,0,13,13,13,,,,,,,,,212.8148923910012,,,,,,,,,,,,,,,,,,,,,,,,,,,,,,,,,,,,,,212.80576078599915,212.8148923910012,213.83092726100222,214.797725446002,214.797725446002,214.797725446002,,,,216.68142162300137,left,1.872765623000305,None,,,,,,,,,,,,,,,,,,,,,,,,,,,,,,,,,,,,,,,,,,,547145,001,2024-12-01_16h27.10.843,Test,2024.2.1,60.073045219003646,2024-12-01 16h27.25.383647 +0100,
44,150,30,69,None,14,14,0,True,right,2.4197991709988855,None,,,,,,,,0,14,14,14,,,,,,,,,216.69654728300156,,,,,,,,,,,,,,,,,,,,,,,,,,,,,,,,,,,,,,216.68725787900257,216.69654728300156,217.69690787900254,218.69709607800178,218.69709607800178,218.69709607800178,,,,221.1326802950025,right,2.4197991709988855,None,,,,,,,,,,,,,,,,,,,,,,,,,,,,,,,,,,,,,,,,,,,547145,001,2024-12-01_16h27.10.843,Test,2024.2.1,60.073045219003646,2024-12-01 16h27.25.383647 +0100,
45,150,30,24,None,15,15,0,True,left,1.874072940001497,None,,,,,,,,0,15,15,15,,,,,,,,,221.14777066500028,,,,,,,,,,,,,,,,,,,,,,,,,,,,,,,,,,,,,,221.13870989000134,221.14777066500028,222.14736641000127,223.1474415119992,223.1474415119992,223.1474415119992,,,,225.03211415600163,left,1.874072940001497,None,,,,,,,,,,,,,,,,,,,,,,,,,,,,,,,,,,,,,,,,,,,547145,001,2024-12-01_16h27.10.843,Test,2024.2.1,60.073045219003646,2024-12-01 16h27.25.383647 +0100,
3,150,0,62,None,16,16,0,False,right,1.3603654119979183,None,,,,,,,,0,16,16,16,,,,,,,,,225.04734804500185,,,,,,,,,,,,,,,,,,,,,,,,,,,,,,,,,,,,,,225.03724194800088,225.04734804500185,226.0476332319995,227.04773538500012,227.04773538500012,227.04773538500012,,,,228.41677700999935,right,1.3603654119979183,None,,,,,,,,,,,,,,,,,,,,,,,,,,,,,,,,,,,,,,,,,,,547145,001,2024-12-01_16h27.10.843,Test,2024.2.1,60.073045219003646,2024-12-01 16h27.25.383647 +0100,
28,150,150,36,None,17,17,0,False,right,1.7544039749991498,None,,,,,,,,0,17,17,17,,,,,,,,,228.4318355159994,,,,,,,,,,,,,,,,,,,,,,,,,,,,,,,,,,,,,,228.4228665949995,228.4318355159994,229.43107141099972,230.43178439099938,230.43178439099938,230.43178439099938,,,,232.199625139001,right,1.7544039749991498,None,,,,,,,,,,,,,,,,,,,,,,,,,,,,,,,,,,,,,,,,,,,547145,001,2024-12-01_16h27.10.843,Test,2024.2.1,60.073045219003646,2024-12-01 16h27.25.383647 +0100,
24,150,120,2,None,18,18,0,False,right,1.5938629429983848,None,,,,,,,,0,18,18,18,,,,,,,,,232.21470156600117,,,,,,,,,,,,,,,,,,,,,,,,,,,,,,,,,,,,,,232.2050058490022,232.21470156600117,233.21470135900017,234.21470207400125,234.21470207400125,234.21470207400125,,,,235.81695950400172,right,1.5938629429983848,None,,,,,,,,,,,,,,,,,,,,,,,,,,,,,,,,,,,,,,,,,,,547145,001,2024-12-01_16h27.10.843,Test,2024.2.1,60.073045219003646,2024-12-01 16h27.25.383647 +0100,
52,150,90,50,None,19,19,0,True,right,3.1964914860000135,None,,,,,,,,0,19,19,19,,,,,,,,,235.83206286900167,,,,,,,,,,,,,,,,,,,,,,,,,,,,,,,,,,,,,,235.82316574400102,235.83206286900167,236.83183794499928,237.8327907999992,237.8327907999992,237.8327907999992,240.83230442700005,240.83230442700005,240.83230442700005,241.03430735700022,right,3.1964914860000135,None,,,,,,,,,,,,,,,,,,,,,,,,,,,,,,,,,,,,,,,,,,,547145,001,2024-12-01_16h27.10.843,Test,2024.2.1,60.073045219003646,2024-12-01 16h27.25.383647 +0100,
62,150,150,66,None,20,20,0,True,left,1.7926355570016312,None,,,,,,,,0,20,20,20,,,,,,,,,241.04887684500136,,,,,,,,,,,,,,,,,,,,,,,,,,,,,,,,,,,,,,241.0400798920018,241.04887684500136,242.04876935799984,243.04973136199987,243.04973136199987,243.04973136199987,,,,244.8509288480018,left,1.7926355570016312,None,,,,,,,,,,,,,,,,,,,,,,,,,,,,,,,,,,,,,,,,,,,547145,001,2024-12-01_16h27.10.843,Test,2024.2.1,60.073045219003646,2024-12-01 16h27.25.383647 +0100,
35,150,180,21,None,21,21,0,False,left,1.8183166080016235,None,,,,,,,,0,21,21,21,,,,,,,,,244.86533391500052,,,,,,,,,,,,,,,,,,,,,,,,,,,,,,,,,,,,,,244.85618993800017,244.86533391500052,245.8670309730005,246.86564160000125,246.86564160000125,246.86564160000125,,,,248.70079070400243,left,1.8183166080016235,None,,,,,,,,,,,,,,,,,,,,,,,,,,,,,,,,,,,,,,,,,,,547145,001,2024-12-01_16h27.10.843,Test,2024.2.1,60.073045219003646,2024-12-01 16h27.25.383647 +0100,
34,150,180,55,None,22,22,0,False,left,1.6994094379988383,None,,,,,,,,0,22,22,22,,,,,,,,,248.71626720800123,,,,,,,,,,,,,,,,,,,,,,,,,,,,,,,,,,,,,,248.7066483540002,248.71626720800123,249.71607857400159,250.71591756600174,250.71591756600174,250.71591756600174,,,,252.41855530199973,left,1.6994094379988383,None,,,,,,,,,,,,,,,,,,,,,,,,,,,,,,,,,,,,,,,,,,,547145,001,2024-12-01_16h27.10.843,Test,2024.2.1,60.073045219003646,2024-12-01 16h27.25.383647 +0100,
69,150,180,17,None,23,23,0,True,left,1.7985147189974668,None,,,,,,,,0,23,23,23,,,,,,,,,252.4331264909997,,,,,,,,,,,,,,,,,,,,,,,,,,,,,,,,,,,,,,252.42381444700004,252.4331264909997,253.4332935090024,254.43325165600254,254.43325165600254,254.43325165600254,,,,256.2374328139995,left,1.7985147189974668,None,,,,,,,,,,,,,,,,,,,,,,,,,,,,,,,,,,,,,,,,,,,547145,001,2024-12-01_16h27.10.843,Test,2024.2.1,60.073045219003646,2024-12-01 16h27.25.383647 +0100,
63,150,150,15,None,24,24,0,True,left,1.5425124949979363,None,,,,,,,,0,24,24,24,,,,,,,,,256.2540968710018,,,,,,,,,,,,,,,,,,,,,,,,,,,,,,,,,,,,,,256.24383123400185,256.2540968710018,257.2660017740018,258.24973493200014,258.24973493200014,258.24973493200014,,,,259.8009152960003,left,1.5425124949979363,None,,,,,,,,,,,,,,,,,,,,,,,,,,,,,,,,,,,,,,,,,,,547145,001,2024-12-01_16h27.10.843,Test,2024.2.1,60.073045219003646,2024-12-01 16h27.25.383647 +0100,
12,150,60,44,None,25,25,0,False,right,1.5892365760009852,None,,,,,,,,0,25,25,25,,,,,,,,,259.81659889300136,,,,,,,,,,,,,,,,,,,,,,,,,,,,,,,,,,,,,,259.80614597800013,259.81659889300136,260.8167211120017,261.80013989200233,261.80013989200233,261.80013989200233,,,,263.40182665500106,right,1.5892365760009852,None,,,,,,,,,,,,,,,,,,,,,,,,,,,,,,,,,,,,,,,,,,,547145,001,2024-12-01_16h27.10.843,Test,2024.2.1,60.073045219003646,2024-12-01 16h27.25.383647 +0100,
17,150,90,1,None,26,26,0,False,left,2.100423714000499,None,,,,,,,,0,26,26,26,,,,,,,,,263.4167226210011,,,,,,,,,,,,,,,,,,,,,,,,,,,,,,,,,,,,,,263.40762040700065,263.4167226210011,264.4165526399993,265.41678474900255,265.41678474900255,265.41678474900255,,,,267.52011757700166,left,2.100423714000499,None,,,,,,,,,,,,,,,,,,,,,,,,,,,,,,,,,,,,,,,,,,,547145,001,2024-12-01_16h27.10.843,Test,2024.2.1,60.073045219003646,2024-12-01 16h27.25.383647 +0100,
7,150,30,22,None,27,27,0,False,right,1.690219308999076,None,,,,,,,,0,27,27,27,,,,,,,,,267.5345864430019,,,,,,,,,,,,,,,,,,,,,,,,,,,,,,,,,,,,,,267.5255125600015,267.5345864430019,268.5336903360003,269.53347193599984,269.53347193599984,269.53347193599984,,,,271.25268282400066,right,1.690219308999076,None,,,,,,,,,,,,,,,,,,,,,,,,,,,,,,,,,,,,,,,,,,,547145,001,2024-12-01_16h27.10.843,Test,2024.2.1,60.073045219003646,2024-12-01 16h27.25.383647 +0100,
54,150,90,3,None,28,28,0,True,left,1.3752808530007314,None,,,,,,,,0,28,28,28,,,,,,,,,271.2690057889995,,,,,,,,,,,,,,,,,,,,,,,,,,,,,,,,,,,,,,271.2603689650023,271.2690057889995,272.28395245700085,273.2678274450009,273.2678274450009,273.2678274450009,,,,274.6527310900019,left,1.3752808530007314,None,,,,,,,,,,,,,,,,,,,,,,,,,,,,,,,,,,,,,,,,,,,547145,001,2024-12-01_16h27.10.843,Test,2024.2.1,60.073045219003646,2024-12-01 16h27.25.383647 +0100,
33,150,180,70,None,29,29,0,False,right,1.3999585729980026,None,,,,,,,,0,29,29,29,,,,,,,,,274.6699755970003,,,,,,,,,,,,,,,,,,,,,,,,,,,,,,,,,,,,,,274.6602927540007,274.6699755970003,275.68425812200076,276.6681222219995,276.6681222219995,276.6681222219995,,,,278.0706463099996,right,1.3999585729980026,None,,,,,,,,,,,,,,,,,,,,,,,,,,,,,,,,,,,,,,,,,,,547145,001,2024-12-01_16h27.10.843,Test,2024.2.1,60.073045219003646,2024-12-01 16h27.25.383647 +0100,
19,150,90,39,None,30,30,0,False,left,3.0073912459993153,None,,,,,,,,0,30,30,30,,,,,,,,,278.08604268600175,,,,,,,,,,,,,,,,,,,,,,,,,,,,,,,,,,,,,,278.07732831700196,278.08604268600175,279.1011948029991,280.08475664300204,280.08475664300204,280.08475664300204,283.0855355679996,283.0855355679996,283.0855355679996,283.10264883200216,left,3.0073912459993153,None,,,,,,,,,,,,,,,,,,,,,,,,,,,,,,,,,,,,,,,,,,,547145,001,2024-12-01_16h27.10.843,Test,2024.2.1,60.073045219003646,2024-12-01 16h27.25.383647 +0100,
27,150,150,65,None,31,31,0,False,left,1.401042312001664,None,,,,,,,,0,31,31,31,,,,,,,,,283.11782275000223,,,,,,,,,,,,,,,,,,,,,,,,,,,,,,,,,,,,,,283.1084779320008,283.11782275000223,284.1189405840014,285.1021008839998,285.1021008839998,285.1021008839998,,,,286.52083011099967,left,1.401042312001664,None,,,,,,,,,,,,,,,,,,,,,,,,,,,,,,,,,,,,,,,,,,,547145,001,2024-12-01_16h27.10.843,Test,2024.2.1,60.073045219003646,2024-12-01 16h27.25.383647 +0100,
8,150,30,43,None,32,32,0,False,right,2.2044948729999305,None,,,,,,,,0,32,32,32,,,,,,,,,286.5353364690018,,,,,,,,,,,,,,,,,,,,,,,,,,,,,,,,,,,,,,286.52659037600097,286.5353364690018,287.53639077700063,288.53552996600047,288.53552996600047,288.53552996600047,,,,290.7540468340012,right,2.2044948729999305,None,,,,,,,,,,,,,,,,,,,,,,,,,,,,,,,,,,,,,,,,,,,547145,001,2024-12-01_16h27.10.843,Test,2024.2.1,60.073045219003646,2024-12-01 16h27.25.383647 +0100,
41,150,30,37,None,33,33,0,True,left,1.561658783000894,None,,,,,,,,0,33,33,33,,,,,,,,,290.7696984239992,,,,,,,,,,,,,,,,,,,,,,,,,,,,,,,,,,,,,,290.7600786430012,290.7696984239992,291.7686546850018,292.76876809900205,292.76876809900205,292.76876809900205,,,,294.3373355620024,left,1.561658783000894,None,,,,,,,,,,,,,,,,,,,,,,,,,,,,,,,,,,,,,,,,,,,547145,001,2024-12-01_16h27.10.843,Test,2024.2.1,60.073045219003646,2024-12-01 16h27.25.383647 +0100,
65,150,150,61,None,34,34,0,True,left,2.954330516000482,None,,,,,,,,0,34,34,34,,,,,,,,,294.35200023200014,,,,,,,,,,,,,,,,,,,,,,,,,,,,,,,,,,,,,,294.3429429980024,294.35200023200014,295.35262254999907,296.3366549880011,296.3366549880011,296.3366549880011,,,,299.2957471510017,left,2.954330516000482,None,,,,,,,,,,,,,,,,,,,,,,,,,,,,,,,,,,,,,,,,,,,547145,001,2024-12-01_16h27.10.843,Test,2024.2.1,60.073045219003646,2024-12-01 16h27.25.383647 +0100,
18,150,90,51,None,35,35,0,False,right,1.891566469999816,None,,,,,,,,0,35,35,35,,,,,,,,,299.3099244260011,,,,,,,,,,,,,,,,,,,,,,,,,,,,,,,,,,,,,,299.30228142000124,299.3099244260011,300.3200158799991,301.30307827900106,301.30307827900106,301.30307827900106,,,,303.20596603800004,right,1.891566469999816,None,,,,,,,,,,,,,,,,,,,,,,,,,,,,,,,,,,,,,,,,,,,547145,001,2024-12-01_16h27.10.843,Test,2024.2.1,60.073045219003646,2024-12-01 16h27.25.383647 +0100,
38,150,0,49,None,36,36,0,True,left,1.854171087998111,None,,,,,,,,0,36,36,36,,,,,,,,,303.2210386959996,,,,,,,,,,,,,,,,,,,,,,,,,,,,,,,,,,,,,,303.211677624,303.2210386959996,304.2368165100015,305.22076398600257,305.22076398600257,305.22076398600257,,,,307.0881378740014,left,1.854171087998111,None,,,,,,,,,,,,,,,,,,,,,,,,,,,,,,,,,,,,,,,,,,,547145,001,2024-12-01_16h27.10.843,Test,2024.2.1,60.073045219003646,2024-12-01 16h27.25.383647 +0100,
25,150,120,38,None,37,37,0,False,right,1.830452433998289,None,,,,,,,,0,37,37,37,,,,,,,,,307.1046751890026,,,,,,,,,,,,,,,,,,,,,,,,,,,,,,,,,,,,,,307.0954590270012,307.1046751890026,308.1204221020016,309.1032472250008,309.1032472250008,309.1032472250008,,,,310.9392304739995,right,1.830452433998289,None,,,,,,,,,,,,,,,,,,,,,,,,,,,,,,,,,,,,,,,,,,,547145,001,2024-12-01_16h27.10.843,Test,2024.2.1,60.073045219003646,2024-12-01 16h27.25.383647 +0100,
11,150,60,56,None,38,38,0,False,right,1.6894770489998336,None,,,,,,,,0,38,38,38,,,,,,,,,310.9552170970019,,,,,,,,,,,,,,,,,,,,,,,,,,,,,,,,,,,,,,310.9451308710013,310.9552170970019,311.9703271069993,312.95332672099903,312.95332672099903,312.95332672099903,,,,314.6545782150024,right,1.6894770489998336,None,,,,,,,,,,,,,,,,,,,,,,,,,,,,,,,,,,,,,,,,,,,547145,001,2024-12-01_16h27.10.843,Test,2024.2.1,60.073045219003646,2024-12-01 16h27.25.383647 +0100,
37,150,0,14,None,39,39,0,True,right,1.27042539499962,None,,,,,,,,0,39,39,39,,,,,,,,,314.6705563530013,,,,,,,,,,,,,,,,,,,,,,,,,,,,,,,,,,,,,,314.65987037800005,314.6705563530013,315.6706793830017,316.65350761300215,316.65350761300215,316.65350761300215,,,,317.93882679500166,right,1.27042539499962,None,,,,,,,,,,,,,,,,,,,,,,,,,,,,,,,,,,,,,,,,,,,547145,001,2024-12-01_16h27.10.843,Test,2024.2.1,60.073045219003646,2024-12-01 16h27.25.383647 +0100,
46,150,60,31,None,40,40,0,True,left,1.473336136998114,None,,,,,,,,0,40,40,40,,,,,,,,,317.95357352800056,,,,,,,,,,,,,,,,,,,,,,,,,,,,,,,,,,,,,,317.94389221000165,317.95357352800056,318.9541052320019,319.9537816330012,319.9537816330012,319.9537816330012,,,,321.4390176050001,left,1.473336136998114,None,,,,,,,,,,,,,,,,,,,,,,,,,,,,,,,,,,,,,,,,,,,547145,001,2024-12-01_16h27.10.843,Test,2024.2.1,60.073045219003646,2024-12-01 16h27.25.383647 +0100,
32,150,180,13,None,41,41,0,False,right,3.724693332998868,None,,,,,,,,0,41,41,41,,,,,,,,,321.4540746269995,,,,,,,,,,,,,,,,,,,,,,,,,,,,,,,,,,,,,,321.4441471040009,321.4540746269995,322.4541187680006,323.45367675700254,323.45367675700254,323.45367675700254,326.4539961650007,326.4373603669992,326.4539961650007,327.18939247100207,right,3.724693332998868,None,,,,,,,,,,,,,,,,,,,,,,,,,,,,,,,,,,,,,,,,,,,547145,001,2024-12-01_16h27.10.843,Test,2024.2.1,60.073045219003646,2024-12-01 16h27.25.383647 +0100,
50,150,60,6,None,42,42,0,True,left,1.5759196590006468,None,,,,,,,,0,42,42,42,,,,,,,,,327.2121757970017,,,,,,,,,,,,,,,,,,,,,,,,,,,,,,,,,,,,,,327.2044580420006,327.2121757970017,328.22114636600236,329.2047514290025,329.2047514290025,329.2047514290025,,,,330.789376257002,left,1.5759196590006468,None,,,,,,,,,,,,,,,,,,,,,,,,,,,,,,,,,,,,,,,,,,,547145,001,2024-12-01_16h27.10.843,Test,2024.2.1,60.073045219003646,2024-12-01 16h27.25.383647 +0100,
47,150,60,52,None,43,43,0,True,left,1.4301271950025694,None,,,,,,,,0,43,43,43,,,,,,,,,330.80446416999985,,,,,,,,,,,,,,,,,,,,,,,,,,,,,,,,,,,,,,330.79523275000247,330.80446416999985,331.80486627700157,332.80493132300035,332.80493132300035,332.80493132300035,,,,334.2402137550016,left,1.4301271950025694,None,,,,,,,,,,,,,,,,,,,,,,,,,,,,,,,,,,,,,,,,,,,547145,001,2024-12-01_16h27.10.843,Test,2024.2.1,60.073045219003646,2024-12-01 16h27.25.383647 +0100,
14,150,60,9,None,44,44,0,False,right,1.6204180800014,None,,,,,,,,0,44,44,44,,,,,,,,,334.2615654729998,,,,,,,,,,,,,,,,,,,,,,,,,,,,,,,,,,,,,,334.254069270999,334.2615654729998,335.2718853990009,336.2552798479992,336.2552798479992,336.2552798479992,,,,337.89020184900073,right,1.6204180800014,None,,,,,,,,,,,,,,,,,,,,,,,,,,,,,,,,,,,,,,,,,,,547145,001,2024-12-01_16h27.10.843,Test,2024.2.1,60.073045219003646,2024-12-01 16h27.25.383647 +0100,
49,150,60,58,None,45,45,0,True,left,1.8840483690000838,None,,,,,,,,0,45,45,45,,,,,,,,,337.90552778300116,,,,,,,,,,,,,,,,,,,,,,,,,,,,,,,,,,,,,,337.89578057900144,337.90552778300116,338.90549492100035,339.9050305359997,339.9050305359997,339.9050305359997,,,,341.7918115850007,left,1.8840483690000838,None,,,,,,,,,,,,,,,,,,,,,,,,,,,,,,,,,,,,,,,,,,,547145,001,2024-12-01_16h27.10.843,Test,2024.2.1,60.073045219003646,2024-12-01 16h27.25.383647 +0100,
61,150,150,23,None,46,46,0,True,right,1.6861177730024792,None,,,,,,,,0,46,46,46,,,,,,,,,341.80649162100235,,,,,,,,,,,,,,,,,,,,,,,,,,,,,,,,,,,,,,341.79778012500174,341.80649162100235,342.8055465940015,343.8057794990018,343.8057794990018,343.8057794990018,,,,345.5074974650015,right,1.6861177730024792,None,,,,,,,,,,,,,,,,,,,,,,,,,,,,,,,,,,,,,,,,,,,547145,001,2024-12-01_16h27.10.843,Test,2024.2.1,60.073045219003646,2024-12-01 16h27.25.383647 +0100,
51,150,90,26,None,47,47,0,True,left,1.4815743600011047,None,,,,,,,,0,47,47,47,,,,,,,,,345.5223800269996,,,,,,,,,,,,,,,,,,,,,,,,,,,,,,,,,,,,,,345.51330224900084,345.5223800269996,346.5231002399996,347.52307805999953,347.52307805999953,347.52307805999953,,,,349.0083158870002,left,1.4815743600011047,None,,,,,,,,,,,,,,,,,,,,,,,,,,,,,,,,,,,,,,,,,,,547145,001,2024-12-01_16h27.10.843,Test,2024.2.1,60.073045219003646,2024-12-01 16h27.25.383647 +0100,
48,150,60,35,None,48,48,0,True,right,1.3178541230008705,None,,,,,,,,0,48,48,48,,,,,,,,,349.02333736700166,,,,,,,,,,,,,,,,,,,,,,,,,,,,,,,,,,,,,,349.01454714899955,349.02333736700166,350.02296060799927,351.0233704570019,351.0233704570019,351.0233704570019,,,,352.35815396199905,right,1.3178541230008705,None,,,,,,,,,,,,,,,,,,,,,,,,,,,,,,,,,,,,,,,,,,,547145,001,2024-12-01_16h27.10.843,Test,2024.2.1,60.073045219003646,2024-12-01 16h27.25.383647 +0100,
23,150,120,63,None,49,49,0,False,right,1.6335937379990355,None,,,,,,,,0,49,49,49,,,,,,,,,352.37335045299915,,,,,,,,,,,,,,,,,,,,,,,,,,,,,,,,,,,,,,352.3643027750004,352.37335045299915,353.3730051630009,354.37305515499975,354.37305515499975,354.37305515499975,,,,356.00944887600053,right,1.6335937379990355,None,,,,,,,,,,,,,,,,,,,,,,,,,,,,,,,,,,,,,,,,,,,547145,001,2024-12-01_16h27.10.843,Test,2024.2.1,60.073045219003646,2024-12-01 16h27.25.383647 +0100,
67,150,180,25,None,50,50,0,True,right,1.298425764998683,None,,,,,,,,0,50,50,50,,,,,,,,,356.02414845100066,,,,,,,,,,,,,,,,,,,,,,,,,,,,,,,,,,,,,,356.01555650500086,356.02414845100066,357.02353441300147,358.0234223340012,358.0234223340012,358.0234223340012,,,,359.3252811700004,right,1.298425764998683,None,,,,,,,,,,,,,,,,,,,,,,,,,,,,,,,,,,,,,,,,,,,547145,001,2024-12-01_16h27.10.843,Test,2024.2.1,60.073045219003646,2024-12-01 16h27.25.383647 +0100,
4,150,0,19,None,51,51,0,False,left,1.9699118790013017,None,,,,,,,,0,51,51,51,,,,,,,,,359.3410716170001,,,,,,,,,,,,,,,,,,,,,,,,,,,,,,,,,,,,,,359.33261261200096,359.3410716170001,360.34002170900203,361.3404011189996,361.3404011189996,361.3404011189996,,,,363.3260161790022,left,1.9699118790013017,None,,,,,,,,,,,,,,,,,,,,,,,,,,,,,,,,,,,,,,,,,,,547145,001,2024-12-01_16h27.10.843,Test,2024.2.1,60.073045219003646,2024-12-01 16h27.25.383647 +0100,
68,150,180,8,None,52,52,0,True,left,1.9062742200003413,None,,,,,,,,0,52,52,52,,,,,,,,,363.3412011870023,,,,,,,,,,,,,,,,,,,,,,,,,,,,,,,,,,,,,,363.3317148160022,363.3412011870023,364.340312479002,365.3405398520008,365.3405398520008,365.3405398520008,,,,367.2566495739993,left,1.9062742200003413,None,,,,,,,,,,,,,,,,,,,,,,,,,,,,,,,,,,,,,,,,,,,547145,001,2024-12-01_16h27.10.843,Test,2024.2.1,60.073045219003646,2024-12-01 16h27.25.383647 +0100,
59,150,120,27,None,53,53,0,True,right,1.684872236000956,None,,,,,,,,0,53,53,53,,,,,,,,,367.27213659300105,,,,,,,,,,,,,,,,,,,,,,,,,,,,,,,,,,,,,,367.2641550840017,367.27213659300105,368.2741779370008,369.2573880710006,369.2573880710006,369.2573880710006,,,,370.9601145279994,right,1.684872236000956,None,,,,,,,,,,,,,,,,,,,,,,,,,,,,,,,,,,,,,,,,,,,547145,001,2024-12-01_16h27.10.843,Test,2024.2.1,60.073045219003646,2024-12-01 16h27.25.383647 +0100,
39,150,0,7,None,54,54,0,True,right,1.4681327819998842,None,,,,,,,,0,54,54,54,,,,,,,,,370.97529878500063,,,,,,,,,,,,,,,,,,,,,,,,,,,,,,,,,,,,,,370.966122971,370.97529878500063,371.9747829560001,372.97430485099903,372.97430485099903,372.97430485099903,,,,374.45956656899943,right,1.4681327819998842,None,,,,,,,,,,,,,,,,,,,,,,,,,,,,,,,,,,,,,,,,,,,547145,001,2024-12-01_16h27.10.843,Test,2024.2.1,60.073045219003646,2024-12-01 16h27.25.383647 +0100,
43,150,30,42,None,55,55,0,True,right,1.7394945260020904,None,,,,,,,,0,55,55,55,,,,,,,,,374.4750002360015,,,,,,,,,,,,,,,,,,,,,,,,,,,,,,,,,,,,,,374.46648895100225,374.4750002360015,375.4747101510002,376.47481921299914,376.47481921299914,376.47481921299914,,,,378.2266541320023,right,1.7394945260020904,None,,,,,,,,,,,,,,,,,,,,,,,,,,,,,,,,,,,,,,,,,,,547145,001,2024-12-01_16h27.10.843,Test,2024.2.1,60.073045219003646,2024-12-01 16h27.25.383647 +0100,
13,150,60,46,None,56,56,0,False,left,3.6285241690020484,None,,,,,,,,0,56,56,56,,,,,,,,,378.24184500200136,,,,,,,,,,,,,,,,,,,,,,,,,,,,,,,,,,,,,,378.2330464780025,378.24184500200136,379.2413285670009,380.24132237899903,380.24132237899903,380.24132237899903,383.24179352400097,383.24179352400097,383.24179352400097,383.876589841002,left,3.6285241690020484,None,,,,,,,,,,,,,,,,,,,,,,,,,,,,,,,,,,,,,,,,,,,547145,001,2024-12-01_16h27.10.843,Test,2024.2.1,60.073045219003646,2024-12-01 16h27.25.383647 +0100,
40,150,0,64,None,57,57,0,True,left,1.5586048400000436,None,,,,,,,,0,57,57,57,,,,,,,,,383.8936136100019,,,,,,,,,,,,,,,,,,,,,,,,,,,,,,,,,,,,,,383.8847040969995,383.8936136100019,384.9094188400013,385.89195626999935,385.89195626999935,385.89195626999935,,,,387.46055313800025,left,1.5586048400000436,None,,,,,,,,,,,,,,,,,,,,,,,,,,,,,,,,,,,,,,,,,,,547145,001,2024-12-01_16h27.10.843,Test,2024.2.1,60.073045219003646,2024-12-01 16h27.25.383647 +0100,
55,150,90,45,None,58,58,0,True,right,1.953831843999069,None,,,,,,,,0,58,58,58,,,,,,,,,387.4775105080007,,,,,,,,,,,,,,,,,,,,,,,,,,,,,,,,,,,,,,387.46824013600053,387.4775105080007,388.492087431001,389.4762741980012,389.4762741980012,389.4762741980012,,,,391.44806819099904,right,1.953831843999069,None,,,,,,,,,,,,,,,,,,,,,,,,,,,,,,,,,,,,,,,,,,,547145,001,2024-12-01_16h27.10.843,Test,2024.2.1,60.073045219003646,2024-12-01 16h27.25.383647 +0100,
9,150,30,18,None,59,59,0,False,right,1.0345596160004789,None,,,,,,,,0,59,59,59,,,,,,,,,391.4628911110012,,,,,,,,,,,,,,,,,,,,,,,,,,,,,,,,,,,,,,391.4539328840001,391.4628911110012,392.47578082900145,393.45919790900007,393.45919790900007,393.45919790900007,,,,394.5112247790021,right,1.0345596160004789,None,,,,,,,,,,,,,,,,,,,,,,,,,,,,,,,,,,,,,,,,,,,547145,001,2024-12-01_16h27.10.843,Test,2024.2.1,60.073045219003646,2024-12-01 16h27.25.383647 +0100,
5,150,0,4,None,60,60,0,False,left,1.3615596189993084,None,,,,,,,,0,60,60,60,,,,,,,,,394.5261436340006,,,,,,,,,,,,,,,,,,,,,,,,,,,,,,,,,,,,,,394.5171265989993,394.5261436340006,395.52659215600215,396.52600681200056,396.52600681200056,396.52600681200056,,,,397.8945779450005,left,1.3615596189993084,None,,,,,,,,,,,,,,,,,,,,,,,,,,,,,,,,,,,,,,,,,,,547145,001,2024-12-01_16h27.10.843,Test,2024.2.1,60.073045219003646,2024-12-01 16h27.25.383647 +0100,
6,150,30,20,None,61,61,0,False,right,2.7689857619989198,None,,,,,,,,0,61,61,61,,,,,,,,,397.90981740200004,,,,,,,,,,,,,,,,,,,,,,,,,,,,,,,,,,,,,,397.90002673900017,397.90981740200004,398.9099000000024,399.9108284390022,399.9108284390022,399.9108284390022,,,,402.6953879829998,right,2.7689857619989198,None,,,,,,,,,,,,,,,,,,,,,,,,,,,,,,,,,,,,,,,,,,,547145,001,2024-12-01_16h27.10.843,Test,2024.2.1,60.073045219003646,2024-12-01 16h27.25.383647 +0100,
58,150,120,16,None,62,62,0,True,right,1.3228242100012721,None,,,,,,,,0,62,62,62,,,,,,,,,402.71120976900056,,,,,,,,,,,,,,,,,,,,,,,,,,,,,,,,,,,,,,402.7023780119998,402.71120976900056,403.72625861300185,404.70966950599905,404.70966950599905,404.70966950599905,,,,406.0452191040022,right,1.3228242100012721,None,,,,,,,,,,,,,,,,,,,,,,,,,,,,,,,,,,,,,,,,,,,547145,001,2024-12-01_16h27.10.843,Test,2024.2.1,60.073045219003646,2024-12-01 16h27.25.383647 +0100,
57,150,120,29,None,63,63,0,True,right,2.5360255039995536,None,,,,,,,,0,63,63,63,,,,,,,,,406.05987565599935,,,,,,,,,,,,,,,,,,,,,,,,,,,,,,,,,,,,,,406.0506655909994,406.05987565599935,407.0601333500017,408.06032381800105,408.06032381800105,408.06032381800105,,,,410.61110970200025,right,2.5360255039995536,None,,,,,,,,,,,,,,,,,,,,,,,,,,,,,,,,,,,,,,,,,,,547145,001,2024-12-01_16h27.10.843,Test,2024.2.1,60.073045219003646,2024-12-01 16h27.25.383647 +0100,
31,150,180,10,None,64,64,0,False,right,1.7390444440025021,None,,,,,,,,0,64,64,64,,,,,,,,,410.62660361899907,,,,,,,,,,,,,,,,,,,,,,,,,,,,,,,,,,,,,,410.61681206399953,410.62660361899907,411.62757899999997,412.6103493219998,412.6103493219998,412.6103493219998,,,,414.3624518020006,right,1.7390444440025021,None,,,,,,,,,,,,,,,,,,,,,,,,,,,,,,,,,,,,,,,,,,,547145,001,2024-12-01_16h27.10.843,Test,2024.2.1,60.073045219003646,2024-12-01 16h27.25.383647 +0100,
22,150,120,34,None,65,65,0,False,right,1.6664619269977266,None,,,,,,,,0,65,65,65,,,,,,,,,414.3801396279996,,,,,,,,,,,,,,,,,,,,,,,,,,,,,,,,,,,,,,414.37020901399956,414.3801396279996,415.39427738700033,416.37790459900134,416.37790459900134,416.37790459900134,,,,418.0471447029995,right,1.6664619269977266,None,,,,,,,,,,,,,,,,,,,,,,,,,,,,,,,,,,,,,,,,,,,547145,001,2024-12-01_16h27.10.843,Test,2024.2.1,60.073045219003646,2024-12-01 16h27.25.383647 +0100,
30,150,150,11,None,66,66,0,False,right,2.0230094909966283,None,,,,,,,,0,66,66,66,,,,,,,,,418.06499772200186,,,,,,,,,,,,,,,,,,,,,,,,,,,,,,,,,,,,,,418.0556796759993,418.06499772200186,419.0780357270014,420.06098562199986,420.06098562199986,420.06098562199986,,,,422.0961664380011,right,2.0230094909966283,None,,,,,,,,,,,,,,,,,,,,,,,,,,,,,,,,,,,,,,,,,,,547145,001,2024-12-01_16h27.10.843,Test,2024.2.1,60.073045219003646,2024-12-01 16h27.25.383647 +0100,
53,150,90,30,None,67,67,0,True,left,1.7083376299997326,None,,,,,,,,0,67,67,67,,,,,,,,,422.111152245001,,,,,,,,,,,,,,,,,,,,,,,,,,,,,,,,,,,,,,422.1019217230023,422.111152245001,423.11201575000086,424.11133914600214,424.11133914600214,424.11133914600214,,,,425.82911624100234,left,1.7083376299997326,None,,,,,,,,,,,,,,,,,,,,,,,,,,,,,,,,,,,,,,,,,,,547145,001,2024-12-01_16h27.10.843,Test,2024.2.1,60.073045219003646,2024-12-01 16h27.25.383647 +0100,
2,150,0,53,None,68,68,0,False,right,1.675371710996842,None,,,,,,,,0,68,68,68,,,,,,,,,425.844261233,,,,,,,,,,,,,,,,,,,,,,,,,,,,,,,,,,,,,,425.8350570010007,425.844261233,426.8443133630026,427.82826495300105,427.82826495300105,427.82826495300105,,,,429.5125098690005,right,1.675371710996842,None,,,,,,,,,,,,,,,,,,,,,,,,,,,,,,,,,,,,,,,,,,,547145,001,2024-12-01_16h27.10.843,Test,2024.2.1,60.073045219003646,2024-12-01 16h27.25.383647 +0100,
10,150,30,59,None,69,69,0,False,right,1.2671125710003253,None,,,,,,,,0,69,69,69,,,,,,,,,429.5281348110002,,,,,,,,,,,,,,,,,,,,,,,,,,,,,,,,,,,,,,429.51815071999954,429.5281348110002,430.528399887,431.5117715100023,431.5117715100023,431.5117715100023,,,,432.7812132479994,right,1.2671125710003253,None,,,,,,,,,,,,,,,,,,,,,,,,,,,,,,,,,,,,,,,,,,,547145,001,2024-12-01_16h27.10.843,Test,2024.2.1,60.073045219003646,2024-12-01 16h27.25.383647 +0100,
,,,,,,,,,,,,,,,,,,,,,,,,,,,,,,,,,,,,,,,,,,,,,,,,,,,,,,,,,,,,,,,,,,,,,,,,,,,,,,,,,,432.7813805780024,432.79502450400105,432.79502450400105,436.64729671500027,space,3.8351717420009663,None,,,,,,,,,,,,,,,,,,,,,,,,,,,,,,,,,,,,547145,001,2024-12-01_16h27.10.843,Test,2024.2.1,60.073045219003646,2024-12-01 16h27.25.383647 +0100,
13,150,60,46,None,0,0,0,,,,,,,,,,,,,,,,0,0,0,12,,,,,436.6690218770018,,,,,,,,,,,,,,,,,,,,,,,,,,,,,,,,,,,,,,,,,,,,,,,,,,,,,,,,,,436.6598943099998,436.6690218770018,436.86209688000235,436.86209688000235,436.8786161019998,438.564370510001,438.564370510001,438.5482560220007,,,,,,,,,,,,,,,,,,,,,,,,,,,,547145,001,2024-12-01_16h27.10.843,Test,2024.2.1,60.073045219003646,2024-12-01 16h27.25.383647 +0100,
6,150,30,20,None,1,1,0,,,,,,,,,,,,,,,,0,1,1,5,,,,,438.564370510001,,,,,,,,,,,,,,,,,,,,,,,,,,,,,,,,,,,,,,,,,,,,,,,,,,,,,,,,,,438.55637796800147,438.564370510001,438.76237009500255,438.76237009500255,438.77884190999976,440.461943530001,440.461943530001,440.44678837000174,,,,,,,,,,,,,,,,,,,,,,,,,,,,547145,001,2024-12-01_16h27.10.843,Test,2024.2.1,60.073045219003646,2024-12-01 16h27.25.383647 +0100,
11,150,60,56,None,2,2,0,,,,,,,,,,,,,,,,0,2,2,10,,,,,440.461943530001,,,,,,,,,,,,,,,,,,,,,,,,,,,,,,,,,,,,,,,,,,,,,,,,,,,,,,,,,,440.4526917639996,440.461943530001,440.6466463390025,440.6466463390025,440.66229056000157,442.3628796949997,442.3628796949997,442.3464598230021,,,,,,,,,,,,,,,,,,,,,,,,,,,,547145,001,2024-12-01_16h27.10.843,Test,2024.2.1,60.073045219003646,2024-12-01 16h27.25.383647 +0100,
3,150,0,62,None,3,3,0,,,,,,,,,,,,,,,,0,3,3,2,,,,,442.3628796949997,,,,,,,,,,,,,,,,,,,,,,,,,,,,,,,,,,,,,,,,,,,,,,,,,,,,,,,,,,442.35383448799985,442.3628796949997,442.562866045002,442.562866045002,442.562866045002,444.26270194099925,444.26270194099925,444.24653903999933,,,,,,,,,,,,,,,,,,,,,,,,,,,,547145,001,2024-12-01_16h27.10.843,Test,2024.2.1,60.073045219003646,2024-12-01 16h27.25.383647 +0100,
14,150,60,9,None,4,4,0,,,,,,,,,,,,,,,,0,4,4,13,,,,,444.26270194099925,,,,,,,,,,,,,,,,,,,,,,,,,,,,,,,,,,,,,,,,,,,,,,,,,,,,,,,,,,444.25304682800197,444.26270194099925,444.44648756099923,444.44648756099923,444.4630132570019,446.1458040639991,446.1458040639991,446.13025212900175,,,,,,,,,,,,,,,,,,,,,,,,,,,,547145,001,2024-12-01_16h27.10.843,Test,2024.2.1,60.073045219003646,2024-12-01 16h27.25.383647 +0100,
27,150,150,65,None,5,5,0,,,,,,,,,,,,,,,,0,5,5,26,,,,,446.1458040639991,,,,,,,,,,,,,,,,,,,,,,,,,,,,,,,,,,,,,,,,,,,,,,,,,,,,,,,,,,446.13627967700086,446.1634925690014,446.34607588400104,446.34607588400104,446.3634018550001,448.0464370369991,448.0464370369991,448.03093309900214,,,,,,,,,,,,,,,,,,,,,,,,,,,,547145,001,2024-12-01_16h27.10.843,Test,2024.2.1,60.073045219003646,2024-12-01 16h27.25.383647 +0100,
9,150,30,18,None,6,6,0,,,,,,,,,,,,,,,,0,6,6,8,,,,,448.0464370369991,,,,,,,,,,,,,,,,,,,,,,,,,,,,,,,,,,,,,,,,,,,,,,,,,,,,,,,,,,448.03774219000115,448.0464370369991,448.24623425699974,448.24623425699974,448.24623425699974,449.94724606599993,449.94724606599993,449.9311358180021,,,,,,,,,,,,,,,,,,,,,,,,,,,,547145,001,2024-12-01_16h27.10.843,Test,2024.2.1,60.073045219003646,2024-12-01 16h27.25.383647 +0100,
8,150,30,43,None,7,7,0,,,,,,,,,,,,,,,,0,7,7,7,,,,,449.94724606599993,,,,,,,,,,,,,,,,,,,,,,,,,,,,,,,,,,,,,,,,,,,,,,,,,,,,,,,,,,449.93837031600196,449.94724606599993,450.1467964090007,450.1467964090007,450.1467964090007,451.8502007900024,451.8502007900024,451.8315956930019,,,,,,,,,,,,,,,,,,,,,,,,,,,,547145,001,2024-12-01_16h27.10.843,Test,2024.2.1,60.073045219003646,2024-12-01 16h27.25.383647 +0100,
32,150,180,13,None,8,8,0,,,,,,,,,,,,,,,,0,8,8,31,,,,,451.8502007900024,,,,,,,,,,,,,,,,,,,,,,,,,,,,,,,,,,,,,,,,,,,,,,,,,,,,,,,,,,451.84157152199987,451.8502007900024,452.04688502000135,452.04688502000135,452.0634178569999,453.7466388310022,453.7466388310022,453.7305499150025,,,,,,,,,,,,,,,,,,,,,,,,,,,,547145,001,2024-12-01_16h27.10.843,Test,2024.2.1,60.073045219003646,2024-12-01 16h27.25.383647 +0100,
1,150,0,68,None,9,9,0,,,,,,,,,,,,,,,,0,9,9,0,,,,,453.7466388310022,,,,,,,,,,,,,,,,,,,,,,,,,,,,,,,,,,,,,,,,,,,,,,,,,,,,,,,,,,453.7365897710006,453.7466388310022,453.9466589690019,453.9466589690019,453.9466589690019,455.64623946100255,455.64623946100255,455.6312111180014,,,,,,,,,,,,,,,,,,,,,,,,,,,,547145,001,2024-12-01_16h27.10.843,Test,2024.2.1,60.073045219003646,2024-12-01 16h27.25.383647 +0100,
29,150,150,48,None,10,10,0,,,,,,,,,,,,,,,,0,10,10,28,,,,,455.64623946100255,,,,,,,,,,,,,,,,,,,,,,,,,,,,,,,,,,,,,,,,,,,,,,,,,,,,,,,,,,455.63725393999994,455.64623946100255,455.8471630919994,455.8471630919994,455.8471630919994,457.54646567300006,457.54646567300006,457.53094632300053,,,,,,,,,,,,,,,,,,,,,,,,,,,,547145,001,2024-12-01_16h27.10.843,Test,2024.2.1,60.073045219003646,2024-12-01 16h27.25.383647 +0100,
22,150,120,34,None,11,11,0,,,,,,,,,,,,,,,,0,11,11,21,,,,,457.54646567300006,,,,,,,,,,,,,,,,,,,,,,,,,,,,,,,,,,,,,,,,,,,,,,,,,,,,,,,,,,457.5365701340015,457.54646567300006,457.74709714799974,457.74709714799974,457.74709714799974,459.4467250279995,459.4467250279995,459.4308163980022,,,,,,,,,,,,,,,,,,,,,,,,,,,,547145,001,2024-12-01_16h27.10.843,Test,2024.2.1,60.073045219003646,2024-12-01 16h27.25.383647 +0100,
21,150,120,28,None,12,12,0,,,,,,,,,,,,,,,,0,12,12,20,,,,,459.4467250279995,,,,,,,,,,,,,,,,,,,,,,,,,,,,,,,,,,,,,,,,,,,,,,,,,,,,,,,,,,459.4361258300014,459.4467250279995,459.6473227380011,459.6473227380011,459.6473227380011,461.3473871130009,461.3473871130009,461.3311656670012,,,,,,,,,,,,,,,,,,,,,,,,,,,,547145,001,2024-12-01_16h27.10.843,Test,2024.2.1,60.073045219003646,2024-12-01 16h27.25.383647 +0100,
24,150,120,2,None,13,13,0,,,,,,,,,,,,,,,,0,13,13,23,,,,,461.3473871130009,,,,,,,,,,,,,,,,,,,,,,,,,,,,,,,,,,,,,,,,,,,,,,,,,,,,,,,,,,461.33875519399953,461.3473871130009,461.5465089870013,461.5465089870013,461.5465089870013,463.26513790399986,463.26513790399986,463.25213043700205,,,,,,,,,,,,,,,,,,,,,,,,,,,,547145,001,2024-12-01_16h27.10.843,Test,2024.2.1,60.073045219003646,2024-12-01 16h27.25.383647 +0100,
5,150,0,4,None,14,14,0,,,,,,,,,,,,,,,,0,14,14,4,,,,,463.26513790399986,,,,,,,,,,,,,,,,,,,,,,,,,,,,,,,,,,,,,,,,,,,,,,,,,,,,,,,,,,463.25794722299906,463.26513790399986,463.44738421900183,463.44738421900183,463.4805217630019,465.1478109039999,465.1478109039999,465.13205891300095,,,,,,,,,,,,,,,,,,,,,,,,,,,,547145,001,2024-12-01_16h27.10.843,Test,2024.2.1,60.073045219003646,2024-12-01 16h27.25.383647 +0100,
31,150,180,10,None,15,15,0,,,,,,,,,,,,,,,,0,15,15,30,,,,,465.1478109039999,,,,,,,,,,,,,,,,,,,,,,,,,,,,,,,,,,,,,,,,,,,,,,,,,,,,,,,,,,465.1399733090002,465.1478109039999,465.34730699300053,465.34730699300053,465.34730699300053,467.05112712700065,467.05112712700065,467.03271623100227,,,,,,,,,,,,,,,,,,,,,,,,,,,,547145,001,2024-12-01_16h27.10.843,Test,2024.2.1,60.073045219003646,2024-12-01 16h27.25.383647 +0100,
16,150,90,33,None,16,16,0,,,,,,,,,,,,,,,,0,16,16,15,,,,,467.05112712700065,,,,,,,,,,,,,,,,,,,,,,,,,,,,,,,,,,,,,,,,,,,,,,,,,,,,,,,,,,467.04268544500155,467.05112712700065,467.2545003920022,467.2545003920022,467.26399904700156,,,468.94826635900245,,,,,,,,,,,,,,,,,,,,,,,,,,,,547145,001,2024-12-01_16h27.10.843,Test,2024.2.1,60.073045219003646,2024-12-01 16h27.25.383647 +0100,
35,150,180,21,None,17,17,0,,,,,,,,,,,,,,,,0,17,17,34,,,,,468.9645462469998,,,,,,,,,,,,,,,,,,,,,,,,,,,,,,,,,,,,,,,,,,,,,,,,,,,,,,,,,,468.95449658800135,468.9645462469998,469.1474367619994,469.1474367619994,469.1642690990011,470.8476201049998,470.8476201049998,470.83186808900064,,,,,,,,,,,,,,,,,,,,,,,,,,,,547145,001,2024-12-01_16h27.10.843,Test,2024.2.1,60.073045219003646,2024-12-01 16h27.25.383647 +0100,
10,150,30,59,None,18,18,0,,,,,,,,,,,,,,,,0,18,18,9,,,,,470.8476201049998,,,,,,,,,,,,,,,,,,,,,,,,,,,,,,,,,,,,,,,,,,,,,,,,,,,,,,,,,,470.8378570320019,470.8476201049998,471.0479991220018,471.0479991220018,471.0479991220018,472.7476739820013,472.7476739820013,472.7322057700003,,,,,,,,,,,,,,,,,,,,,,,,,,,,547145,001,2024-12-01_16h27.10.843,Test,2024.2.1,60.073045219003646,2024-12-01 16h27.25.383647 +0100,
15,150,60,54,None,19,19,0,,,,,,,,,,,,,,,,0,19,19,14,,,,,472.7476739820013,,,,,,,,,,,,,,,,,,,,,,,,,,,,,,,,,,,,,,,,,,,,,,,,,,,,,,,,,,472.7381353060009,472.7476739820013,472.9484586569997,472.9484586569997,472.9484586569997,474.6476996320016,474.6476996320016,474.6320322970023,,,,,,,,,,,,,,,,,,,,,,,,,,,,547145,001,2024-12-01_16h27.10.843,Test,2024.2.1,60.073045219003646,2024-12-01 16h27.25.383647 +0100,
19,150,90,39,None,20,20,0,,,,,,,,,,,,,,,,0,20,20,18,,,,,474.6476996320016,,,,,,,,,,,,,,,,,,,,,,,,,,,,,,,,,,,,,,,,,,,,,,,,,,,,,,,,,,474.63889161800034,474.6476996320016,474.84827229800067,474.84827229800067,474.84827229800067,476.54785822399936,476.54785822399936,476.5326184869991,,,,,,,,,,,,,,,,,,,,,,,,,,,,547145,001,2024-12-01_16h27.10.843,Test,2024.2.1,60.073045219003646,2024-12-01 16h27.25.383647 +0100,
20,150,90,41,None,21,21,0,,,,,,,,,,,,,,,,0,21,21,19,,,,,476.54785822399936,,,,,,,,,,,,,,,,,,,,,,,,,,,,,,,,,,,,,,,,,,,,,,,,,,,,,,,,,,476.5394671380018,476.54785822399936,476.74903763600014,476.74903763600014,476.74903763600014,478.4486371359999,478.4486371359999,478.4325958030022,,,,,,,,,,,,,,,,,,,,,,,,,,,,547145,001,2024-12-01_16h27.10.843,Test,2024.2.1,60.073045219003646,2024-12-01 16h27.25.383647 +0100,
2,150,0,53,None,22,22,0,,,,,,,,,,,,,,,,0,22,22,1,,,,,478.4486371359999,,,,,,,,,,,,,,,,,,,,,,,,,,,,,,,,,,,,,,,,,,,,,,,,,,,,,,,,,,478.4383861749993,478.4486371359999,478.6488300560013,478.6488300560013,478.6488300560013,480.3485458159994,480.3485458159994,480.33281408100083,,,,,,,,,,,,,,,,,,,,,,,,,,,,547145,001,2024-12-01_16h27.10.843,Test,2024.2.1,60.073045219003646,2024-12-01 16h27.25.383647 +0100,
34,150,180,55,None,23,23,0,,,,,,,,,,,,,,,,0,23,23,33,,,,,480.3485458159994,,,,,,,,,,,,,,,,,,,,,,,,,,,,,,,,,,,,,,,,,,,,,,,,,,,,,,,,,,480.3387313109997,480.3485458159994,480.54872912800056,480.54872912800056,480.54872912800056,482.2488704110001,482.2488704110001,482.23302043500007,,,,,,,,,,,,,,,,,,,,,,,,,,,,547145,001,2024-12-01_16h27.10.843,Test,2024.2.1,60.073045219003646,2024-12-01 16h27.25.383647 +0100,
17,150,90,1,None,24,24,0,,,,,,,,,,,,,,,,0,24,24,16,,,,,482.2488704110001,,,,,,,,,,,,,,,,,,,,,,,,,,,,,,,,,,,,,,,,,,,,,,,,,,,,,,,,,,482.23869499600187,482.2488704110001,482.4488475390026,482.4488475390026,482.4488475390026,484.14907673199923,484.14907673199923,484.13273397100056,,,,,,,,,,,,,,,,,,,,,,,,,,,,547145,001,2024-12-01_16h27.10.843,Test,2024.2.1,60.073045219003646,2024-12-01 16h27.25.383647 +0100,
33,150,180,70,None,25,25,0,,,,,,,,,,,,,,,,0,25,25,32,,,,,484.14907673199923,,,,,,,,,,,,,,,,,,,,,,,,,,,,,,,,,,,,,,,,,,,,,,,,,,,,,,,,,,484.1406352670019,484.14907673199923,484.3488183920017,484.3488183920017,484.3488183920017,486.04842528299923,486.04842528299923,486.0333981770018,,,,,,,,,,,,,,,,,,,,,,,,,,,,547145,001,2024-12-01_16h27.10.843,Test,2024.2.1,60.073045219003646,2024-12-01 16h27.25.383647 +0100,
12,150,60,44,None,26,26,0,,,,,,,,,,,,,,,,0,26,26,11,,,,,486.04842528299923,,,,,,,,,,,,,,,,,,,,,,,,,,,,,,,,,,,,,,,,,,,,,,,,,,,,,,,,,,486.0396144000006,486.04842528299923,486.24840863600184,486.24840863600184,486.24840863600184,487.94870012699903,487.94870012699903,487.9334571370018,,,,,,,,,,,,,,,,,,,,,,,,,,,,547145,001,2024-12-01_16h27.10.843,Test,2024.2.1,60.073045219003646,2024-12-01 16h27.25.383647 +0100,
28,150,150,36,None,27,27,0,,,,,,,,,,,,,,,,0,27,27,27,,,,,487.94870012699903,,,,,,,,,,,,,,,,,,,,,,,,,,,,,,,,,,,,,,,,,,,,,,,,,,,,,,,,,,487.9395542429993,487.94870012699903,488.14949002900175,488.14949002900175,488.14949002900175,489.8493402339991,489.8493402339991,489.8331097650007,,,,,,,,,,,,,,,,,,,,,,,,,,,,547145,001,2024-12-01_16h27.10.843,Test,2024.2.1,60.073045219003646,2024-12-01 16h27.25.383647 +0100,
30,150,150,11,None,28,28,0,,,,,,,,,,,,,,,,0,28,28,29,,,,,489.8493402339991,,,,,,,,,,,,,,,,,,,,,,,,,,,,,,,,,,,,,,,,,,,,,,,,,,,,,,,,,,489.83999302600205,489.8493402339991,490.04911572200217,490.04911572200217,490.04911572200217,491.74912128600045,491.74912128600045,491.73329836300036,,,,,,,,,,,,,,,,,,,,,,,,,,,,547145,001,2024-12-01_16h27.10.843,Test,2024.2.1,60.073045219003646,2024-12-01 16h27.25.383647 +0100,
25,150,120,38,None,29,29,0,,,,,,,,,,,,,,,,0,29,29,24,,,,,491.74912128600045,,,,,,,,,,,,,,,,,,,,,,,,,,,,,,,,,,,,,,,,,,,,,,,,,,,,,,,,,,491.7396683070001,491.74912128600045,491.94925025500197,491.94925025500197,491.94925025500197,493.648976157001,493.648976157001,493.63323668299927,,,,,,,,,,,,,,,,,,,,,,,,,,,,547145,001,2024-12-01_16h27.10.843,Test,2024.2.1,60.073045219003646,2024-12-01 16h27.25.383647 +0100,
26,150,150,12,None,30,30,0,,,,,,,,,,,,,,,,0,30,30,25,,,,,493.648976157001,,,,,,,,,,,,,,,,,,,,,,,,,,,,,,,,,,,,,,,,,,,,,,,,,,,,,,,,,,493.63932244399984,493.648976157001,493.8497112469995,493.8497112469995,493.8497112469995,495.549299631999,495.549299631999,495.5335146030011,,,,,,,,,,,,,,,,,,,,,,,,,,,,547145,001,2024-12-01_16h27.10.843,Test,2024.2.1,60.073045219003646,2024-12-01 16h27.25.383647 +0100,
4,150,0,19,None,31,31,0,,,,,,,,,,,,,,,,0,31,31,3,,,,,495.549299631999,,,,,,,,,,,,,,,,,,,,,,,,,,,,,,,,,,,,,,,,,,,,,,,,,,,,,,,,,,495.5402424310014,495.549299631999,495.7499288149993,495.7499288149993,495.7499288149993,497.44919210300213,497.44919210300213,497.4338938410001,,,,,,,,,,,,,,,,,,,,,,,,,,,,547145,001,2024-12-01_16h27.10.843,Test,2024.2.1,60.073045219003646,2024-12-01 16h27.25.383647 +0100,
7,150,30,22,None,32,32,0,,,,,,,,,,,,,,,,0,32,32,6,,,,,497.44919210300213,,,,,,,,,,,,,,,,,,,,,,,,,,,,,,,,,,,,,,,,,,,,,,,,,,,,,,,,,,497.44039497700214,497.44919210300213,497.6496070360008,497.6496070360008,497.6496070360008,499.349926810999,499.349926810999,499.33383229299943,,,,,,,,,,,,,,,,,,,,,,,,,,,,547145,001,2024-12-01_16h27.10.843,Test,2024.2.1,60.073045219003646,2024-12-01 16h27.25.383647 +0100,
23,150,120,63,None,33,33,0,,,,,,,,,,,,,,,,0,33,33,22,,,,,499.349926810999,,,,,,,,,,,,,,,,,,,,,,,,,,,,,,,,,,,,,,,,,,,,,,,,,,,,,,,,,,499.3394317400016,499.349926810999,499.5502872210018,499.5502872210018,499.5502872210018,501.26054305100115,501.26054305100115,501.2474730009999,,,,,,,,,,,,,,,,,,,,,,,,,,,,547145,001,2024-12-01_16h27.10.843,Test,2024.2.1,60.073045219003646,2024-12-01 16h27.25.383647 +0100,
18,150,90,51,None,34,34,0,,,,,,,,,,,,,,,,0,34,34,17,,,,,501.26054305100115,,,,,,,,,,,,,,,,,,,,,,,,,,,,,,,,,,,,,,,,,,,,,,,,,,,,,,,,,,501.25376706300085,501.26054305100115,501.4505689590005,501.4505689590005,501.46674254400205,503.14979865600253,503.14979865600253,503.13440946099945,,,,,,,,,,,,,,,,,,,,,,,,,,,,547145,001,2024-12-01_16h27.10.843,Test,2024.2.1,60.073045219003646,2024-12-01 16h27.25.383647 +0100,
,,,,,,,,,,,,,,,,,,,,,,,,,,,,,,,,,,,,,,,,,,,,,,,,,,,,,,,,,,,,,,,,,,,,,,,,,,,,,,,,,,,,,,,,,,,,,,,,,503.1345748490021,503.14979865600253,503.14979865600253,507.75178356200195,space,4.590614512002503,None,,,,,,,,,,,,,,,,,,,,,547145,001,2024-12-01_16h27.10.843,Test,2024.2.1,60.073045219003646,2024-12-01 16h27.25.383647 +0100,
70,150,180,60,None,0,0,0,True,,,,right,2.606309863000206,None,,,,,,,,,,,,,0,0,0,0,507.7755055730013,,,,,,,,,,,,,,,,,,,,,,,,,,,,,,,,,,,,,,,,,,,,,,,,,,,,,,,,,,,,,,,,,,,,,,,,,507.76734072900217,507.7755055730013,508.7836917700006,509.76731021700107,509.76731021700107,509.76731021700107,512.3858624890017,right,2.606309863000206,None,,,,,,,,,,,547145,001,2024-12-01_16h27.10.843,Test,2024.2.1,60.073045219003646,2024-12-01 16h27.25.383647 +0100,
66,150,180,47,None,1,1,0,True,,,,right,2.0725554210002883,None,,,,,,,,,,,,,0,1,1,1,512.4013376670009,,,,,,,,,,,,,,,,,,,,,,,,,,,,,,,,,,,,,,,,,,,,,,,,,,,,,,,,,,,,,,,,,,,,,,,,,512.3927923260017,512.4013376670009,513.4017695350012,514.4008265900011,514.4008265900011,514.4008265900011,516.4856861869994,right,2.0725554210002883,None,,,,,,,,,,,547145,001,2024-12-01_16h27.10.843,Test,2024.2.1,60.073045219003646,2024-12-01 16h27.25.383647 +0100,
1,150,0,68,None,2,2,0,False,,,,right,1.4510564529991825,None,,,,,,,,,,,,,0,2,2,2,516.5006862280025,,,,,,,,,,,,,,,,,,,,,,,,,,,,,,,,,,,,,,,,,,,,,,,,,,,,,,,,,,,,,,,,,,,,,,,,,516.491118547001,516.5006862280025,517.5012673630008,518.5013028089998,518.5013028089998,518.5013028089998,519.9703807240003,right,1.4510564529991825,None,,,,,,,,,,,547145,001,2024-12-01_16h27.10.843,Test,2024.2.1,60.073045219003646,2024-12-01 16h27.25.383647 +0100,
29,150,150,48,None,3,3,0,False,,,,right,1.5256459080010245,None,,,,,,,,,,,,,0,3,3,3,519.9848374030007,,,,,,,,,,,,,,,,,,,,,,,,,,,,,,,,,,,,,,,,,,,,,,,,,,,,,,,,,,,,,,,,,,,,,,,,,519.9762535709997,519.9848374030007,520.9852141470001,521.9856297510014,521.9856297510014,521.9856297510014,523.5195378349999,right,1.5256459080010245,None,,,,,,,,,,,547145,001,2024-12-01_16h27.10.843,Test,2024.2.1,60.073045219003646,2024-12-01 16h27.25.383647 +0100,
21,150,120,28,None,4,4,0,False,,,,left,2.9971603370031517,None,,,,,,,,,,,,,0,4,4,4,523.5343081440005,,,,,,,,,,,,,,,,,,,,,,,,,,,,,,,,,,,,,,,,,,,,,,,,,,,,,,,,,,,,,,,,,,,,,,,,,523.5245697749997,523.5343081440005,524.5350888739995,525.535000322001,525.535000322001,525.535000322001,528.5370264670019,left,2.9971603370031517,None,528.5186436069998,528.5351961490014,528.5351961490014,,,,,,,,547145,001,2024-12-01_16h27.10.843,Test,2024.2.1,60.073045219003646,2024-12-01 16h27.25.383647 +0100,
42,150,30,32,None,5,5,0,True,,,,left,2.664124750001065,None,,,,,,,,,,,,,0,5,5,5,528.5531900250026,,,,,,,,,,,,,,,,,,,,,,,,,,,,,,,,,,,,,,,,,,,,,,,,,,,,,,,,,,,,,,,,,,,,,,,,,528.5431092300023,528.5531900250026,529.5684869130018,530.5520432260018,530.5520432260018,530.5520432260018,533.2224088959993,left,2.664124750001065,None,,,,,,,,,,,547145,001,2024-12-01_16h27.10.843,Test,2024.2.1,60.073045219003646,2024-12-01 16h27.25.383647 +0100,
56,150,120,40,None,6,6,0,True,,,,right,1.3679921370021475,None,,,,,,,,,,,,,0,6,6,6,533.2525379069994,,,,,,,,,,,,,,,,,,,,,,,,,,,,,,,,,,,,,,,,,,,,,,,,,,,,,,,,,,,,,,,,,,,,,,,,,533.2291716030013,533.2525379069994,534.2530594189993,535.2355760009996,535.2355760009996,535.2355760009996,536.6208027210014,right,1.3679921370021475,None,,,,,,,,,,,547145,001,2024-12-01_16h27.10.843,Test,2024.2.1,60.073045219003646,2024-12-01 16h27.25.383647 +0100,
16,150,90,33,None,7,7,0,False,,,,right,1.337765197000408,None,,,,,,,,,,,,,0,7,7,7,536.6360349640017,,,,,,,,,,,,,,,,,,,,,,,,,,,,,,,,,,,,,,,,,,,,,,,,,,,,,,,,,,,,,,,,,,,,,,,,,536.6266616630019,536.6360349640017,537.635667601,538.636006662,538.636006662,538.636006662,539.9876250340021,right,1.337765197000408,None,,,,,,,,,,,547145,001,2024-12-01_16h27.10.843,Test,2024.2.1,60.073045219003646,2024-12-01 16h27.25.383647 +0100,
36,150,0,57,None,8,8,0,True,,,,left,2.2614752070003306,None,,,,,,,,,,,,,0,8,8,8,540.0180052200012,,,,,,,,,,,,,,,,,,,,,,,,,,,,,,,,,,,,,,,,,,,,,,,,,,,,,,,,,,,,,,,,,,,,,,,,,539.995078027001,540.0180052200012,541.0195544740018,542.0028528200019,542.0028528200019,542.0028528200019,544.2707613170023,left,2.2614752070003306,None,,,,,,,,,,,547145,001,2024-12-01_16h27.10.843,Test,2024.2.1,60.073045219003646,2024-12-01 16h27.25.383647 +0100,
15,150,60,54,None,9,9,0,False,,,,right,1.4229714749999403,None,,,,,,,,,,,,,0,9,9,9,544.286590877,,,,,,,,,,,,,,,,,,,,,,,,,,,,,,,,,,,,,,,,,,,,,,,,,,,,,,,,,,,,,,,,,,,,,,,,,544.2770174910002,544.286590877,545.2874530490008,546.2868134529999,546.2868134529999,546.2868134529999,547.7224340920002,right,1.4229714749999403,None,,,,,,,,,,,547145,001,2024-12-01_16h27.10.843,Test,2024.2.1,60.073045219003646,2024-12-01 16h27.25.383647 +0100,
20,150,90,41,None,10,10,0,False,,,,right,1.457379931001924,None,,,,,,,,,,,,,0,10,10,10,547.7389918289991,,,,,,,,,,,,,,,,,,,,,,,,,,,,,,,,,,,,,,,,,,,,,,,,,,,,,,,,,,,,,,,,,,,,,,,,,547.7301099159995,547.7389918289991,548.7532637350014,549.7369797179999,549.7369797179999,549.7369797179999,551.2050979699998,right,1.457379931001924,None,,,,,,,,,,,547145,001,2024-12-01_16h27.10.843,Test,2024.2.1,60.073045219003646,2024-12-01 16h27.25.383647 +0100,
26,150,150,12,None,11,11,0,False,,,,right,1.9413636720018985,None,,,,,,,,,,,,,0,11,11,11,551.2208964679994,,,,,,,,,,,,,,,,,,,,,,,,,,,,,,,,,,,,,,,,,,,,,,,,,,,,,,,,,,,,,,,,,,,,,,,,,551.2127468110011,551.2208964679994,552.2205726270004,553.2204785590002,553.2204785590002,553.2204785590002,555.1715184390014,right,1.9413636720018985,None,,,,,,,,,,,547145,001,2024-12-01_16h27.10.843,Test,2024.2.1,60.073045219003646,2024-12-01 16h27.25.383647 +0100,
60,150,120,67,None,12,12,0,True,,,,right,1.4528135670007032,None,,,,,,,,,,,,,0,12,12,12,555.187678311002,,,,,,,,,,,,,,,,,,,,,,,,,,,,,,,,,,,,,,,,,,,,,,,,,,,,,,,,,,,,,,,,,,,,,,,,,555.1790092789997,555.187678311002,556.1869825169997,557.1708747760022,557.1708747760022,557.1708747760022,558.6392827790005,right,1.4528135670007032,None,,,,,,,,,,,547145,001,2024-12-01_16h27.10.843,Test,2024.2.1,60.073045219003646,2024-12-01 16h27.25.383647 +0100,
64,150,150,5,None,13,13,0,True,,,,left,5.4190036459986,None,,,,,,,,,,,,,0,13,13,13,558.6538367640023,,,,,,,,,,,,,,,,,,,,,,,,,,,,,,,,,,,,,,,,,,,,,,,,,,,,,,,,,,,,,,,,,,,,,,,,,558.6448861009994,558.6538367640023,559.6539635200024,560.6543531839998,560.6543531839998,560.6543531839998,566.0884598110024,left,5.4190036459986,None,563.6548281700016,563.6548281700016,563.6548281700016,,,,,,,,547145,001,2024-12-01_16h27.10.843,Test,2024.2.1,60.073045219003646,2024-12-01 16h27.25.383647 +0100,
44,150,30,69,None,14,14,0,True,,,,right,1.3504017699997348,None,,,,,,,,,,,,,0,14,14,14,566.1046424699998,,,,,,,,,,,,,,,,,,,,,,,,,,,,,,,,,,,,,,,,,,,,,,,,,,,,,,,,,,,,,,,,,,,,,,,,,566.0938807519997,566.1046424699998,567.104392322999,568.0878280850011,568.0878280850011,568.0878280850011,569.4409513009996,right,1.3504017699997348,None,,,,,,,,,,,547145,001,2024-12-01_16h27.10.843,Test,2024.2.1,60.073045219003646,2024-12-01 16h27.25.383647 +0100,
45,150,30,24,None,15,15,0,True,,,,left,1.976467694999883,None,,,,,,,,,,,,,0,15,15,15,569.4553029939998,,,,,,,,,,,,,,,,,,,,,,,,,,,,,,,,,,,,,,,,,,,,,,,,,,,,,,,,,,,,,,,,,,,,,,,,,569.4464801130016,569.4553029939998,570.4550933730025,571.4547181580019,571.4547181580019,571.4547181580019,573.4413401179991,left,1.976467694999883,None,,,,,,,,,,,547145,001,2024-12-01_16h27.10.843,Test,2024.2.1,60.073045219003646,2024-12-01 16h27.25.383647 +0100,
3,150,0,62,None,16,16,0,False,,,,left,1.6178182420007943,None,,,,,,,,,,,,,0,16,16,16,573.4585031480019,,,,,,,,,,,,,,,,,,,,,,,,,,,,,,,,,,,,,,,,,,,,,,,,,,,,,,,,,,,,,,,,,,,,,,,,,573.4487195239999,573.4585031480019,574.4546394370009,575.4550062269991,575.4550062269991,575.4550062269991,577.0894792149993,left,1.6178182420007943,None,,,,,,,,,,,547145,001,2024-12-01_16h27.10.843,Test,2024.2.1,60.073045219003646,2024-12-01 16h27.25.383647 +0100,
28,150,150,36,None,17,17,0,False,,,,left,1.7145967559990822,None,,,,,,,,,,,,,0,17,17,17,577.1054181319996,,,,,,,,,,,,,,,,,,,,,,,,,,,,,,,,,,,,,,,,,,,,,,,,,,,,,,,,,,,,,,,,,,,,,,,,,577.0968665870023,577.1054181319996,578.1055057600024,579.105336634002,579.105336634002,579.105336634002,580.8260962620006,left,1.7145967559990822,None,,,,,,,,,,,547145,001,2024-12-01_16h27.10.843,Test,2024.2.1,60.073045219003646,2024-12-01 16h27.25.383647 +0100,
24,150,120,2,None,18,18,0,False,,,,right,1.437634309000714,None,,,,,,,,,,,,,0,18,18,18,580.8425495570009,,,,,,,,,,,,,,,,,,,,,,,,,,,,,,,,,,,,,,,,,,,,,,,,,,,,,,,,,,,,,,,,,,,,,,,,,580.8339852220015,580.8425495570009,581.8560137150016,582.8391782550025,582.8391782550025,582.8391782550025,584.2903223510002,right,1.437634309000714,None,,,,,,,,,,,547145,001,2024-12-01_16h27.10.843,Test,2024.2.1,60.073045219003646,2024-12-01 16h27.25.383647 +0100,
52,150,90,50,None,19,19,0,True,,,,right,1.5345418450015131,None,,,,,,,,,,,,,0,19,19,19,584.3055505529992,,,,,,,,,,,,,,,,,,,,,,,,,,,,,,,,,,,,,,,,,,,,,,,,,,,,,,,,,,,,,,,,,,,,,,,,,584.2962698449992,584.3055505529992,585.3057801040013,586.3060530229995,586.3060530229995,586.3060530229995,587.8581362709992,right,1.5345418450015131,None,,,,,,,,,,,547145,001,2024-12-01_16h27.10.843,Test,2024.2.1,60.073045219003646,2024-12-01 16h27.25.383647 +0100,
62,150,150,66,None,20,20,0,True,,,,right,1.3604944529979548,None,,,,,,,,,,,,,0,20,20,20,587.8726792480011,,,,,,,,,,,,,,,,,,,,,,,,,,,,,,,,,,,,,,,,,,,,,,,,,,,,,,,,,,,,,,,,,,,,,,,,,587.8635877160013,587.8726792480011,588.8725160530012,589.8725463949995,589.8725463949995,589.8725463949995,591.2406210850022,right,1.3604944529979548,None,,,,,,,,,,,547145,001,2024-12-01_16h27.10.843,Test,2024.2.1,60.073045219003646,2024-12-01 16h27.25.383647 +0100,
35,150,180,21,None,21,21,0,False,,,,left,1.6549968309991527,None,,,,,,,,,,,,,0,21,21,21,591.2561775960021,,,,,,,,,,,,,,,,,,,,,,,,,,,,,,,,,,,,,,,,,,,,,,,,,,,,,,,,,,,,,,,,,,,,,,,,,591.2472088659997,591.2561775960021,592.2578732690017,593.240312897,593.240312897,593.240312897,594.9075642150019,left,1.6549968309991527,None,,,,,,,,,,,547145,001,2024-12-01_16h27.10.843,Test,2024.2.1,60.073045219003646,2024-12-01 16h27.25.383647 +0100,
34,150,180,55,None,22,22,0,False,,,,right,1.634181894998619,None,,,,,,,,,,,,,0,22,22,22,594.9230730900017,,,,,,,,,,,,,,,,,,,,,,,,,,,,,,,,,,,,,,,,,,,,,,,,,,,,,,,,,,,,,,,,,,,,,,,,,594.9133825870013,594.9230730900017,595.9239504190009,596.9063603920004,596.9063603920004,596.9063603920004,598.5582707020003,right,1.634181894998619,None,,,,,,,,,,,547145,001,2024-12-01_16h27.10.843,Test,2024.2.1,60.073045219003646,2024-12-01 16h27.25.383647 +0100,
69,150,180,17,None,23,23,0,True,,,,right,1.3664293170004385,None,,,,,,,,,,,,,0,23,23,23,598.5729452289997,,,,,,,,,,,,,,,,,,,,,,,,,,,,,,,,,,,,,,,,,,,,,,,,,,,,,,,,,,,,,,,,,,,,,,,,,598.5635329809993,598.5729452289997,599.5736438500026,600.5734806020009,600.5734806020009,600.5734806020009,601.9452085600024,right,1.3664293170004385,None,,,,,,,,,,,547145,001,2024-12-01_16h27.10.843,Test,2024.2.1,60.073045219003646,2024-12-01 16h27.25.383647 +0100,
63,150,150,15,None,24,24,0,True,,,,left,4.2382303300000785,None,,,,,,,,,,,,,0,24,24,24,601.9616784210011,,,,,,,,,,,,,,,,,,,,,,,,,,,,,,,,,,,,,,,,,,,,,,,,,,,,,,,,,,,,,,,,,,,,,,,,,601.9541690820006,601.9616784210011,602.9736520810002,603.9570173159991,603.9570173159991,603.9570173159991,608.2096774460006,left,4.2382303300000785,None,606.9570995640024,606.9570995640024,606.9570995640024,,,,,,,,547145,001,2024-12-01_16h27.10.843,Test,2024.2.1,60.073045219003646,2024-12-01 16h27.25.383647 +0100,
12,150,60,44,None,25,25,0,False,,,,right,1.6172432720013603,None,,,,,,,,,,,,,0,25,25,25,608.2251313359993,,,,,,,,,,,,,,,,,,,,,,,,,,,,,,,,,,,,,,,,,,,,,,,,,,,,,,,,,,,,,,,,,,,,,,,,,608.2158396410014,608.2251313359993,609.2245568040016,610.2246932970011,610.2246932970011,610.2246932970011,611.858684701001,right,1.6172432720013603,None,,,,,,,,,,,547145,001,2024-12-01_16h27.10.843,Test,2024.2.1,60.073045219003646,2024-12-01 16h27.25.383647 +0100,
17,150,90,1,None,26,26,0,False,,,,right,3.421390439998504,None,,,,,,,,,,,,,0,26,26,26,611.8739377019992,,,,,,,,,,,,,,,,,,,,,,,,,,,,,,,,,,,,,,,,,,,,,,,,,,,,,,,,,,,,,,,,,,,,,,,,,611.8647580790021,611.8739377019992,612.8745068120006,613.8745158890015,613.8745158890015,613.8745158890015,617.3089523939998,right,3.421390439998504,None,616.857498587,616.8740910680026,616.8740910680026,,,,,,,,547145,001,2024-12-01_16h27.10.843,Test,2024.2.1,60.073045219003646,2024-12-01 16h27.25.383647 +0100,
7,150,30,22,None,27,27,0,False,,,,right,1.2364729180007998,None,,,,,,,,,,,,,0,27,27,27,617.418201542001,,,,,,,,,,,,,,,,,,,,,,,,,,,,,,,,,,,,,,,,,,,,,,,,,,,,,,,,,,,,,,,,,,,,,,,,,617.3147799450016,617.418201542001,618.4248420100012,619.3082194679992,619.3082194679992,619.3082194679992,620.5603600230024,right,1.2364729180007998,None,,,,,,,,,,,547145,001,2024-12-01_16h27.10.843,Test,2024.2.1,60.073045219003646,2024-12-01 16h27.25.383647 +0100,
54,150,90,3,None,28,28,0,True,,,,left,1.6789086099997803,None,,,,,,,,,,,,,0,28,28,28,620.5753154090016,,,,,,,,,,,,,,,,,,,,,,,,,,,,,,,,,,,,,,,,,,,,,,,,,,,,,,,,,,,,,,,,,,,,,,,,,620.5667168729997,620.5753154090016,621.5748548410011,622.576217271002,622.576217271002,622.576217271002,624.2579257800026,left,1.6789086099997803,None,,,,,,,,,,,547145,001,2024-12-01_16h27.10.843,Test,2024.2.1,60.073045219003646,2024-12-01 16h27.25.383647 +0100,
33,150,180,70,None,29,29,0,False,,,,right,1.3190377069986425,None,,,,,,,,,,,,,0,29,29,29,624.2715883630008,,,,,,,,,,,,,,,,,,,,,,,,,,,,,,,,,,,,,,,,,,,,,,,,,,,,,,,,,,,,,,,,,,,,,,,,,624.2636402000026,624.2715883630008,625.2748644990024,626.2583967280007,626.2583967280007,626.2583967280007,627.5942132340024,right,1.3190377069986425,None,,,,,,,,,,,547145,001,2024-12-01_16h27.10.843,Test,2024.2.1,60.073045219003646,2024-12-01 16h27.25.383647 +0100,
19,150,90,39,None,30,30,0,False,,,,right,1.639760469999601,None,,,,,,,,,,,,,0,30,30,30,627.6094517630008,,,,,,,,,,,,,,,,,,,,,,,,,,,,,,,,,,,,,,,,,,,,,,,,,,,,,,,,,,,,,,,,,,,,,,,,,627.6005203940003,627.6094517630008,628.6091895270001,629.6087215670013,629.6087215670013,629.6087215670013,631.2605971199991,right,1.639760469999601,None,,,,,,,,,,,547145,001,2024-12-01_16h27.10.843,Test,2024.2.1,60.073045219003646,2024-12-01 16h27.25.383647 +0100,
27,150,150,65,None,31,31,0,False,,,,right,1.276611960001901,None,,,,,,,,,,,,,0,31,31,31,631.2767188090002,,,,,,,,,,,,,,,,,,,,,,,,,,,,,,,,,,,,,,,,,,,,,,,,,,,,,,,,,,,,,,,,,,,,,,,,,631.2673094380007,631.2767188090002,632.2762034750012,633.2754752740002,633.2754752740002,633.2754752740002,634.5612369260016,right,1.276611960001901,None,,,,,,,,,,,547145,001,2024-12-01_16h27.10.843,Test,2024.2.1,60.073045219003646,2024-12-01 16h27.25.383647 +0100,
8,150,30,43,None,32,32,0,False,,,,left,2.501564596001117,None,,,,,,,,,,,,,0,32,32,32,634.5761070629997,,,,,,,,,,,,,,,,,,,,,,,,,,,,,,,,,,,,,,,,,,,,,,,,,,,,,,,,,,,,,,,,,,,,,,,,,634.5665328860014,634.5761070629997,635.5758031629994,636.5758529330014,636.5758529330014,636.5758529330014,639.0805186700018,left,2.501564596001117,None,,,,,,,,,,,547145,001,2024-12-01_16h27.10.843,Test,2024.2.1,60.073045219003646,2024-12-01 16h27.25.383647 +0100,
41,150,30,37,None,33,33,0,True,,,,right,1.9263584449981863,None,,,,,,,,,,,,,0,33,33,33,639.097354425001,,,,,,,,,,,,,,,,,,,,,,,,,,,,,,,,,,,,,,,,,,,,,,,,,,,,,,,,,,,,,,,,,,,,,,,,,639.0885677110018,639.097354425001,640.1103333280007,641.0936764220023,641.0936764220023,641.0936764220023,643.0287201070023,right,1.9263584449981863,None,,,,,,,,,,,547145,001,2024-12-01_16h27.10.843,Test,2024.2.1,60.073045219003646,2024-12-01 16h27.25.383647 +0100,
65,150,150,61,None,34,34,0,True,,,,left,1.7308500990002358,None,,,,,,,,,,,,,0,34,34,34,643.0440958770014,,,,,,,,,,,,,,,,,,,,,,,,,,,,,,,,,,,,,,,,,,,,,,,,,,,,,,,,,,,,,,,,,,,,,,,,,643.0344524669999,643.0440958770014,644.0599072740006,645.042735949999,645.042735949999,645.042735949999,646.7787862069999,left,1.7308500990002358,None,,,,,,,,,,,547145,001,2024-12-01_16h27.10.843,Test,2024.2.1,60.073045219003646,2024-12-01 16h27.25.383647 +0100,
18,150,90,51,None,35,35,0,False,,,,right,1.335739909998665,None,,,,,,,,,,,,,0,35,35,35,646.7936719919999,,,,,,,,,,,,,,,,,,,,,,,,,,,,,,,,,,,,,,,,,,,,,,,,,,,,,,,,,,,,,,,,,,,,,,,,,646.7841326449998,646.7936719919999,647.7931147210002,648.7931089529993,648.7931089529993,648.7931089529993,650.1449929789997,right,1.335739909998665,None,,,,,,,,,,,547145,001,2024-12-01_16h27.10.843,Test,2024.2.1,60.073045219003646,2024-12-01 16h27.25.383647 +0100,
38,150,0,49,None,36,36,0,True,,,,left,1.908525760001794,None,,,,,,,,,,,,,0,36,36,36,650.1646160500022,,,,,,,,,,,,,,,,,,,,,,,,,,,,,,,,,,,,,,,,,,,,,,,,,,,,,,,,,,,,,,,,,,,,,,,,,650.1571498680023,650.1646160500022,651.1769085960004,652.1600747049997,652.1600747049997,652.1600747049997,654.0788505720011,left,1.908525760001794,None,,,,,,,,,,,547145,001,2024-12-01_16h27.10.843,Test,2024.2.1,60.073045219003646,2024-12-01 16h27.25.383647 +0100,
25,150,120,38,None,37,37,0,False,,,,right,1.3012568789999932,None,,,,,,,,,,,,,0,37,37,37,654.1008758300013,,,,,,,,,,,,,,,,,,,,,,,,,,,,,,,,,,,,,,,,,,,,,,,,,,,,,,,,,,,,,,,,,,,,,,,,,654.0930387740009,654.1008758300013,655.1100409400024,656.0935441809997,656.0935441809997,656.0935441809997,657.4122783300008,right,1.3012568789999932,None,,,,,,,,,,,547145,001,2024-12-01_16h27.10.843,Test,2024.2.1,60.073045219003646,2024-12-01 16h27.25.383647 +0100,
11,150,60,56,None,38,38,0,False,,,,left,3.1685667950005154,None,,,,,,,,,,,,,0,38,38,38,657.4278992990003,,,,,,,,,,,,,,,,,,,,,,,,,,,,,,,,,,,,,,,,,,,,,,,,,,,,,,,,,,,,,,,,,,,,,,,,,657.4179497910009,657.4278992990003,658.4275027229996,659.4273633740013,659.4273633740013,659.4273633740013,662.6125801050002,left,3.1685667950005154,None,662.428181569001,662.428181569001,662.428181569001,,,,,,,,547145,001,2024-12-01_16h27.10.843,Test,2024.2.1,60.073045219003646,2024-12-01 16h27.25.383647 +0100,
37,150,0,14,None,39,39,0,True,,,,right,0.8718373149968102,None,,,,,,,,,,,,,0,39,39,39,662.6300232930007,,,,,,,,,,,,,,,,,,,,,,,,,,,,,,,,,,,,,,,,,,,,,,,,,,,,,,,,,,,,,,,,,,,,,,,,,662.6208179620007,662.6300232930007,663.6443780539994,664.627841452002,664.627841452002,664.627841452002,665.5125617980011,right,0.8718373149968102,None,,,,,,,,,,,547145,001,2024-12-01_16h27.10.843,Test,2024.2.1,60.073045219003646,2024-12-01 16h27.25.383647 +0100,
46,150,60,31,None,40,40,0,True,,,,right,0.78758442400067,None,,,,,,,,,,,,,0,40,40,40,665.5275569610021,,,,,,,,,,,,,,,,,,,,,,,,,,,,,,,,,,,,,,,,,,,,,,,,,,,,,,,,,,,,,,,,,,,,,,,,,665.5182807660021,665.5275569610021,666.5277132449992,667.5280334090021,667.5280334090021,667.5280334090021,668.3293517740021,right,0.78758442400067,None,,,,,,,,,,,547145,001,2024-12-01_16h27.10.843,Test,2024.2.1,60.073045219003646,2024-12-01 16h27.25.383647 +0100,
32,150,180,13,None,41,41,0,False,,,,right,0.8068352429982042,None,,,,,,,,,,,,,0,41,41,41,668.3474526089994,,,,,,,,,,,,,,,,,,,,,,,,,,,,,,,,,,,,,,,,,,,,,,,,,,,,,,,,,,,,,,,,,,,,,,,,,668.3383878040004,668.3474526089994,669.3616990090013,670.3284473800013,670.3284473800013,670.3284473800013,671.1461009939994,right,0.8068352429982042,None,,,,,,,,,,,547145,001,2024-12-01_16h27.10.843,Test,2024.2.1,60.073045219003646,2024-12-01 16h27.25.383647 +0100,
50,150,60,6,None,42,42,0,True,,,,right,1.000021451000066,None,,,,,,,,,,,,,0,42,42,42,671.1672917680007,,,,,,,,,,,,,,,,,,,,,,,,,,,,,,,,,,,,,,,,,,,,,,,,,,,,,,,,,,,,,,,,,,,,,,,,,671.159561673001,671.1672917680007,672.1783474980002,673.1615253019991,673.1615253019991,673.1615253019991,674.1641130650023,right,1.000021451000066,None,,,,,,,,,,,547145,001,2024-12-01_16h27.10.843,Test,2024.2.1,60.073045219003646,2024-12-01 16h27.25.383647 +0100,
47,150,60,52,None,43,43,0,True,,,,left,1.655254254997999,None,,,,,,,,,,,,,0,43,43,43,674.1791351380016,,,,,,,,,,,,,,,,,,,,,,,,,,,,,,,,,,,,,,,,,,,,,,,,,,,,,,,,,,,,,,,,,,,,,,,,,674.169973242002,674.1791351380016,675.178412923,676.179221786002,676.179221786002,676.179221786002,677.8474899230023,left,1.655254254997999,None,,,,,,,,,,,547145,001,2024-12-01_16h27.10.843,Test,2024.2.1,60.073045219003646,2024-12-01 16h27.25.383647 +0100,
14,150,60,9,None,44,44,0,False,,,,right,1.502706617997319,None,,,,,,,,,,,,,0,44,44,44,677.8619934679991,,,,,,,,,,,,,,,,,,,,,,,,,,,,,,,,,,,,,,,,,,,,,,,,,,,,,,,,,,,,,,,,,,,,,,,,,677.8524287450018,677.8619934679991,678.8626586280006,679.8621237690022,679.8621237690022,679.8621237690022,681.3804247389999,right,1.502706617997319,None,,,,,,,,,,,547145,001,2024-12-01_16h27.10.843,Test,2024.2.1,60.073045219003646,2024-12-01 16h27.25.383647 +0100,
49,150,60,58,None,45,45,0,True,,,,right,1.2355356059997575,None,,,,,,,,,,,,,0,45,45,45,681.395557631,,,,,,,,,,,,,,,,,,,,,,,,,,,,,,,,,,,,,,,,,,,,,,,,,,,,,,,,,,,,,,,,,,,,,,,,,681.3861027620005,681.395557631,682.395663487001,683.3961694720019,683.3961694720019,683.3961694720019,684.6482698740001,right,1.2355356059997575,None,,,,,,,,,,,547145,001,2024-12-01_16h27.10.843,Test,2024.2.1,60.073045219003646,2024-12-01 16h27.25.383647 +0100,
61,150,150,23,None,46,46,0,True,,,,left,1.7590964379996876,None,,,,,,,,,,,,,0,46,46,46,684.6631128580011,,,,,,,,,,,,,,,,,,,,,,,,,,,,,,,,,,,,,,,,,,,,,,,,,,,,,,,,,,,,,,,,,,,,,,,,,684.6545767310017,684.6631128580011,685.663511024999,686.6626567950007,686.6626567950007,686.6626567950007,688.4311986270004,left,1.7590964379996876,None,,,,,,,,,,,547145,001,2024-12-01_16h27.10.843,Test,2024.2.1,60.073045219003646,2024-12-01 16h27.25.383647 +0100,
51,150,90,26,None,47,47,0,True,,,,right,1.1578969599977427,None,,,,,,,,,,,,,0,47,47,47,688.4470177520016,,,,,,,,,,,,,,,,,,,,,,,,,,,,,,,,,,,,,,,,,,,,,,,,,,,,,,,,,,,,,,,,,,,,,,,,,688.4373999570016,688.4470177520016,689.4461147229995,690.4300307170015,690.4300307170015,690.4300307170015,691.5979607180016,right,1.1578969599977427,None,,,,,,,,,,,547145,001,2024-12-01_16h27.10.843,Test,2024.2.1,60.073045219003646,2024-12-01 16h27.25.383647 +0100,
48,150,60,35,None,48,48,0,True,,,,right,1.159867046000727,None,,,,,,,,,,,,,0,48,48,48,691.6283749809991,,,,,,,,,,,,,,,,,,,,,,,,,,,,,,,,,,,,,,,,,,,,,,,,,,,,,,,,,,,,,,,,,,,,,,,,,691.6053343530002,691.6283749809991,692.6299640310026,693.6135634500024,693.6135634500024,693.6135634500024,694.7815072410012,right,1.159867046000727,None,,,,,,,,,,,547145,001,2024-12-01_16h27.10.843,Test,2024.2.1,60.073045219003646,2024-12-01 16h27.25.383647 +0100,
23,150,120,63,None,49,49,0,False,,,,left,1.7053832519995922,None,,,,,,,,,,,,,0,49,49,49,694.7968003759997,,,,,,,,,,,,,,,,,,,,,,,,,,,,,,,,,,,,,,,,,,,,,,,,,,,,,,,,,,,,,,,,,,,,,,,,,694.7873482180003,694.7968003759997,695.7969522710009,696.7969447140022,696.7969447140022,696.7969447140022,698.5146767730002,left,1.7053832519995922,None,,,,,,,,,,,547145,001,2024-12-01_16h27.10.843,Test,2024.2.1,60.073045219003646,2024-12-01 16h27.25.383647 +0100,
67,150,180,25,None,50,50,0,True,,,,left,1.170461413999874,None,,,,,,,,,,,,,0,50,50,50,698.5301081159996,,,,,,,,,,,,,,,,,,,,,,,,,,,,,,,,,,,,,,,,,,,,,,,,,,,,,,,,,,,,,,,,,,,,,,,,,698.520503478001,698.5301081159996,699.5302977569991,700.513794966002,700.513794966002,700.513794966002,701.6993881939998,left,1.170461413999874,None,,,,,,,,,,,547145,001,2024-12-01_16h27.10.843,Test,2024.2.1,60.073045219003646,2024-12-01 16h27.25.383647 +0100,
4,150,0,19,None,51,51,0,False,,,,right,1.2180006910020893,None,,,,,,,,,,,,,0,51,51,51,701.716885621001,,,,,,,,,,,,,,,,,,,,,,,,,,,,,,,,,,,,,,,,,,,,,,,,,,,,,,,,,,,,,,,,,,,,,,,,,701.707596840999,701.716885621001,702.7313274570006,703.7134493720005,703.7134493720005,703.7134493720005,704.9343101369996,right,1.2180006910020893,None,,,,,,,,,,,547145,001,2024-12-01_16h27.10.843,Test,2024.2.1,60.073045219003646,2024-12-01 16h27.25.383647 +0100,
68,150,180,8,None,52,52,0,True,,,,right,1.4895582019998983,None,,,,,,,,,,,,,0,52,52,52,704.9481071770024,,,,,,,,,,,,,,,,,,,,,,,,,,,,,,,,,,,,,,,,,,,,,,,,,,,,,,,,,,,,,,,,,,,,,,,,,704.938698375001,704.9481071770024,705.9474777200012,706.9475924830003,706.9475924830003,706.9475924830003,708.4484629470026,right,1.4895582019998983,None,,,,,,,,,,,547145,001,2024-12-01_16h27.10.843,Test,2024.2.1,60.073045219003646,2024-12-01 16h27.25.383647 +0100,
59,150,120,27,None,53,53,0,True,,,,left,2.0519076749988017,None,,,,,,,,,,,,,0,53,53,53,708.4636533990015,,,,,,,,,,,,,,,,,,,,,,,,,,,,,,,,,,,,,,,,,,,,,,,,,,,,,,,,,,,,,,,,,,,,,,,,,708.4541936850001,708.4636533990015,709.4643481560015,710.4477820400025,710.4477820400025,710.4477820400025,712.5162987010008,left,2.0519076749988017,None,,,,,,,,,,,547145,001,2024-12-01_16h27.10.843,Test,2024.2.1,60.073045219003646,2024-12-01 16h27.25.383647 +0100,
39,150,0,7,None,54,54,0,True,,,,left,1.5199554540013196,None,,,,,,,,,,,,,0,54,54,54,712.5312001210004,,,,,,,,,,,,,,,,,,,,,,,,,,,,,,,,,,,,,,,,,,,,,,,,,,,,,,,,,,,,,,,,,,,,,,,,,712.5220071229996,712.5312001210004,713.531023689,714.5311165759995,714.5311165759995,714.5311165759995,716.0678228060024,left,1.5199554540013196,None,,,,,,,,,,,547145,001,2024-12-01_16h27.10.843,Test,2024.2.1,60.073045219003646,2024-12-01 16h27.25.383647 +0100,
43,150,30,42,None,55,55,0,True,,,,left,1.3059553100029007,None,,,,,,,,,,,,,0,55,55,55,716.0827464329996,,,,,,,,,,,,,,,,,,,,,,,,,,,,,,,,,,,,,,,,,,,,,,,,,,,,,,,,,,,,,,,,,,,,,,,,,716.0740238559993,716.0827464329996,717.0983345740024,718.0814729939993,718.0814729939993,718.0814729939993,719.3952419199995,left,1.3059553100029007,None,,,,,,,,,,,547145,001,2024-12-01_16h27.10.843,Test,2024.2.1,60.073045219003646,2024-12-01 16h27.25.383647 +0100,
13,150,60,46,None,56,56,0,False,,,,left,1.0093738909999956,None,,,,,,,,,,,,,0,56,56,56,719.4088355690001,,,,,,,,,,,,,,,,,,,,,,,,,,,,,,,,,,,,,,,,,,,,,,,,,,,,,,,,,,,,,,,,,,,,,,,,,719.4006260900023,719.4088355690001,720.4149659290015,721.398726424999,721.398726424999,721.398726424999,722.4173838829993,left,1.0093738909999956,None,,,,,,,,,,,547145,001,2024-12-01_16h27.10.843,Test,2024.2.1,60.073045219003646,2024-12-01 16h27.25.383647 +0100,
40,150,0,64,None,57,57,0,True,,,,left,1.4777559680005652,None,,,,,,,,,,,,,0,57,57,57,722.4324264690003,,,,,,,,,,,,,,,,,,,,,,,,,,,,,,,,,,,,,,,,,,,,,,,,,,,,,,,,,,,,,,,,,,,,,,,,,722.4237630560019,722.4324264690003,723.4480435020014,724.4323820470017,724.4323820470017,724.4323820470017,725.9169158350014,left,1.4777559680005652,None,,,,,,,,,,,547145,001,2024-12-01_16h27.10.843,Test,2024.2.1,60.073045219003646,2024-12-01 16h27.25.383647 +0100,
55,150,90,45,None,58,58,0,True,,,,left,1.5596762700006366,None,,,,,,,,,,,,,0,58,58,58,725.9321544800005,,,,,,,,,,,,,,,,,,,,,,,,,,,,,,,,,,,,,,,,,,,,,,,,,,,,,,,,,,,,,,,,,,,,,,,,,725.9227320739992,725.9321544800005,726.9322644849999,727.9326593210026,727.9326593210026,727.9326593210026,729.5001631960004,left,1.5596762700006366,None,,,,,,,,,,,547145,001,2024-12-01_16h27.10.843,Test,2024.2.1,60.073045219003646,2024-12-01 16h27.25.383647 +0100,
9,150,30,18,None,59,59,0,False,,,,right,2.0073163409979315,None,,,,,,,,,,,,,0,59,59,59,729.5158776450007,,,,,,,,,,,,,,,,,,,,,,,,,,,,,,,,,,,,,,,,,,,,,,,,,,,,,,,,,,,,,,,,,,,,,,,,,729.5059868110002,729.5158776450007,730.5165388900023,731.5159506939999,731.5159506939999,731.5159506939999,733.5339435660026,right,2.0073163409979315,None,,,,,,,,,,,547145,001,2024-12-01_16h27.10.843,Test,2024.2.1,60.073045219003646,2024-12-01 16h27.25.383647 +0100,
5,150,0,4,None,60,60,0,False,,,,right,1.3892398029965989,None,,,,,,,,,,,,,0,60,60,60,733.548947932999,,,,,,,,,,,,,,,,,,,,,,,,,,,,,,,,,,,,,,,,,,,,,,,,,,,,,,,,,,,,,,,,,,,,,,,,,733.5398691240007,733.548947932999,734.5492813609999,735.5499374419996,735.5499374419996,735.5499374419996,736.9513385360005,right,1.3892398029965989,None,,,,,,,,,,,547145,001,2024-12-01_16h27.10.843,Test,2024.2.1,60.073045219003646,2024-12-01 16h27.25.383647 +0100,
6,150,30,20,None,61,61,0,False,,,,left,1.3691470119993028,None,,,,,,,,,,,,,0,61,61,61,736.9663055410019,,,,,,,,,,,,,,,,,,,,,,,,,,,,,,,,,,,,,,,,,,,,,,,,,,,,,,,,,,,,,,,,,,,,,,,,,736.9566488029996,736.9663055410019,737.9664719720022,738.9663427800006,738.9663427800006,738.9663427800006,740.3525987620014,left,1.3691470119993028,None,,,,,,,,,,,547145,001,2024-12-01_16h27.10.843,Test,2024.2.1,60.073045219003646,2024-12-01 16h27.25.383647 +0100,
58,150,120,16,None,62,62,0,True,,,,left,1.2765467350000108,None,,,,,,,,,,,,,0,62,62,62,740.3692156390025,,,,,,,,,,,,,,,,,,,,,,,,,,,,,,,,,,,,,,,,,,,,,,,,,,,,,,,,,,,,,,,,,,,,,,,,,740.3601667420007,740.3692156390025,741.3836061940019,742.3665322330016,742.3665322330016,742.3665322330016,743.6510145360007,left,1.2765467350000108,None,,,,,,,,,,,547145,001,2024-12-01_16h27.10.843,Test,2024.2.1,60.073045219003646,2024-12-01 16h27.25.383647 +0100,
57,150,120,29,None,63,63,0,True,,,,right,1.7178071740017913,None,,,,,,,,,,,,,0,63,63,63,743.6666195329999,,,,,,,,,,,,,,,,,,,,,,,,,,,,,,,,,,,,,,,,,,,,,,,,,,,,,,,,,,,,,,,,,,,,,,,,,743.6569420289998,743.6666195329999,744.6667516080015,745.6507005929998,745.6507005929998,745.6507005929998,747.3857094279992,right,1.7178071740017913,None,,,,,,,,,,,547145,001,2024-12-01_16h27.10.843,Test,2024.2.1,60.073045219003646,2024-12-01 16h27.25.383647 +0100,
31,150,180,10,None,64,64,0,False,,,,right,1.7681760799969197,None,,,,,,,,,,,,,0,64,64,64,747.4010629010008,,,,,,,,,,,,,,,,,,,,,,,,,,,,,,,,,,,,,,,,,,,,,,,,,,,,,,,,,,,,,,,,,,,,,,,,,747.3924031009992,747.4010629010008,748.4007974160013,749.400898898999,749.400898898999,749.400898898999,751.1726799880016,right,1.7681760799969197,None,,,,,,,,,,,547145,001,2024-12-01_16h27.10.843,Test,2024.2.1,60.073045219003646,2024-12-01 16h27.25.383647 +0100,
22,150,120,34,None,65,65,0,False,,,,left,1.8842680170018866,None,,,,,,,,,,,,,0,65,65,65,751.1894814129992,,,,,,,,,,,,,,,,,,,,,,,,,,,,,,,,,,,,,,,,,,,,,,,,,,,,,,,,,,,,,,,,,,,,,,,,,751.1816309800015,751.1894814129992,752.2010143480002,753.1844176240011,753.1844176240011,753.1844176240011,755.0859882760014,left,1.8842680170018866,None,,,,,,,,,,,547145,001,2024-12-01_16h27.10.843,Test,2024.2.1,60.073045219003646,2024-12-01 16h27.25.383647 +0100,
30,150,150,11,None,66,66,0,False,,,,right,1.1219221529972856,None,,,,,,,,,,,,,0,66,66,66,755.1161989819993,,,,,,,,,,,,,,,,,,,,,,,,,,,,,,,,,,,,,,,,,,,,,,,,,,,,,,,,,,,,,,,,,,,,,,,,,755.0926838279993,755.1161989819993,756.1184265570009,757.1013341750004,757.1013341750004,757.1013341750004,758.2439296990015,right,1.1219221529972856,None,,,,,,,,,,,547145,001,2024-12-01_16h27.10.843,Test,2024.2.1,60.073045219003646,2024-12-01 16h27.25.383647 +0100,
53,150,90,30,None,67,67,0,True,,,,right,1.6078803700002027,None,,,,,,,,,,,,,0,67,67,67,758.2633579070025,,,,,,,,,,,,,,,,,,,,,,,,,,,,,,,,,,,,,,,,,,,,,,,,,,,,,,,,,,,,,,,,,,,,,,,,,758.2551671670008,758.2633579070025,759.2682445570026,760.2607834699993,760.2607834699993,760.2607834699993,761.8708234120022,right,1.6078803700002027,None,,,,,,,,,,,547145,001,2024-12-01_16h27.10.843,Test,2024.2.1,60.073045219003646,2024-12-01 16h27.25.383647 +0100,
2,150,0,53,None,68,68,0,False,,,,right,1.4738021289995231,None,,,,,,,,,,,,,0,68,68,68,761.8857422500005,,,,,,,,,,,,,,,,,,,,,,,,,,,,,,,,,,,,,,,,,,,,,,,,,,,,,,,,,,,,,,,,,,,,,,,,,761.8767533400023,761.8857422500005,762.9016424450019,763.8847552900006,763.8847552900006,763.8847552900006,765.3718612260018,right,1.4738021289995231,None,,,,,,,,,,,547145,001,2024-12-01_16h27.10.843,Test,2024.2.1,60.073045219003646,2024-12-01 16h27.25.383647 +0100,
10,150,30,59,None,69,69,0,False,,,,left,1.1607939160021488,None,,,,,,,,,,,,,0,69,69,69,765.3867069860025,,,,,,,,,,,,,,,,,,,,,,,,,,,,,,,,,,,,,,,,,,,,,,,,,,,,,,,,,,,,,,,,,,,,,,,,,765.3778108930019,765.3867069860025,766.4015629080022,767.3850577960002,767.3850577960002,767.3850577960002,768.5529949299998,left,1.1607939160021488,None,,,,,,,,,,,547145,001,2024-12-01_16h27.10.843,Test,2024.2.1,60.073045219003646,2024-12-01 16h27.25.383647 +0100,
,,,,,,,,,,,,,,,,,,,,,,,,,,,,,,,,,,,,,,,,,,,,,,,,,,,,,,,,,,,,,,,,,,,,,,,,,,,,,,,,,,,,,,,,,,,,,,,,,,,,,,,,,,,,,,,,,,,,,768.5531611879996,768.5688358610023,768.5688358610023,772.8695890460003,space,4.287722230001236,None,547145,001,2024-12-01_16h27.10.843,Test,2024.2.1,60.073045219003646,2024-12-01 16h27.25.383647 +0100,
