Trial_Number,Exposure_Duration,Displacement_Angle,Stimulus,Response,thisN,thisTrialN,thisRepN,Is_Distractor,key_resp_3.keys,key_resp_3.rt,key_resp_3.duration,key_resp_7.keys,key_resp_7.rt,key_resp_7.duration,trials.thisRepN,trials.thisTrialN,trials.thisN,trials.thisIndex,trials_2.thisRepN,trials_2.thisTrialN,trials_2.thisN,trials_2.thisIndex,trials_3.thisRepN,trials_3.thisTrialN,trials_3.thisN,trials_3.thisIndex,trials_4.thisRepN,trials_4.thisTrialN,trials_4.thisN,trials_4.thisIndex,thisRow.t,notes,Intro_to_experiment.started,important1_2.started,key_resp_8.started,Intro_to_experiment.stopped,key_resp_8.keys,key_resp_8.rt,key_resp_8.duration,important.started,important1.started,key_resp_4.started,important.stopped,key_resp_4.keys,key_resp_4.rt,key_resp_4.duration,instruction.started,text_7.started,key_resp_9.started,text_7.stopped,instruction.stopped,key_resp_9.keys,key_resp_9.rt,key_resp_9.duration,training_trial.started,cross.started,image.started,aperture.started,cross.stopped,image.stopped,aperture.stopped,training_trial.stopped,New_instruction.started,text.started,key_resp_2.started,New_instruction.stopped,key_resp_2.keys,key_resp_2.rt,key_resp_2.duration,test_trial.started,cross2.started,cross2.stopped,image_2.started,key_resp_3.started,aperture_2.started,test_trial.stopped,trials_2.key_resp_3.keys,trials_2.key_resp_3.rt,trials_2.key_resp_3.duration,start_blok_2.started,key_resp_5.started,text_4.started,start_blok_2.stopped,key_resp_5.keys,key_resp_5.rt,key_resp_5.duration,training_2.started,cross_2.started,image_3.started,aperture_3.started,cross_2.stopped,image_3.stopped,aperture_3.stopped,training_2.stopped,nyeste_instruks.started,text_5.started,key_resp_6.started,nyeste_instruks.stopped,key_resp_6.keys,key_resp_6.rt,key_resp_6.duration,test_2.started,cross2_2.started,cross2_2.stopped,image_4.started,key_resp_7.started,aperture_4.started,test_2.stopped,trials_4.key_resp_7.keys,trials_4.key_resp_7.rt,trials_4.key_resp_7.duration,image_4.stopped,aperture_4.stopped,text_6.started,Instruction1.started,Instruktion.started,key_resp.started,Instruction1.stopped,key_resp.keys,key_resp.rt,key_resp.duration,participant,session,date,expName,psychopyVersion,frameRate,expStart,
,,,,,,,,,,,,,,,,,,,,,,,,,,,,,,,,,0.01586041399423266,0.028786180999304634,0.028786180999304634,36.32110173399997,space,36.27521135000279,None,,,,,,,,,,,,,,,,,,,,,,,,,,,,,,,,,,,,,,,,,,,,,,,,,,,,,,,,,,,,,,,,,,,,,,,,,,,,,,,,,,,616216,001,2024-11-25_11h20.42.804,Test,2024.2.1,60.4467771187384,2024-11-25 11h20.58.402973 +0100,
,,,,,,,,,,,,,,,,,,,,,,,,,,,,,,,,,,,,,,,,36.32117247599672,36.3380169459997,36.3380169459997,55.22517278199666,space,18.884092170999793,None,,,,,,,,,,,,,,,,,,,,,,,,,,,,,,,,,,,,,,,,,,,,,,,,,,,,,,,,,,,,,,,,,,,,,,,,,,,,616216,001,2024-11-25_11h20.42.804,Test,2024.2.1,60.4467771187384,2024-11-25 11h20.58.402973 +0100,
,,,,,,,,,,,,,,,,,,,,,,,,,,,,,,,,,,,,,,,,,,,,,,,55.225223520996224,55.23744978399918,55.23744978399918,56.237589718999516,71.44031174599513,space,16.18941930600704,None,,,,,,,,,,,,,,,,,,,,,,,,,,,,,,,,,,,,,,,,,,,,,,,,,,,,,,,,,,,,,,,,,,,,616216,001,2024-11-25_11h20.42.804,Test,2024.2.1,60.4467771187384,2024-11-25 11h20.58.402973 +0100,
34,150,180,10,None,0,0,0,,,,,,,,0,0,0,33,,,,,,,,,,,,,71.55842682499497,,,,,,,,,,,,,,,,,,,,,,,,71.54787256699638,71.55842682499497,71.65528863299551,71.65528863299551,71.77136499199696,73.36868015099753,73.36868015099753,73.34106677999807,,,,,,,,,,,,,,,,,,,,,,,,,,,,,,,,,,,,,,,,,,,,,,,,,,,,,,,,,,,,616216,001,2024-11-25_11h20.42.804,Test,2024.2.1,60.4467771187384,2024-11-25 11h20.58.402973 +0100,
22,150,120,7,None,1,1,0,,,,,,,,0,1,1,21,,,,,,,,,,,,,73.36868015099753,,,,,,,,,,,,,,,,,,,,,,,,73.36148181899625,73.36868015099753,73.55515267999726,73.55515267999726,73.5720459639997,75.25666175299557,75.25666175299557,75.2392430559994,,,,,,,,,,,,,,,,,,,,,,,,,,,,,,,,,,,,,,,,,,,,,,,,,,,,,,,,,,,,616216,001,2024-11-25_11h20.42.804,Test,2024.2.1,60.4467771187384,2024-11-25 11h20.58.402973 +0100,
33,150,180,63,None,2,2,0,,,,,,,,0,2,2,32,,,,,,,,,,,,,75.25666175299557,,,,,,,,,,,,,,,,,,,,,,,,75.2475191689955,75.25666175299557,75.45526323899685,75.45526323899685,75.47197450999374,77.15549426699727,77.15549426699727,77.13889927199489,,,,,,,,,,,,,,,,,,,,,,,,,,,,,,,,,,,,,,,,,,,,,,,,,,,,,,,,,,,,616216,001,2024-11-25_11h20.42.804,Test,2024.2.1,60.4467771187384,2024-11-25 11h20.58.402973 +0100,
16,150,90,28,None,3,3,0,,,,,,,,0,3,3,15,,,,,,,,,,,,,77.15549426699727,,,,,,,,,,,,,,,,,,,,,,,,77.14423777899356,77.15549426699727,77.35534840899345,77.35534840899345,77.35534840899345,79.05548178899335,79.05548178899335,79.04023125399544,,,,,,,,,,,,,,,,,,,,,,,,,,,,,,,,,,,,,,,,,,,,,,,,,,,,,,,,,,,,616216,001,2024-11-25_11h20.42.804,Test,2024.2.1,60.4467771187384,2024-11-25 11h20.58.402973 +0100,
10,150,30,62,None,4,4,0,,,,,,,,0,4,4,9,,,,,,,,,,,,,79.05548178899335,,,,,,,,,,,,,,,,,,,,,,,,79.04654101199412,79.05548178899335,79.23920470499434,79.23920470499434,79.25631254499604,80.94399966999481,80.94399966999481,80.92307860199799,,,,,,,,,,,,,,,,,,,,,,,,,,,,,,,,,,,,,,,,,,,,,,,,,,,,,,,,,,,,616216,001,2024-11-25_11h20.42.804,Test,2024.2.1,60.4467771187384,2024-11-25 11h20.58.402973 +0100,
21,150,120,19,None,5,5,0,,,,,,,,0,5,5,20,,,,,,,,,,,,,80.94399966999481,,,,,,,,,,,,,,,,,,,,,,,,80.93741893499828,80.95631558799505,81.13922075199662,81.13922075199662,81.1555805619937,82.84564396299538,82.84564396299538,82.82327358399925,,,,,,,,,,,,,,,,,,,,,,,,,,,,,,,,,,,,,,,,,,,,,,,,,,,,,,,,,,,,616216,001,2024-11-25_11h20.42.804,Test,2024.2.1,60.4467771187384,2024-11-25 11h20.58.402973 +0100,
32,150,180,5,None,6,6,0,,,,,,,,0,6,6,31,,,,,,,,,,,,,82.84564396299538,,,,,,,,,,,,,,,,,,,,,,,,82.83906016199762,82.855824896993,83.0393141369932,83.0393141369932,83.05595073199947,84.73936635199789,84.73936635199789,84.72307753299538,,,,,,,,,,,,,,,,,,,,,,,,,,,,,,,,,,,,,,,,,,,,,,,,,,,,,,,,,,,,616216,001,2024-11-25_11h20.42.804,Test,2024.2.1,60.4467771187384,2024-11-25 11h20.58.402973 +0100,
6,150,30,44,None,7,7,0,,,,,,,,0,7,7,5,,,,,,,,,,,,,84.73936635199789,,,,,,,,,,,,,,,,,,,,,,,,84.72845785299432,84.75651536699297,84.95540745699691,84.95540745699691,84.95540745699691,86.65650852999534,86.65650852999534,86.64000852299796,,,,,,,,,,,,,,,,,,,,,,,,,,,,,,,,,,,,,,,,,,,,,,,,,,,,,,,,,,,,616216,001,2024-11-25_11h20.42.804,Test,2024.2.1,60.4467771187384,2024-11-25 11h20.58.402973 +0100,
4,150,0,48,None,8,8,0,,,,,,,,0,8,8,3,,,,,,,,,,,,,86.65650852999534,,,,,,,,,,,,,,,,,,,,,,,,86.64561265499651,86.65650852999534,86.8394203459975,86.8394203459975,86.85579630599386,88.53972133799834,88.53972133799834,88.52358683599596,,,,,,,,,,,,,,,,,,,,,,,,,,,,,,,,,,,,,,,,,,,,,,,,,,,,,,,,,,,,616216,001,2024-11-25_11h20.42.804,Test,2024.2.1,60.4467771187384,2024-11-25 11h20.58.402973 +0100,
8,150,30,69,None,9,9,0,,,,,,,,0,9,9,7,,,,,,,,,,,,,88.53972133799834,,,,,,,,,,,,,,,,,,,,,,,,88.52988697299588,88.53972133799834,88.75667016699299,88.75667016699299,88.73992574499425,90.45668363799632,90.45668363799632,90.4408204739957,,,,,,,,,,,,,,,,,,,,,,,,,,,,,,,,,,,,,,,,,,,,,,,,,,,,,,,,,,,,616216,001,2024-11-25_11h20.42.804,Test,2024.2.1,60.4467771187384,2024-11-25 11h20.58.402973 +0100,
26,150,150,29,None,10,10,0,,,,,,,,0,10,10,25,,,,,,,,,,,,,90.45668363799632,,,,,,,,,,,,,,,,,,,,,,,,90.44693105999613,90.45668363799632,90.63988266399974,90.63988266399974,90.65674943899648,92.34086451599433,92.34086451599433,92.32452484599344,,,,,,,,,,,,,,,,,,,,,,,,,,,,,,,,,,,,,,,,,,,,,,,,,,,,,,,,,,,,616216,001,2024-11-25_11h20.42.804,Test,2024.2.1,60.4467771187384,2024-11-25 11h20.58.402973 +0100,
11,150,60,45,None,11,11,0,,,,,,,,0,11,11,10,,,,,,,,,,,,,92.34086451599433,,,,,,,,,,,,,,,,,,,,,,,,92.33234587799961,92.34086451599433,92.54040013899794,92.54040013899794,92.55734775399469,94.23966270899837,94.23966270899837,94.22402883299947,,,,,,,,,,,,,,,,,,,,,,,,,,,,,,,,,,,,,,,,,,,,,,,,,,,,,,,,,,,,616216,001,2024-11-25_11h20.42.804,Test,2024.2.1,60.4467771187384,2024-11-25 11h20.58.402973 +0100,
27,150,150,53,None,12,12,0,,,,,,,,0,12,12,26,,,,,,,,,,,,,94.23966270899837,,,,,,,,,,,,,,,,,,,,,,,,94.22995363899827,94.23966270899837,94.43987765099882,94.43987765099882,94.43987765099882,96.14087838399428,96.14087838399428,96.1250172479995,,,,,,,,,,,,,,,,,,,,,,,,,,,,,,,,,,,,,,,,,,,,,,,,,,,,,,,,,,,,616216,001,2024-11-25_11h20.42.804,Test,2024.2.1,60.4467771187384,2024-11-25 11h20.58.402973 +0100,
13,150,60,21,None,13,13,0,,,,,,,,0,13,13,12,,,,,,,,,,,,,96.14087838399428,,,,,,,,,,,,,,,,,,,,,,,,96.132226265996,96.14087838399428,96.34156920699752,96.34156920699752,96.34156920699752,98.05668208899442,98.05668208899442,98.04115988799458,,,,,,,,,,,,,,,,,,,,,,,,,,,,,,,,,,,,,,,,,,,,,,,,,,,,,,,,,,,,616216,001,2024-11-25_11h20.42.804,Test,2024.2.1,60.4467771187384,2024-11-25 11h20.58.402973 +0100,
25,150,120,25,None,14,14,0,,,,,,,,0,14,14,24,,,,,,,,,,,,,98.05668208899442,,,,,,,,,,,,,,,,,,,,,,,,98.04712941799517,98.05668208899442,98.24041282699909,98.24041282699909,98.25768353999592,99.94088626399753,99.94088626399753,99.92505000699748,,,,,,,,,,,,,,,,,,,,,,,,,,,,,,,,,,,,,,,,,,,,,,,,,,,,,,,,,,,,616216,001,2024-11-25_11h20.42.804,Test,2024.2.1,60.4467771187384,2024-11-25 11h20.58.402973 +0100,
15,150,60,18,None,15,15,0,,,,,,,,0,15,15,14,,,,,,,,,,,,,99.94088626399753,,,,,,,,,,,,,,,,,,,,,,,,99.93254501999763,99.94088626399753,100.14047159399342,100.14047159399342,100.14047159399342,101.84054400699824,101.84054400699824,101.82443466999393,,,,,,,,,,,,,,,,,,,,,,,,,,,,,,,,,,,,,,,,,,,,,,,,,,,,,,,,,,,,616216,001,2024-11-25_11h20.42.804,Test,2024.2.1,60.4467771187384,2024-11-25 11h20.58.402973 +0100,
19,150,90,50,None,16,16,0,,,,,,,,0,16,16,18,,,,,,,,,,,,,101.84054400699824,,,,,,,,,,,,,,,,,,,,,,,,101.83041699399473,101.84054400699824,102.03999863299396,102.03999863299396,102.03999863299396,103.74081204299728,103.74081204299728,103.72455919499771,,,,,,,,,,,,,,,,,,,,,,,,,,,,,,,,,,,,,,,,,,,,,,,,,,,,,,,,,,,,616216,001,2024-11-25_11h20.42.804,Test,2024.2.1,60.4467771187384,2024-11-25 11h20.58.402973 +0100,
31,150,180,35,None,17,17,0,,,,,,,,0,17,17,30,,,,,,,,,,,,,103.74081204299728,,,,,,,,,,,,,,,,,,,,,,,,103.72997082099755,103.74081204299728,103.94057302999863,103.94057302999863,103.94057302999863,105.64090087299701,105.64090087299701,105.62548994999815,,,,,,,,,,,,,,,,,,,,,,,,,,,,,,,,,,,,,,,,,,,,,,,,,,,,,,,,,,,,616216,001,2024-11-25_11h20.42.804,Test,2024.2.1,60.4467771187384,2024-11-25 11h20.58.402973 +0100,
28,150,150,9,None,18,18,0,,,,,,,,0,18,18,27,,,,,,,,,,,,,105.64090087299701,,,,,,,,,,,,,,,,,,,,,,,,105.63258373299323,105.64090087299701,105.84084722999978,105.84084722999978,105.84084722999978,107.54379589999735,107.54379589999735,107.5263766509961,,,,,,,,,,,,,,,,,,,,,,,,,,,,,,,,,,,,,,,,,,,,,,,,,,,,,,,,,,,,616216,001,2024-11-25_11h20.42.804,Test,2024.2.1,60.4467771187384,2024-11-25 11h20.58.402973 +0100,
20,150,90,13,None,19,19,0,,,,,,,,0,19,19,19,,,,,,,,,,,,,107.54379589999735,,,,,,,,,,,,,,,,,,,,,,,,107.53566560699983,107.54379589999735,107.7415498459959,107.7415498459959,107.75752171399654,109.44124153299344,109.44124153299344,109.4251043829936,,,,,,,,,,,,,,,,,,,,,,,,,,,,,,,,,,,,,,,,,,,,,,,,,,,,,,,,,,,,616216,001,2024-11-25_11h20.42.804,Test,2024.2.1,60.4467771187384,2024-11-25 11h20.58.402973 +0100,
24,150,120,24,None,20,20,0,,,,,,,,0,20,20,23,,,,,,,,,,,,,109.44124153299344,,,,,,,,,,,,,,,,,,,,,,,,109.43178416399314,109.44124153299344,109.64096568399691,109.64096568399691,109.64096568399691,111.34150638099527,111.34150638099527,111.32564520599408,,,,,,,,,,,,,,,,,,,,,,,,,,,,,,,,,,,,,,,,,,,,,,,,,,,,,,,,,,,,616216,001,2024-11-25_11h20.42.804,Test,2024.2.1,60.4467771187384,2024-11-25 11h20.58.402973 +0100,
35,150,180,16,None,21,21,0,,,,,,,,0,21,21,34,,,,,,,,,,,,,111.34150638099527,,,,,,,,,,,,,,,,,,,,,,,,111.33137674399768,111.34150638099527,111.54168206099712,111.54168206099712,111.54168206099712,113.24105457199767,113.24105457199767,113.22603704699577,,,,,,,,,,,,,,,,,,,,,,,,,,,,,,,,,,,,,,,,,,,,,,,,,,,,,,,,,,,,616216,001,2024-11-25_11h20.42.804,Test,2024.2.1,60.4467771187384,2024-11-25 11h20.58.402973 +0100,
9,150,30,15,None,22,22,0,,,,,,,,0,22,22,8,,,,,,,,,,,,,113.24105457199767,,,,,,,,,,,,,,,,,,,,,,,,113.23218095599441,113.24105457199767,113.44221077799739,113.44221077799739,113.44221077799739,115.14162138899701,115.14162138899701,115.12578987199959,,,,,,,,,,,,,,,,,,,,,,,,,,,,,,,,,,,,,,,,,,,,,,,,,,,,,,,,,,,,616216,001,2024-11-25_11h20.42.804,Test,2024.2.1,60.4467771187384,2024-11-25 11h20.58.402973 +0100,
12,150,60,20,None,23,23,0,,,,,,,,0,23,23,11,,,,,,,,,,,,,115.14162138899701,,,,,,,,,,,,,,,,,,,,,,,,115.13178495299508,115.14162138899701,115.34146312699886,115.34146312699886,115.34146312699886,117.04134032699949,117.04134032699949,117.02548143899912,,,,,,,,,,,,,,,,,,,,,,,,,,,,,,,,,,,,,,,,,,,,,,,,,,,,,,,,,,,,616216,001,2024-11-25_11h20.42.804,Test,2024.2.1,60.4467771187384,2024-11-25 11h20.58.402973 +0100,
2,150,0,1,None,24,24,0,,,,,,,,0,24,24,1,,,,,,,,,,,,,117.04134032699949,,,,,,,,,,,,,,,,,,,,,,,,117.03085748000012,117.04134032699949,117.24248005299887,117.24248005299887,117.24248005299887,118.94175498999539,118.94175498999539,118.92587233299855,,,,,,,,,,,,,,,,,,,,,,,,,,,,,,,,,,,,,,,,,,,,,,,,,,,,,,,,,,,,616216,001,2024-11-25_11h20.42.804,Test,2024.2.1,60.4467771187384,2024-11-25 11h20.58.402973 +0100,
23,150,120,4,None,25,25,0,,,,,,,,0,25,25,22,,,,,,,,,,,,,118.94175498999539,,,,,,,,,,,,,,,,,,,,,,,,118.93201316199702,118.94175498999539,119.14175928499753,119.14175928499753,119.14175928499753,120.8412900359981,120.8412900359981,120.82524709599966,,,,,,,,,,,,,,,,,,,,,,,,,,,,,,,,,,,,,,,,,,,,,,,,,,,,,,,,,,,,616216,001,2024-11-25_11h20.42.804,Test,2024.2.1,60.4467771187384,2024-11-25 11h20.58.402973 +0100,
29,150,150,36,None,26,26,0,,,,,,,,0,26,26,28,,,,,,,,,,,,,120.8412900359981,,,,,,,,,,,,,,,,,,,,,,,,120.83045591299742,120.8412900359981,121.04125811499398,121.04125811499398,121.04125811499398,122.74225510999531,122.74225510999531,122.72572027299611,,,,,,,,,,,,,,,,,,,,,,,,,,,,,,,,,,,,,,,,,,,,,,,,,,,,,,,,,,,,616216,001,2024-11-25_11h20.42.804,Test,2024.2.1,60.4467771187384,2024-11-25 11h20.58.402973 +0100,
7,150,30,56,None,27,27,0,,,,,,,,0,27,27,6,,,,,,,,,,,,,122.74225510999531,,,,,,,,,,,,,,,,,,,,,,,,122.73002534499392,122.74225510999531,122.94186253599764,122.94186253599764,122.94186253599764,124.64237591099663,124.64237591099663,124.62651583299885,,,,,,,,,,,,,,,,,,,,,,,,,,,,,,,,,,,,,,,,,,,,,,,,,,,,,,,,,,,,616216,001,2024-11-25_11h20.42.804,Test,2024.2.1,60.4467771187384,2024-11-25 11h20.58.402973 +0100,
1,150,0,37,None,28,28,0,,,,,,,,0,28,28,0,,,,,,,,,,,,,124.64237591099663,,,,,,,,,,,,,,,,,,,,,,,,124.63346106999961,124.64237591099663,124.842512575,124.842512575,124.842512575,126.54562118299509,126.54562118299509,126.52749884899822,,,,,,,,,,,,,,,,,,,,,,,,,,,,,,,,,,,,,,,,,,,,,,,,,,,,,,,,,,,,616216,001,2024-11-25_11h20.42.804,Test,2024.2.1,60.4467771187384,2024-11-25 11h20.58.402973 +0100,
5,150,0,55,None,29,29,0,,,,,,,,0,29,29,4,,,,,,,,,,,,,126.54562118299509,,,,,,,,,,,,,,,,,,,,,,,,126.53738668599544,126.54562118299509,126.74245196599804,126.74245196599804,126.75908299299772,128.44194056299602,128.44194056299602,128.42629554099403,,,,,,,,,,,,,,,,,,,,,,,,,,,,,,,,,,,,,,,,,,,,,,,,,,,,,,,,,,,,616216,001,2024-11-25_11h20.42.804,Test,2024.2.1,60.4467771187384,2024-11-25 11h20.58.402973 +0100,
14,150,60,17,None,30,30,0,,,,,,,,0,30,30,13,,,,,,,,,,,,,128.44194056299602,,,,,,,,,,,,,,,,,,,,,,,,128.43188314599684,128.44194056299602,128.64275917799387,128.64275917799387,128.64275917799387,130.34287795399723,130.34287795399723,130.32652329199482,,,,,,,,,,,,,,,,,,,,,,,,,,,,,,,,,,,,,,,,,,,,,,,,,,,,,,,,,,,,616216,001,2024-11-25_11h20.42.804,Test,2024.2.1,60.4467771187384,2024-11-25 11h20.58.402973 +0100,
3,150,0,43,None,31,31,0,,,,,,,,0,31,31,2,,,,,,,,,,,,,130.34287795399723,,,,,,,,,,,,,,,,,,,,,,,,130.33260823099408,130.34287795399723,130.54272296399722,130.54272296399722,130.54272296399722,,,132.26438242599397,,,,,,,,,,,,,,,,,,,,,,,,,,,,,,,,,,,,,,,,,,,,,,,,,,,,,,,,,,,,616216,001,2024-11-25_11h20.42.804,Test,2024.2.1,60.4467771187384,2024-11-25 11h20.58.402973 +0100,
17,150,90,51,None,32,32,0,,,,,,,,0,32,32,16,,,,,,,,,,,,,132.280600510996,,,,,,,,,,,,,,,,,,,,,,,,132.2700123329996,132.280600510996,132.4424339729958,132.4424339729958,132.49244130099396,134.14298150699324,134.14298150699324,134.12722486399434,,,,,,,,,,,,,,,,,,,,,,,,,,,,,,,,,,,,,,,,,,,,,,,,,,,,,,,,,,,,616216,001,2024-11-25_11h20.42.804,Test,2024.2.1,60.4467771187384,2024-11-25 11h20.58.402973 +0100,
30,150,150,42,None,33,33,0,,,,,,,,0,33,33,29,,,,,,,,,,,,,134.14298150699324,,,,,,,,,,,,,,,,,,,,,,,,134.13395378299901,134.14298150699324,134.3428217019973,134.3428217019973,134.3428217019973,136.05047330399975,136.05047330399975,136.0326641779975,,,,,,,,,,,,,,,,,,,,,,,,,,,,,,,,,,,,,,,,,,,,,,,,,,,,,,,,,,,,616216,001,2024-11-25_11h20.42.804,Test,2024.2.1,60.4467771187384,2024-11-25 11h20.58.402973 +0100,
18,150,90,60,None,34,34,0,,,,,,,,0,34,34,17,,,,,,,,,,,,,136.05047330399975,,,,,,,,,,,,,,,,,,,,,,,,136.04142430799402,136.05047330399975,136.2434539599999,136.2434539599999,136.26015109299624,137.94336050699349,137.94336050699349,137.9275893199956,,,,,,,,,,,,,,,,,,,,,,,,,,,,,,,,,,,,,,,,,,,,,,,,,,,,,,,,,,,,616216,001,2024-11-25_11h20.42.804,Test,2024.2.1,60.4467771187384,2024-11-25 11h20.58.402973 +0100,
,,,,,,,,,,,,,,,,,,,,,,,,,,,,,,,,,,,,,,,,,,,,,,,,,,,,,,,,,,,,,,,137.92776426199998,137.94336050699349,137.94336050699349,155.42995324499498,space,17.482662000002165,None,,,,,,,,,,,,,,,,,,,,,,,,,,,,,,,,,,,,,,,,,,,,,,,,,,,,,616216,001,2024-11-25_11h20.42.804,Test,2024.2.1,60.4467771187384,2024-11-25 11h20.58.402973 +0100,
48,150,60,61,None,0,0,0,True,left,1.5184836380067281,None,,,,,,,,0,0,0,0,,,,,,,,,155.4608442519966,,,,,,,,,,,,,,,,,,,,,,,,,,,,,,,,,,,,,,,155.451516325993,155.4608442519966,156.46128090899583,157.44469130799553,157.44469130799553,157.44469130799553,158.97976869099512,left,1.5184836380067281,None,,,,,,,,,,,,,,,,,,,,,,,,,,,,,,,,,,,,,,,,,,,616216,001,2024-11-25_11h20.42.804,Test,2024.2.1,60.4467771187384,2024-11-25 11h20.58.402973 +0100,
32,150,180,5,None,1,1,0,False,right,1.002208793994214,None,,,,,,,,0,1,1,1,,,,,,,,,159.0301816699939,,,,,,,,,,,,,,,,,,,,,,,,,,,,,,,,,,,,,,,158.98595564199786,159.0301816699939,160.05150529099774,160.97926077199372,160.97926077199372,160.97926077199372,161.99700313799985,right,1.002208793994214,None,,,,,,,,,,,,,,,,,,,,,,,,,,,,,,,,,,,,,,,,,,,616216,001,2024-11-25_11h20.42.804,Test,2024.2.1,60.4467771187384,2024-11-25 11h20.58.402973 +0100,
27,150,150,53,None,2,2,0,False,right,0.8890063510043547,None,,,,,,,,0,2,2,2,,,,,,,,,162.0122467389956,,,,,,,,,,,,,,,,,,,,,,,,,,,,,,,,,,,,,,,162.0023366299938,162.0122467389956,163.01186070399854,164.01126407399715,164.01126407399715,164.01126407399715,164.9128306059938,right,0.8890063510043547,None,,,,,,,,,,,,,,,,,,,,,,,,,,,,,,,,,,,,,,,,,,,616216,001,2024-11-25_11h20.42.804,Test,2024.2.1,60.4467771187384,2024-11-25 11h20.58.402973 +0100,
1,150,0,37,None,3,3,0,False,right,1.0056618140006321,None,,,,,,,,0,3,3,3,,,,,,,,,164.92804603399418,,,,,,,,,,,,,,,,,,,,,,,,,,,,,,,,,,,,,,,164.918863218998,164.92804603399418,165.9284692939982,166.92775308099954,166.92775308099954,166.92775308099954,167.94645865899656,right,1.0056618140006321,None,,,,,,,,,,,,,,,,,,,,,,,,,,,,,,,,,,,,,,,,,,,616216,001,2024-11-25_11h20.42.804,Test,2024.2.1,60.4467771187384,2024-11-25 11h20.58.402973 +0100,
46,150,60,11,None,4,4,0,True,left,1.2184914440003922,None,,,,,,,,0,4,4,4,,,,,,,,,167.96170782599802,,,,,,,,,,,,,,,,,,,,,,,,,,,,,,,,,,,,,,,167.95192483799474,167.96170782599802,168.96277855599328,169.94577911199303,169.94577911199303,169.94577911199303,171.18032160099392,left,1.2184914440003922,None,,,,,,,,,,,,,,,,,,,,,,,,,,,,,,,,,,,,,,,,,,,616216,001,2024-11-25_11h20.42.804,Test,2024.2.1,60.4467771187384,2024-11-25 11h20.58.402973 +0100,
56,150,120,49,None,5,5,0,True,left,1.4449499389957055,None,,,,,,,,0,5,5,5,,,,,,,,,171.19509266499517,,,,,,,,,,,,,,,,,,,,,,,,,,,,,,,,,,,,,,,171.18612631999713,171.19509266499517,172.1954802179971,173.19662184099434,173.19662184099434,173.19662184099434,174.64746718499373,left,1.4449499389957055,None,,,,,,,,,,,,,,,,,,,,,,,,,,,,,,,,,,,,,,,,,,,616216,001,2024-11-25_11h20.42.804,Test,2024.2.1,60.4467771187384,2024-11-25 11h20.58.402973 +0100,
14,150,60,17,None,6,6,0,False,right,0.7839676229996257,None,,,,,,,,0,6,6,6,,,,,,,,,174.66286722299992,,,,,,,,,,,,,,,,,,,,,,,,,,,,,,,,,,,,,,,174.6527255589972,174.66286722299992,175.6631468409978,176.6470862379938,176.6470862379938,176.6470862379938,177.44706097399467,right,0.7839676229996257,None,,,,,,,,,,,,,,,,,,,,,,,,,,,,,,,,,,,,,,,,,,,616216,001,2024-11-25_11h20.42.804,Test,2024.2.1,60.4467771187384,2024-11-25 11h20.58.402973 +0100,
6,150,30,44,None,7,7,0,False,left,0.983499264002603,None,,,,,,,,0,7,7,7,,,,,,,,,177.46306924099918,,,,,,,,,,,,,,,,,,,,,,,,,,,,,,,,,,,,,,,177.4533117989995,177.46306924099918,178.4628682199982,179.4469454229984,179.4469454229984,179.4469454229984,180.44720524799777,left,0.983499264002603,None,,,,,,,,,,,,,,,,,,,,,,,,,,,,,,,,,,,,,,,,,,,616216,001,2024-11-25_11h20.42.804,Test,2024.2.1,60.4467771187384,2024-11-25 11h20.58.402973 +0100,
8,150,30,69,None,8,8,0,False,right,1.5195263030036585,None,,,,,,,,0,8,8,8,,,,,,,,,180.4624657549939,,,,,,,,,,,,,,,,,,,,,,,,,,,,,,,,,,,,,,,180.4528228449999,180.4624657549939,181.46375443999568,182.44705472799978,182.44705472799978,182.44705472799978,183.9812611189991,right,1.5195263030036585,None,,,,,,,,,,,,,,,,,,,,,,,,,,,,,,,,,,,,,,,,,,,616216,001,2024-11-25_11h20.42.804,Test,2024.2.1,60.4467771187384,2024-11-25 11h20.58.402973 +0100,
20,150,90,13,None,9,9,0,False,right,1.0947405590050039,None,,,,,,,,0,9,9,9,,,,,,,,,183.99632863999432,,,,,,,,,,,,,,,,,,,,,,,,,,,,,,,,,,,,,,,183.9871818899992,183.99632863999432,184.99620508599764,185.99688647999574,185.99688647999574,185.99688647999574,187.09914843699516,right,1.0947405590050039,None,,,,,,,,,,,,,,,,,,,,,,,,,,,,,,,,,,,,,,,,,,,616216,001,2024-11-25_11h20.42.804,Test,2024.2.1,60.4467771187384,2024-11-25 11h20.58.402973 +0100,
52,150,90,68,None,10,10,0,True,left,1.6638757580003585,None,,,,,,,,0,10,10,10,,,,,,,,,187.11669657499442,,,,,,,,,,,,,,,,,,,,,,,,,,,,,,,,,,,,,,,187.10721862099308,187.11669657499442,188.1300792519978,189.11329188499803,189.11329188499803,189.11329188499803,190.7821369499943,left,1.6638757580003585,None,,,,,,,,,,,,,,,,,,,,,,,,,,,,,,,,,,,,,,,,,,,616216,001,2024-11-25_11h20.42.804,Test,2024.2.1,60.4467771187384,2024-11-25 11h20.58.402973 +0100,
61,150,150,52,None,11,11,0,True,left,1.0734617649941356,None,,,,,,,,0,11,11,11,,,,,,,,,190.79797260399937,,,,,,,,,,,,,,,,,,,,,,,,,,,,,,,,,,,,,,,190.78942873999767,190.79797260399937,191.79713897999318,192.79691047699453,192.79691047699453,192.79691047699453,193.8819789439949,left,1.0734617649941356,None,,,,,,,,,,,,,,,,,,,,,,,,,,,,,,,,,,,,,,,,,,,616216,001,2024-11-25_11h20.42.804,Test,2024.2.1,60.4467771187384,2024-11-25 11h20.58.402973 +0100,
40,150,0,32,None,12,12,0,True,left,0.9043116079992615,None,,,,,,,,0,12,12,12,,,,,,,,,193.8975159709953,,,,,,,,,,,,,,,,,,,,,,,,,,,,,,,,,,,,,,,193.88787424600014,193.8975159709953,194.896963673993,195.8966922299951,195.8966922299951,195.8966922299951,196.81576319799933,left,0.9043116079992615,None,,,,,,,,,,,,,,,,,,,,,,,,,,,,,,,,,,,,,,,,,,,616216,001,2024-11-25_11h20.42.804,Test,2024.2.1,60.4467771187384,2024-11-25 11h20.58.402973 +0100,
38,150,0,67,None,13,13,0,True,left,0.7740938670031028,None,,,,,,,,0,13,13,13,,,,,,,,,196.83045176499581,,,,,,,,,,,,,,,,,,,,,,,,,,,,,,,,,,,,,,,196.82139669999742,196.83045176499581,197.83056128699536,198.8302717849947,198.8302717849947,198.8302717849947,199.61502531999577,left,0.7740938670031028,None,,,,,,,,,,,,,,,,,,,,,,,,,,,,,,,,,,,,,,,,,,,616216,001,2024-11-25_11h20.42.804,Test,2024.2.1,60.4467771187384,2024-11-25 11h20.58.402973 +0100,
45,150,30,39,None,14,14,0,True,left,0.7855479580030078,None,,,,,,,,0,14,14,14,,,,,,,,,199.63026436399377,,,,,,,,,,,,,,,,,,,,,,,,,,,,,,,,,,,,,,,199.62107844599814,199.63026436399377,200.6307091589988,201.61400925399357,201.61400925399357,201.61400925399357,202.41579149099562,left,0.7855479580030078,None,,,,,,,,,,,,,,,,,,,,,,,,,,,,,,,,,,,,,,,,,,,616216,001,2024-11-25_11h20.42.804,Test,2024.2.1,60.4467771187384,2024-11-25 11h20.58.402973 +0100,
53,150,90,30,None,15,15,0,True,left,0.8002347510046093,None,,,,,,,,0,15,15,15,,,,,,,,,202.43083855499572,,,,,,,,,,,,,,,,,,,,,,,,,,,,,,,,,,,,,,,202.42129251299775,202.43083855499572,203.43120111699682,204.4309367589958,204.4309367589958,204.4309367589958,205.23349863399926,left,0.8002347510046093,None,,,,,,,,,,,,,,,,,,,,,,,,,,,,,,,,,,,,,,,,,,,616216,001,2024-11-25_11h20.42.804,Test,2024.2.1,60.4467771187384,2024-11-25 11h20.58.402973 +0100,
24,150,120,24,None,16,16,0,False,left,0.6763579260004917,None,,,,,,,,0,16,16,16,,,,,,,,,205.24825263499952,,,,,,,,,,,,,,,,,,,,,,,,,,,,,,,,,,,,,,,205.23843757199938,205.24825263499952,206.24758267599827,207.2492103889963,207.2492103889963,207.2492103889963,207.9328291549973,left,0.6763579260004917,None,,,,,,,,,,,,,,,,,,,,,,,,,,,,,,,,,,,,,,,,,,,616216,001,2024-11-25_11h20.42.804,Test,2024.2.1,60.4467771187384,2024-11-25 11h20.58.402973 +0100,
54,150,90,46,None,17,17,0,True,left,0.7779773240035865,None,,,,,,,,0,17,17,17,,,,,,,,,207.9486662759955,,,,,,,,,,,,,,,,,,,,,,,,,,,,,,,,,,,,,,,207.93967688499833,207.9486662759955,208.96477308999602,209.94843559199944,209.94843559199944,209.94843559199944,210.73714119199576,left,0.7779773240035865,None,,,,,,,,,,,,,,,,,,,,,,,,,,,,,,,,,,,,,,,,,,,616216,001,2024-11-25_11h20.42.804,Test,2024.2.1,60.4467771187384,2024-11-25 11h20.58.402973 +0100,
3,150,0,43,None,18,18,0,False,right,0.9066195569976117,None,,,,,,,,0,18,18,18,,,,,,,,,210.75326027999836,,,,,,,,,,,,,,,,,,,,,,,,,,,,,,,,,,,,,,,210.74511557899677,210.75326027999836,211.76468763999583,212.74779890299396,212.74779890299396,212.74779890299396,213.66771518999303,right,0.9066195569976117,None,,,,,,,,,,,,,,,,,,,,,,,,,,,,,,,,,,,,,,,,,,,616216,001,2024-11-25_11h20.42.804,Test,2024.2.1,60.4467771187384,2024-11-25 11h20.58.402973 +0100,
17,150,90,51,None,19,19,0,False,right,0.8965592340027797,None,,,,,,,,0,19,19,19,,,,,,,,,213.68619358599972,,,,,,,,,,,,,,,,,,,,,,,,,,,,,,,,,,,,,,,213.67449761099851,213.68619358599972,214.69846503599547,215.6827690659993,215.6827690659993,215.6827690659993,216.58550869299506,right,0.8965592340027797,None,,,,,,,,,,,,,,,,,,,,,,,,,,,,,,,,,,,,,,,,,,,616216,001,2024-11-25_11h20.42.804,Test,2024.2.1,60.4467771187384,2024-11-25 11h20.58.402973 +0100,
42,150,30,34,None,20,20,0,True,left,0.7758603689944721,None,,,,,,,,0,20,20,20,,,,,,,,,216.61377079499653,,,,,,,,,,,,,,,,,,,,,,,,,,,,,,,,,,,,,,,216.6035129879965,216.61377079499653,217.63021363000007,218.60006188199623,218.60006188199623,218.60006188199623,219.3835329259964,left,0.7758603689944721,None,,,,,,,,,,,,,,,,,,,,,,,,,,,,,,,,,,,,,,,,,,,616216,001,2024-11-25_11h20.42.804,Test,2024.2.1,60.4467771187384,2024-11-25 11h20.58.402973 +0100,
23,150,120,4,None,21,21,0,False,right,1.7558772519987542,None,,,,,,,,0,21,21,21,,,,,,,,,219.39991139599442,,,,,,,,,,,,,,,,,,,,,,,,,,,,,,,,,,,,,,,219.39095560199348,219.39991139599442,220.39884587699635,221.39885316899745,221.39885316899745,221.39885316899745,223.16732587399747,right,1.7558772519987542,None,,,,,,,,,,,,,,,,,,,,,,,,,,,,,,,,,,,,,,,,,,,616216,001,2024-11-25_11h20.42.804,Test,2024.2.1,60.4467771187384,2024-11-25 11h20.58.402973 +0100,
28,150,150,9,None,22,22,0,False,left,1.6188384240012965,None,,,,,,,,0,22,22,22,,,,,,,,,223.1820879509978,,,,,,,,,,,,,,,,,,,,,,,,,,,,,,,,,,,,,,,223.1726819589967,223.1820879509978,224.18193118399358,225.18201814999338,225.18201814999338,225.18201814999338,226.817109314994,left,1.6188384240012965,None,,,,,,,,,,,,,,,,,,,,,,,,,,,,,,,,,,,,,,,,,,,616216,001,2024-11-25_11h20.42.804,Test,2024.2.1,60.4467771187384,2024-11-25 11h20.58.402973 +0100,
15,150,60,18,None,23,23,0,False,left,1.5521193129970925,None,,,,,,,,0,23,23,23,,,,,,,,,226.83382982799958,,,,,,,,,,,,,,,,,,,,,,,,,,,,,,,,,,,,,,,226.82497356299427,226.83382982799958,227.84941415099456,228.83262664799986,228.83262664799986,228.83262664799986,230.40151924599922,left,1.5521193129970925,None,,,,,,,,,,,,,,,,,,,,,,,,,,,,,,,,,,,,,,,,,,,616216,001,2024-11-25_11h20.42.804,Test,2024.2.1,60.4467771187384,2024-11-25 11h20.58.402973 +0100,
26,150,150,29,None,24,24,0,False,left,1.1924077830044553,None,,,,,,,,0,24,24,24,,,,,,,,,230.4167199259973,,,,,,,,,,,,,,,,,,,,,,,,,,,,,,,,,,,,,,,230.407288933995,230.4167199259973,231.41615815799742,232.4167971429997,232.4167971429997,232.4167971429997,233.61758607599768,left,1.1924077830044553,None,,,,,,,,,,,,,,,,,,,,,,,,,,,,,,,,,,,,,,,,,,,616216,001,2024-11-25_11h20.42.804,Test,2024.2.1,60.4467771187384,2024-11-25 11h20.58.402973 +0100,
30,150,150,42,None,25,25,0,False,left,0.934690234993468,None,,,,,,,,0,25,25,25,,,,,,,,,233.6326978069992,,,,,,,,,,,,,,,,,,,,,,,,,,,,,,,,,,,,,,,233.62219220399857,233.6326978069992,234.63311563399475,235.63360872899648,235.63360872899648,235.63360872899648,236.58501457300008,left,0.934690234993468,None,,,,,,,,,,,,,,,,,,,,,,,,,,,,,,,,,,,,,,,,,,,616216,001,2024-11-25_11h20.42.804,Test,2024.2.1,60.4467771187384,2024-11-25 11h20.58.402973 +0100,
65,150,150,27,None,26,26,0,True,left,2.40823401799571,None,,,,,,,,0,26,26,26,,,,,,,,,236.60377937899466,,,,,,,,,,,,,,,,,,,,,,,,,,,,,,,,,,,,,,,236.59306089500024,236.60377937899466,237.61658706699382,238.600356955998,238.600356955998,238.600356955998,241.01818045899563,left,2.40823401799571,None,,,,,,,,,,,,,,,,,,,,,,,,,,,,,,,,,,,,,,,,,,,616216,001,2024-11-25_11h20.42.804,Test,2024.2.1,60.4467771187384,2024-11-25 11h20.58.402973 +0100,
59,150,120,8,None,27,27,0,True,left,1.0943074970055022,None,,,,,,,,0,27,27,27,,,,,,,,,241.0373415199938,,,,,,,,,,,,,,,,,,,,,,,,,,,,,,,,,,,,,,,241.02778365499398,241.0373415199938,242.04991669299488,243.01735045499663,243.01735045499663,243.01735045499663,244.11870037599874,left,1.0943074970055022,None,,,,,,,,,,,,,,,,,,,,,,,,,,,,,,,,,,,,,,,,,,,616216,001,2024-11-25_11h20.42.804,Test,2024.2.1,60.4467771187384,2024-11-25 11h20.58.402973 +0100,
55,150,90,23,None,28,28,0,True,left,1.7769999689990073,None,,,,,,,,0,28,28,28,,,,,,,,,244.13436862699746,,,,,,,,,,,,,,,,,,,,,,,,,,,,,,,,,,,,,,,244.12442584199744,244.13436862699746,245.13405216699903,246.13447105499654,246.13447105499654,246.13447105499654,247.91875622599764,left,1.7769999689990073,None,,,,,,,,,,,,,,,,,,,,,,,,,,,,,,,,,,,,,,,,,,,616216,001,2024-11-25_11h20.42.804,Test,2024.2.1,60.4467771187384,2024-11-25 11h20.58.402973 +0100,
64,150,150,38,None,29,29,0,True,left,1.5532340559948352,None,,,,,,,,0,29,29,29,,,,,,,,,247.93642982099846,,,,,,,,,,,,,,,,,,,,,,,,,,,,,,,,,,,,,,,247.92712246500014,247.93642982099846,248.95148852099373,249.91765270999895,249.91765270999895,249.91765270999895,251.4758823009979,left,1.5532340559948352,None,,,,,,,,,,,,,,,,,,,,,,,,,,,,,,,,,,,,,,,,,,,616216,001,2024-11-25_11h20.42.804,Test,2024.2.1,60.4467771187384,2024-11-25 11h20.58.402973 +0100,
13,150,60,21,None,30,30,0,False,left,0.7998674769987701,None,,,,,,,,0,30,30,30,,,,,,,,,251.49065665799571,,,,,,,,,,,,,,,,,,,,,,,,,,,,,,,,,,,,,,,251.48269157599862,251.49065665799571,252.65887990399642,253.48449078599515,253.48449078599515,253.48449078599515,254.28706383699318,left,0.7998674769987701,None,,,,,,,,,,,,,,,,,,,,,,,,,,,,,,,,,,,,,,,,,,,616216,001,2024-11-25_11h20.42.804,Test,2024.2.1,60.4467771187384,2024-11-25 11h20.58.402973 +0100,
66,150,180,2,None,31,31,0,True,left,0.818029217000003,None,,,,,,,,0,31,31,31,,,,,,,,,254.30250609899667,,,,,,,,,,,,,,,,,,,,,,,,,,,,,,,,,,,,,,,254.2932220570001,254.30250609899667,255.30259034099436,256.30158509699686,256.30158509699686,256.30158509699686,257.13643000399315,left,0.818029217000003,None,,,,,,,,,,,,,,,,,,,,,,,,,,,,,,,,,,,,,,,,,,,616216,001,2024-11-25_11h20.42.804,Test,2024.2.1,60.4467771187384,2024-11-25 11h20.58.402973 +0100,
57,150,120,64,None,32,32,0,True,left,0.7301237520005088,None,,,,,,,,0,32,32,32,,,,,,,,,257.15214727099374,,,,,,,,,,,,,,,,,,,,,,,,,,,,,,,,,,,,,,,257.14216592699813,257.15214727099374,258.1518132389974,259.15166111199505,259.15166111199505,259.15166111199505,259.8866202680001,left,0.7301237520005088,None,,,,,,,,,,,,,,,,,,,,,,,,,,,,,,,,,,,,,,,,,,,616216,001,2024-11-25_11h20.42.804,Test,2024.2.1,60.4467771187384,2024-11-25 11h20.58.402973 +0100,
11,150,60,45,None,33,33,0,False,left,0.850042886006122,None,,,,,,,,0,33,33,33,,,,,,,,,259.90100586499466,,,,,,,,,,,,,,,,,,,,,,,,,,,,,,,,,,,,,,,259.8921476079995,259.90100586499466,260.9019836389998,261.88617555199744,261.88617555199744,261.88617555199744,262.7537105819938,left,0.850042886006122,None,,,,,,,,,,,,,,,,,,,,,,,,,,,,,,,,,,,,,,,,,,,616216,001,2024-11-25_11h20.42.804,Test,2024.2.1,60.4467771187384,2024-11-25 11h20.58.402973 +0100,
62,150,150,22,None,34,34,0,True,left,0.7170860260011978,None,,,,,,,,0,34,34,34,,,,,,,,,262.7713962419948,,,,,,,,,,,,,,,,,,,,,,,,,,,,,,,,,,,,,,,262.7620900309994,262.7713962419948,263.78554269799497,264.76840950199403,264.76840950199403,264.76840950199403,265.4875151889937,left,0.7170860260011978,None,,,,,,,,,,,,,,,,,,,,,,,,,,,,,,,,,,,,,,,,,,,616216,001,2024-11-25_11h20.42.804,Test,2024.2.1,60.4467771187384,2024-11-25 11h20.58.402973 +0100,
25,150,120,25,None,35,35,0,False,left,0.5891513980022864,None,,,,,,,,0,35,35,35,,,,,,,,,265.5025204199992,,,,,,,,,,,,,,,,,,,,,,,,,,,,,,,,,,,,,,,265.49312764399656,265.5025204199992,266.5022173999969,267.501866093,267.501866093,267.501866093,268.1034905879933,left,0.5891513980022864,None,,,,,,,,,,,,,,,,,,,,,,,,,,,,,,,,,,,,,,,,,,,616216,001,2024-11-25_11h20.42.804,Test,2024.2.1,60.4467771187384,2024-11-25 11h20.58.402973 +0100,
34,150,180,10,None,36,36,0,False,left,0.9310740349974367,None,,,,,,,,0,36,36,36,,,,,,,,,268.1187871909933,,,,,,,,,,,,,,,,,,,,,,,,,,,,,,,,,,,,,,,268.109100665999,268.1187871909933,269.11973451099766,270.11861614099325,270.11861614099325,270.11861614099325,271.05433767999784,left,0.9310740349974367,None,,,,,,,,,,,,,,,,,,,,,,,,,,,,,,,,,,,,,,,,,,,616216,001,2024-11-25_11h20.42.804,Test,2024.2.1,60.4467771187384,2024-11-25 11h20.58.402973 +0100,
21,150,120,19,None,37,37,0,False,left,1.068159944996296,None,,,,,,,,0,37,37,37,,,,,,,,,271.0690299509952,,,,,,,,,,,,,,,,,,,,,,,,,,,,,,,,,,,,,,,271.05983456099784,271.0690299509952,272.0687028829998,273.05223979499715,273.05223979499715,273.05223979499715,274.1380490369993,left,1.068159944996296,None,,,,,,,,,,,,,,,,,,,,,,,,,,,,,,,,,,,,,,,,,,,616216,001,2024-11-25_11h20.42.804,Test,2024.2.1,60.4467771187384,2024-11-25 11h20.58.402973 +0100,
51,150,90,26,None,38,38,0,True,left,1.0219635160028702,None,,,,,,,,0,38,38,38,,,,,,,,,274.15286758,,,,,,,,,,,,,,,,,,,,,,,,,,,,,,,,,,,,,,,274.1438539869996,274.15286758,275.1524314689959,276.15267635899363,276.15267635899363,276.15267635899363,277.18730388199765,left,1.0219635160028702,None,,,,,,,,,,,,,,,,,,,,,,,,,,,,,,,,,,,,,,,,,,,616216,001,2024-11-25_11h20.42.804,Test,2024.2.1,60.4467771187384,2024-11-25 11h20.58.402973 +0100,
22,150,120,7,None,39,39,0,False,right,0.8055069859983632,None,,,,,,,,0,39,39,39,,,,,,,,,277.20256195699767,,,,,,,,,,,,,,,,,,,,,,,,,,,,,,,,,,,,,,,277.19313243799843,277.20256195699767,278.20269279700005,279.2026207139934,279.2026207139934,279.2026207139934,280.06598835699697,right,0.8055069859983632,None,,,,,,,,,,,,,,,,,,,,,,,,,,,,,,,,,,,,,,,,,,,616216,001,2024-11-25_11h20.42.804,Test,2024.2.1,60.4467771187384,2024-11-25 11h20.58.402973 +0100,
39,150,0,14,None,40,40,0,True,left,0.9549377059956896,None,,,,,,,,0,40,40,40,,,,,,,,,280.0828356209968,,,,,,,,,,,,,,,,,,,,,,,,,,,,,,,,,,,,,,,280.07234601699747,280.0828356209968,281.08593357199425,282.0695729299987,282.0695729299987,282.0695729299987,283.03794496399496,left,0.9549377059956896,None,,,,,,,,,,,,,,,,,,,,,,,,,,,,,,,,,,,,,,,,,,,616216,001,2024-11-25_11h20.42.804,Test,2024.2.1,60.4467771187384,2024-11-25 11h20.58.402973 +0100,
44,150,30,70,None,41,41,0,True,left,0.8911970570043195,None,,,,,,,,0,41,41,41,,,,,,,,,283.05296402199747,,,,,,,,,,,,,,,,,,,,,,,,,,,,,,,,,,,,,,,283.0432423339953,283.05296402199747,284.05552107199765,285.0527811399952,285.0527811399952,285.0527811399952,285.9549204099967,left,0.8911970570043195,None,,,,,,,,,,,,,,,,,,,,,,,,,,,,,,,,,,,,,,,,,,,616216,001,2024-11-25_11h20.42.804,Test,2024.2.1,60.4467771187384,2024-11-25 11h20.58.402973 +0100,
33,150,180,63,None,42,42,0,False,left,0.8846714510000311,None,,,,,,,,0,42,42,42,,,,,,,,,285.9701153609931,,,,,,,,,,,,,,,,,,,,,,,,,,,,,,,,,,,,,,,285.9601239439944,285.9701153609931,286.9704311789974,287.97021054099605,287.97021054099605,287.97021054099605,288.8721184899987,left,0.8846714510000311,None,,,,,,,,,,,,,,,,,,,,,,,,,,,,,,,,,,,,,,,,,,,616216,001,2024-11-25_11h20.42.804,Test,2024.2.1,60.4467771187384,2024-11-25 11h20.58.402973 +0100,
19,150,90,50,None,43,43,0,False,left,1.1752414340007817,None,,,,,,,,0,43,43,43,,,,,,,,,288.88751292199595,,,,,,,,,,,,,,,,,,,,,,,,,,,,,,,,,,,,,,,288.8777471239955,288.88751292199595,289.88676980799937,290.8872530739973,290.8872530739973,290.8872530739973,292.07255744699796,left,1.1752414340007817,None,,,,,,,,,,,,,,,,,,,,,,,,,,,,,,,,,,,,,,,,,,,616216,001,2024-11-25_11h20.42.804,Test,2024.2.1,60.4467771187384,2024-11-25 11h20.58.402973 +0100,
67,150,180,40,None,44,44,0,True,right,1.1672253079959773,None,,,,,,,,0,44,44,44,,,,,,,,,292.08722300999943,,,,,,,,,,,,,,,,,,,,,,,,,,,,,,,,,,,,,,,292.07824625899957,292.08722300999943,293.0881763209982,294.0709076639978,294.0709076639978,294.0709076639978,295.2557352599979,right,1.1672253079959773,None,,,,,,,,,,,,,,,,,,,,,,,,,,,,,,,,,,,,,,,,,,,616216,001,2024-11-25_11h20.42.804,Test,2024.2.1,60.4467771187384,2024-11-25 11h20.58.402973 +0100,
10,150,30,62,None,45,45,0,False,left,0.6363632799984771,None,,,,,,,,0,45,45,45,,,,,,,,,295.27129931199306,,,,,,,,,,,,,,,,,,,,,,,,,,,,,,,,,,,,,,,295.2614760159995,295.27129931199306,296.2707645809933,297.2710394799942,297.2710394799942,297.2710394799942,297.9233623149994,left,0.6363632799984771,None,,,,,,,,,,,,,,,,,,,,,,,,,,,,,,,,,,,,,,,,,,,616216,001,2024-11-25_11h20.42.804,Test,2024.2.1,60.4467771187384,2024-11-25 11h20.58.402973 +0100,
47,150,60,65,None,46,46,0,True,left,0.692748745001154,None,,,,,,,,0,46,46,46,,,,,,,,,297.94134564999695,,,,,,,,,,,,,,,,,,,,,,,,,,,,,,,,,,,,,,,297.9317171179937,297.94134564999695,298.9543468129996,299.93789301200013,299.93789301200013,299.93789301200013,300.639440687999,left,0.692748745001154,None,,,,,,,,,,,,,,,,,,,,,,,,,,,,,,,,,,,,,,,,,,,616216,001,2024-11-25_11h20.42.804,Test,2024.2.1,60.4467771187384,2024-11-25 11h20.58.402973 +0100,
29,150,150,36,None,47,47,0,False,right,0.8281962999972166,None,,,,,,,,0,47,47,47,,,,,,,,,300.6548915499952,,,,,,,,,,,,,,,,,,,,,,,,,,,,,,,,,,,,,,,300.6455465869949,300.6548915499952,301.65406835499743,302.6543831999952,302.6543831999952,302.6543831999952,303.48957652899844,right,0.8281962999972166,None,,,,,,,,,,,,,,,,,,,,,,,,,,,,,,,,,,,,,,,,,,,616216,001,2024-11-25_11h20.42.804,Test,2024.2.1,60.4467771187384,2024-11-25 11h20.58.402973 +0100,
49,150,60,59,None,48,48,0,True,right,0.8563629210038926,None,,,,,,,,0,48,48,48,,,,,,,,,303.5080677409933,,,,,,,,,,,,,,,,,,,,,,,,,,,,,,,,,,,,,,,303.49859833799565,303.5080677409933,304.52161674399395,305.5045798539941,305.5045798539941,305.5045798539941,306.37310126499506,right,0.8563629210038926,None,,,,,,,,,,,,,,,,,,,,,,,,,,,,,,,,,,,,,,,,,,,616216,001,2024-11-25_11h20.42.804,Test,2024.2.1,60.4467771187384,2024-11-25 11h20.58.402973 +0100,
12,150,60,20,None,49,49,0,False,right,0.7505010589957237,None,,,,,,,,0,49,49,49,,,,,,,,,306.38890983099554,,,,,,,,,,,,,,,,,,,,,,,,,,,,,,,,,,,,,,,306.37906161699357,306.38890983099554,307.38850784399983,308.3719219389968,308.3719219389968,308.3719219389968,309.14064214099926,right,0.7505010589957237,None,,,,,,,,,,,,,,,,,,,,,,,,,,,,,,,,,,,,,,,,,,,616216,001,2024-11-25_11h20.42.804,Test,2024.2.1,60.4467771187384,2024-11-25 11h20.58.402973 +0100,
37,150,0,6,None,50,50,0,True,right,1.210164595002425,None,,,,,,,,0,50,50,50,,,,,,,,,309.157025540997,,,,,,,,,,,,,,,,,,,,,,,,,,,,,,,,,,,,,,,309.1477014849952,309.157025540997,310.1726321009992,311.1549621009981,311.1549621009981,311.1549621009981,312.3748981479948,right,1.210164595002425,None,,,,,,,,,,,,,,,,,,,,,,,,,,,,,,,,,,,,,,,,,,,616216,001,2024-11-25_11h20.42.804,Test,2024.2.1,60.4467771187384,2024-11-25 11h20.58.402973 +0100,
36,150,0,33,None,51,51,0,True,left,0.7919767819985282,None,,,,,,,,0,51,51,51,,,,,,,,,312.40337044999615,,,,,,,,,,,,,,,,,,,,,,,,,,,,,,,,,,,,,,,312.38041683399933,312.40337044999615,313.40505437399406,314.3890382939935,314.3890382939935,314.3890382939935,315.1896991670001,left,0.7919767819985282,None,,,,,,,,,,,,,,,,,,,,,,,,,,,,,,,,,,,,,,,,,,,616216,001,2024-11-25_11h20.42.804,Test,2024.2.1,60.4467771187384,2024-11-25 11h20.58.402973 +0100,
69,150,180,66,None,52,52,0,True,left,1.467015916998207,None,,,,,,,,0,52,52,52,,,,,,,,,315.20548279099603,,,,,,,,,,,,,,,,,,,,,,,,,,,,,,,,,,,,,,,315.196196375,315.20548279099603,316.2053248259981,317.1889456239951,317.1889456239951,317.1889456239951,318.65834271299536,left,1.467015916998207,None,,,,,,,,,,,,,,,,,,,,,,,,,,,,,,,,,,,,,,,,,,,616216,001,2024-11-25_11h20.42.804,Test,2024.2.1,60.4467771187384,2024-11-25 11h20.58.402973 +0100,
50,150,60,57,None,53,53,0,True,left,1.489865944997291,None,,,,,,,,0,53,53,53,,,,,,,,,318.67266277699673,,,,,,,,,,,,,,,,,,,,,,,,,,,,,,,,,,,,,,,318.6638915269941,318.67266277699673,319.6726670509961,320.67238613899826,320.67238613899826,320.67238613899826,322.1737368269969,left,1.489865944997291,None,,,,,,,,,,,,,,,,,,,,,,,,,,,,,,,,,,,,,,,,,,,616216,001,2024-11-25_11h20.42.804,Test,2024.2.1,60.4467771187384,2024-11-25 11h20.58.402973 +0100,
41,150,30,58,None,54,54,0,True,left,0.6163068179957918,None,,,,,,,,0,54,54,54,,,,,,,,,322.19052429099975,,,,,,,,,,,,,,,,,,,,,,,,,,,,,,,,,,,,,,,322.1816583079999,322.19052429099975,323.2066830240001,324.189687389,324.189687389,324.189687389,324.80868682899745,left,0.6163068179957918,None,,,,,,,,,,,,,,,,,,,,,,,,,,,,,,,,,,,,,,,,,,,616216,001,2024-11-25_11h20.42.804,Test,2024.2.1,60.4467771187384,2024-11-25 11h20.58.402973 +0100,
2,150,0,1,None,55,55,0,False,left,1.4924259269973845,None,,,,,,,,0,55,55,55,,,,,,,,,324.82343611899705,,,,,,,,,,,,,,,,,,,,,,,,,,,,,,,,,,,,,,,324.81373551499564,324.82343611899705,325.8228920879992,326.8237039359956,326.8237039359956,326.8237039359956,328.3249029429935,left,1.4924259269973845,None,,,,,,,,,,,,,,,,,,,,,,,,,,,,,,,,,,,,,,,,,,,616216,001,2024-11-25_11h20.42.804,Test,2024.2.1,60.4467771187384,2024-11-25 11h20.58.402973 +0100,
68,150,180,41,None,56,56,0,True,right,0.9845923009997932,None,,,,,,,,0,56,56,56,,,,,,,,,328.33998485199845,,,,,,,,,,,,,,,,,,,,,,,,,,,,,,,,,,,,,,,328.33073271699686,328.33998485199845,329.3408543669939,330.3396831219943,330.3396831219943,330.3396831219943,331.34151677599584,right,0.9845923009997932,None,,,,,,,,,,,,,,,,,,,,,,,,,,,,,,,,,,,,,,,,,,,616216,001,2024-11-25_11h20.42.804,Test,2024.2.1,60.4467771187384,2024-11-25 11h20.58.402973 +0100,
35,150,180,16,None,57,57,0,False,left,0.9341894309982308,None,,,,,,,,0,57,57,57,,,,,,,,,331.35701176699513,,,,,,,,,,,,,,,,,,,,,,,,,,,,,,,,,,,,,,,331.34776066399354,331.35701176699513,332.35692089599615,333.35728270399704,333.35728270399704,333.35728270399704,334.2960513719954,left,0.9341894309982308,None,,,,,,,,,,,,,,,,,,,,,,,,,,,,,,,,,,,,,,,,,,,616216,001,2024-11-25_11h20.42.804,Test,2024.2.1,60.4467771187384,2024-11-25 11h20.58.402973 +0100,
58,150,120,12,None,58,58,0,True,left,0.9575228739995509,None,,,,,,,,0,58,58,58,,,,,,,,,334.31082940899796,,,,,,,,,,,,,,,,,,,,,,,,,,,,,,,,,,,,,,,334.30164539799443,334.31082940899796,335.32376446699345,336.3068206629978,336.3068206629978,336.3068206629978,337.27515333799965,left,0.9575228739995509,None,,,,,,,,,,,,,,,,,,,,,,,,,,,,,,,,,,,,,,,,,,,616216,001,2024-11-25_11h20.42.804,Test,2024.2.1,60.4467771187384,2024-11-25 11h20.58.402973 +0100,
43,150,30,47,None,59,59,0,True,left,0.7891090250050183,None,,,,,,,,0,59,59,59,,,,,,,,,337.29019018099643,,,,,,,,,,,,,,,,,,,,,,,,,,,,,,,,,,,,,,,337.2813550239953,337.29019018099643,338.29112503699434,339.29082414000004,339.29082414000004,339.29082414000004,340.0925394959995,left,0.7891090250050183,None,,,,,,,,,,,,,,,,,,,,,,,,,,,,,,,,,,,,,,,,,,,616216,001,2024-11-25_11h20.42.804,Test,2024.2.1,60.4467771187384,2024-11-25 11h20.58.402973 +0100,
4,150,0,48,None,60,60,0,False,right,0.9041364250006154,None,,,,,,,,0,60,60,60,,,,,,,,,340.1080106399968,,,,,,,,,,,,,,,,,,,,,,,,,,,,,,,,,,,,,,,340.0986335369962,340.1080106399968,341.1072759059971,342.1070195059947,342.1070195059947,342.1070195059947,343.0255579379955,right,0.9041364250006154,None,,,,,,,,,,,,,,,,,,,,,,,,,,,,,,,,,,,,,,,,,,,616216,001,2024-11-25_11h20.42.804,Test,2024.2.1,60.4467771187384,2024-11-25 11h20.58.402973 +0100,
5,150,0,55,None,61,61,0,False,left,0.9111453739969875,None,,,,,,,,0,61,61,61,,,,,,,,,343.04211426099937,,,,,,,,,,,,,,,,,,,,,,,,,,,,,,,,,,,,,,,343.0329585429936,343.04211426099937,344.056699752,345.02389284699893,345.02389284699893,345.02389284699893,345.9433082069954,left,0.9111453739969875,None,,,,,,,,,,,,,,,,,,,,,,,,,,,,,,,,,,,,,,,,,,,616216,001,2024-11-25_11h20.42.804,Test,2024.2.1,60.4467771187384,2024-11-25 11h20.58.402973 +0100,
31,150,180,35,None,62,62,0,False,left,1.6499996390048182,None,,,,,,,,0,62,62,62,,,,,,,,,345.9576467709994,,,,,,,,,,,,,,,,,,,,,,,,,,,,,,,,,,,,,,,345.9487500039977,345.9576467709994,346.9580089069932,347.9578700769998,347.9578700769998,347.9578700769998,349.6105038569949,left,1.6499996390048182,None,,,,,,,,,,,,,,,,,,,,,,,,,,,,,,,,,,,,,,,,,,,616216,001,2024-11-25_11h20.42.804,Test,2024.2.1,60.4467771187384,2024-11-25 11h20.58.402973 +0100,
16,150,90,28,None,63,63,0,False,left,0.8747615539978142,None,,,,,,,,0,63,63,63,,,,,,,,,349.62589671000023,,,,,,,,,,,,,,,,,,,,,,,,,,,,,,,,,,,,,,,349.6167089779992,349.62589671000023,350.6256214859968,351.62475847999303,351.62475847999303,351.62475847999303,352.50998368999717,left,0.8747615539978142,None,,,,,,,,,,,,,,,,,,,,,,,,,,,,,,,,,,,,,,,,,,,616216,001,2024-11-25_11h20.42.804,Test,2024.2.1,60.4467771187384,2024-11-25 11h20.58.402973 +0100,
9,150,30,15,None,64,64,0,False,left,1.4586896839973633,None,,,,,,,,0,64,64,64,,,,,,,,,352.5252076119941,,,,,,,,,,,,,,,,,,,,,,,,,,,,,,,,,,,,,,,352.5162394329964,352.5252076119941,353.5246791529935,354.5254291409947,354.5254291409947,354.5254291409947,355.9943546459981,left,1.4586896839973633,None,,,,,,,,,,,,,,,,,,,,,,,,,,,,,,,,,,,,,,,,,,,616216,001,2024-11-25_11h20.42.804,Test,2024.2.1,60.4467771187384,2024-11-25 11h20.58.402973 +0100,
18,150,90,60,None,65,65,0,False,left,1.300499402997957,None,,,,,,,,0,65,65,65,,,,,,,,,356.0092071459949,,,,,,,,,,,,,,,,,,,,,,,,,,,,,,,,,,,,,,,356.0004729539942,356.0092071459949,357.0084368159951,358.00845539599686,358.00845539599686,358.00845539599686,359.3264984169946,left,1.300499402997957,None,,,,,,,,,,,,,,,,,,,,,,,,,,,,,,,,,,,,,,,,,,,616216,001,2024-11-25_11h20.42.804,Test,2024.2.1,60.4467771187384,2024-11-25 11h20.58.402973 +0100,
63,150,150,3,None,66,66,0,True,left,0.6091982889993233,None,,,,,,,,0,66,66,66,,,,,,,,,359.3417156639989,,,,,,,,,,,,,,,,,,,,,,,,,,,,,,,,,,,,,,,359.332580176997,359.3417156639989,360.3421238390001,361.34232340399467,361.34232340399467,361.34232340399467,361.95998031599447,left,0.6091982889993233,None,,,,,,,,,,,,,,,,,,,,,,,,,,,,,,,,,,,,,,,,,,,616216,001,2024-11-25_11h20.42.804,Test,2024.2.1,60.4467771187384,2024-11-25 11h20.58.402973 +0100,
7,150,30,56,None,67,67,0,False,left,1.5701540919981198,None,,,,,,,,0,67,67,67,,,,,,,,,361.97518310099986,,,,,,,,,,,,,,,,,,,,,,,,,,,,,,,,,,,,,,,361.96635045699804,361.97518310099986,362.975332158996,363.9751659869944,363.9751659869944,363.9751659869944,365.5605052329993,left,1.5701540919981198,None,,,,,,,,,,,,,,,,,,,,,,,,,,,,,,,,,,,,,,,,,,,616216,001,2024-11-25_11h20.42.804,Test,2024.2.1,60.4467771187384,2024-11-25 11h20.58.402973 +0100,
60,150,120,31,None,68,68,0,True,left,0.9581140320005943,None,,,,,,,,0,68,68,68,,,,,,,,,365.5760229169973,,,,,,,,,,,,,,,,,,,,,,,,,,,,,,,,,,,,,,,365.5669959299994,365.5760229169973,366.5753705850002,367.5755881439982,367.5755881439982,367.5755881439982,368.5444215319949,left,0.9581140320005943,None,,,,,,,,,,,,,,,,,,,,,,,,,,,,,,,,,,,,,,,,,,,616216,001,2024-11-25_11h20.42.804,Test,2024.2.1,60.4467771187384,2024-11-25 11h20.58.402973 +0100,
70,150,180,54,None,69,69,0,True,left,0.7438455270021223,None,,,,,,,,0,69,69,69,,,,,,,,,368.5613564449959,,,,,,,,,,,,,,,,,,,,,,,,,,,,,,,,,,,,,,,368.5520378089932,368.5613564449959,369.57586608999554,370.55948165599693,370.55948165599693,370.55948165599693,371.3106801739996,left,0.7438455270021223,None,,,,,,,,,,,,,,,,,,,,,,,,,,,,,,,,,,,,,,,,,,,616216,001,2024-11-25_11h20.42.804,Test,2024.2.1,60.4467771187384,2024-11-25 11h20.58.402973 +0100,
,,,,,,,,,,,,,,,,,,,,,,,,,,,,,,,,,,,,,,,,,,,,,,,,,,,,,,,,,,,,,,,,,,,,,,,,,,,,,,,,371.310851573995,371.3260067079973,371.3260067079973,375.7945013779972,space,4.458325118001085,None,,,,,,,,,,,,,,,,,,,,,,,,,,,,,,,,,,,,616216,001,2024-11-25_11h20.42.804,Test,2024.2.1,60.4467771187384,2024-11-25 11h20.58.402973 +0100,
29,150,150,36,None,0,0,0,,,,,,,,,,,,,,,,0,0,0,28,,,,,375.8200879849974,,,,,,,,,,,,,,,,,,,,,,,,,,,,,,,,,,,,,,,,,,,,,,,,,,,,,,,,375.81095933499455,375.8200879849974,376.00995014399814,376.00995014399814,376.0258911799974,377.70912747099646,377.70912747099646,377.6940861059993,,,,,,,,,,,,,,,,,,,,,,,,,,,,616216,001,2024-11-25_11h20.42.804,Test,2024.2.1,60.4467771187384,2024-11-25 11h20.58.402973 +0100,
28,150,150,9,None,1,1,0,,,,,,,,,,,,,,,,0,1,1,27,,,,,377.70912747099646,,,,,,,,,,,,,,,,,,,,,,,,,,,,,,,,,,,,,,,,,,,,,,,,,,,,,,,,377.70001888399565,377.70912747099646,377.909947919994,377.909947919994,377.909947919994,379.6096391489991,379.6096391489991,379.59312985499855,,,,,,,,,,,,,,,,,,,,,,,,,,,,616216,001,2024-11-25_11h20.42.804,Test,2024.2.1,60.4467771187384,2024-11-25 11h20.58.402973 +0100,
14,150,60,17,None,2,2,0,,,,,,,,,,,,,,,,0,2,2,13,,,,,379.6096391489991,,,,,,,,,,,,,,,,,,,,,,,,,,,,,,,,,,,,,,,,,,,,,,,,,,,,,,,,379.59866187699663,379.6096391489991,379.81023911499506,379.81023911499506,379.81023911499506,381.51200344399695,381.51200344399695,381.49467362399446,,,,,,,,,,,,,,,,,,,,,,,,,,,,616216,001,2024-11-25_11h20.42.804,Test,2024.2.1,60.4467771187384,2024-11-25 11h20.58.402973 +0100,
11,150,60,45,None,3,3,0,,,,,,,,,,,,,,,,0,3,3,10,,,,,381.51200344399695,,,,,,,,,,,,,,,,,,,,,,,,,,,,,,,,,,,,,,,,,,,,,,,,,,,,,,,,381.5041486169939,381.51200344399695,381.71011239399377,381.71011239399377,381.7266018339942,383.4101646989948,383.4101646989948,383.39310944999306,,,,,,,,,,,,,,,,,,,,,,,,,,,,616216,001,2024-11-25_11h20.42.804,Test,2024.2.1,60.4467771187384,2024-11-25 11h20.58.402973 +0100,
22,150,120,7,None,4,4,0,,,,,,,,,,,,,,,,0,4,4,21,,,,,383.4101646989948,,,,,,,,,,,,,,,,,,,,,,,,,,,,,,,,,,,,,,,,,,,,,,,,,,,,,,,,383.39857429299445,383.4101646989948,383.5933779469997,383.5933779469997,383.6099328439959,385.29306292899855,385.29306292899855,385.27765201999864,,,,,,,,,,,,,,,,,,,,,,,,,,,,616216,001,2024-11-25_11h20.42.804,Test,2024.2.1,60.4467771187384,2024-11-25 11h20.58.402973 +0100,
2,150,0,1,None,5,5,0,,,,,,,,,,,,,,,,0,5,5,1,,,,,385.29306292899855,,,,,,,,,,,,,,,,,,,,,,,,,,,,,,,,,,,,,,,,,,,,,,,,,,,,,,,,385.28308907099563,385.29306292899855,385.49351644199487,385.49351644199487,385.49351644199487,387.1933356699956,387.1933356699956,387.17770736999955,,,,,,,,,,,,,,,,,,,,,,,,,,,,616216,001,2024-11-25_11h20.42.804,Test,2024.2.1,60.4467771187384,2024-11-25 11h20.58.402973 +0100,
21,150,120,19,None,6,6,0,,,,,,,,,,,,,,,,0,6,6,20,,,,,387.1933356699956,,,,,,,,,,,,,,,,,,,,,,,,,,,,,,,,,,,,,,,,,,,,,,,,,,,,,,,,387.18278281799576,387.1933356699956,387.39389195999684,387.39389195999684,387.39389195999684,389.09359713199956,389.09359713199956,389.07840563699574,,,,,,,,,,,,,,,,,,,,,,,,,,,,616216,001,2024-11-25_11h20.42.804,Test,2024.2.1,60.4467771187384,2024-11-25 11h20.58.402973 +0100,
1,150,0,37,None,7,7,0,,,,,,,,,,,,,,,,0,7,7,0,,,,,389.09359713199956,,,,,,,,,,,,,,,,,,,,,,,,,,,,,,,,,,,,,,,,,,,,,,,,,,,,,,,,389.08453879699664,389.09359713199956,389.2941452419982,389.2941452419982,389.2941452419982,390.99415986099484,390.99415986099484,390.97784757899353,,,,,,,,,,,,,,,,,,,,,,,,,,,,616216,001,2024-11-25_11h20.42.804,Test,2024.2.1,60.4467771187384,2024-11-25 11h20.58.402973 +0100,
5,150,0,55,None,8,8,0,,,,,,,,,,,,,,,,0,8,8,4,,,,,390.99415986099484,,,,,,,,,,,,,,,,,,,,,,,,,,,,,,,,,,,,,,,,,,,,,,,,,,,,,,,,390.98554324899305,390.99415986099484,391.19396051599324,391.19396051599324,391.19396051599324,392.8942494899966,392.8942494899966,392.8782365809966,,,,,,,,,,,,,,,,,,,,,,,,,,,,616216,001,2024-11-25_11h20.42.804,Test,2024.2.1,60.4467771187384,2024-11-25 11h20.58.402973 +0100,
8,150,30,69,None,9,9,0,,,,,,,,,,,,,,,,0,9,9,7,,,,,392.8942494899966,,,,,,,,,,,,,,,,,,,,,,,,,,,,,,,,,,,,,,,,,,,,,,,,,,,,,,,,392.886188587996,392.8942494899966,393.0940273229935,393.0940273229935,393.0940273229935,394.794454594994,394.794454594994,394.7783064509931,,,,,,,,,,,,,,,,,,,,,,,,,,,,616216,001,2024-11-25_11h20.42.804,Test,2024.2.1,60.4467771187384,2024-11-25 11h20.58.402973 +0100,
9,150,30,15,None,10,10,0,,,,,,,,,,,,,,,,0,10,10,8,,,,,394.794454594994,,,,,,,,,,,,,,,,,,,,,,,,,,,,,,,,,,,,,,,,,,,,,,,,,,,,,,,,394.785878855997,394.794454594994,394.9935837249941,394.9935837249941,394.9935837249941,396.69425692899677,396.69425692899677,396.6782837199935,,,,,,,,,,,,,,,,,,,,,,,,,,,,616216,001,2024-11-25_11h20.42.804,Test,2024.2.1,60.4467771187384,2024-11-25 11h20.58.402973 +0100,
31,150,180,35,None,11,11,0,,,,,,,,,,,,,,,,0,11,11,30,,,,,396.69425692899677,,,,,,,,,,,,,,,,,,,,,,,,,,,,,,,,,,,,,,,,,,,,,,,,,,,,,,,,396.6840502959967,396.69425692899677,396.8947499689966,396.8947499689966,396.8947499689966,398.59456742199836,398.59456742199836,398.5785131079974,,,,,,,,,,,,,,,,,,,,,,,,,,,,616216,001,2024-11-25_11h20.42.804,Test,2024.2.1,60.4467771187384,2024-11-25 11h20.58.402973 +0100,
3,150,0,43,None,12,12,0,,,,,,,,,,,,,,,,0,12,12,2,,,,,398.59456742199836,,,,,,,,,,,,,,,,,,,,,,,,,,,,,,,,,,,,,,,,,,,,,,,,,,,,,,,,398.5863442089976,398.59456742199836,398.7943050909962,398.7943050909962,398.7943050909962,400.4946659509951,400.4946659509951,400.4787621009964,,,,,,,,,,,,,,,,,,,,,,,,,,,,616216,001,2024-11-25_11h20.42.804,Test,2024.2.1,60.4467771187384,2024-11-25 11h20.58.402973 +0100,
15,150,60,18,None,13,13,0,,,,,,,,,,,,,,,,0,13,13,14,,,,,400.4946659509951,,,,,,,,,,,,,,,,,,,,,,,,,,,,,,,,,,,,,,,,,,,,,,,,,,,,,,,,400.48595560099784,400.4946659509951,400.694204470994,400.694204470994,400.694204470994,402.3939331299989,402.3939331299989,402.37863178899715,,,,,,,,,,,,,,,,,,,,,,,,,,,,616216,001,2024-11-25_11h20.42.804,Test,2024.2.1,60.4467771187384,2024-11-25 11h20.58.402973 +0100,
12,150,60,20,None,14,14,0,,,,,,,,,,,,,,,,0,14,14,11,,,,,402.3939331299989,,,,,,,,,,,,,,,,,,,,,,,,,,,,,,,,,,,,,,,,,,,,,,,,,,,,,,,,402.3842429849974,402.3939331299989,402.5945296889986,402.5945296889986,402.5945296889986,404.29444821099605,404.29444821099605,404.2784786689954,,,,,,,,,,,,,,,,,,,,,,,,,,,,616216,001,2024-11-25_11h20.42.804,Test,2024.2.1,60.4467771187384,2024-11-25 11h20.58.402973 +0100,
18,150,90,60,None,15,15,0,,,,,,,,,,,,,,,,0,15,15,17,,,,,404.29444821099605,,,,,,,,,,,,,,,,,,,,,,,,,,,,,,,,,,,,,,,,,,,,,,,,,,,,,,,,404.28340631299943,404.29444821099605,404.49453335,404.49453335,404.49453335,406.20744620899495,406.20744620899495,406.17894183999306,,,,,,,,,,,,,,,,,,,,,,,,,,,,616216,001,2024-11-25_11h20.42.804,Test,2024.2.1,60.4467771187384,2024-11-25 11h20.58.402973 +0100,
32,150,180,5,None,16,16,0,,,,,,,,,,,,,,,,0,16,16,31,,,,,406.20744620899495,,,,,,,,,,,,,,,,,,,,,,,,,,,,,,,,,,,,,,,,,,,,,,,,,,,,,,,,406.20052872599626,406.20744620899495,406.3954169869976,406.3954169869976,406.41140602399537,408.0960411779961,408.0960411779961,408.0785898779941,,,,,,,,,,,,,,,,,,,,,,,,,,,,616216,001,2024-11-25_11h20.42.804,Test,2024.2.1,60.4467771187384,2024-11-25 11h20.58.402973 +0100,
34,150,180,10,None,17,17,0,,,,,,,,,,,,,,,,0,17,17,33,,,,,408.0960411779961,,,,,,,,,,,,,,,,,,,,,,,,,,,,,,,,,,,,,,,,,,,,,,,,,,,,,,,,408.08808038799907,408.0960411779961,408.2946862589961,408.2946862589961,408.2946862589961,409.99538026299706,409.99538026299706,409.97928074399533,,,,,,,,,,,,,,,,,,,,,,,,,,,,616216,001,2024-11-25_11h20.42.804,Test,2024.2.1,60.4467771187384,2024-11-25 11h20.58.402973 +0100,
23,150,120,4,None,18,18,0,,,,,,,,,,,,,,,,0,18,18,22,,,,,409.99538026299706,,,,,,,,,,,,,,,,,,,,,,,,,,,,,,,,,,,,,,,,,,,,,,,,,,,,,,,,409.9866438109966,409.99538026299706,410.1950405759999,410.1950405759999,410.1950405759999,411.8950827039953,411.8950827039953,411.87994058899494,,,,,,,,,,,,,,,,,,,,,,,,,,,,616216,001,2024-11-25_11h20.42.804,Test,2024.2.1,60.4467771187384,2024-11-25 11h20.58.402973 +0100,
33,150,180,63,None,19,19,0,,,,,,,,,,,,,,,,0,19,19,32,,,,,411.8950827039953,,,,,,,,,,,,,,,,,,,,,,,,,,,,,,,,,,,,,,,,,,,,,,,,,,,,,,,,411.8862362469954,411.8950827039953,412.09533703899797,412.09533703899797,412.09533703899797,413.79523124699335,413.79523124699335,413.7796954259975,,,,,,,,,,,,,,,,,,,,,,,,,,,,616216,001,2024-11-25_11h20.42.804,Test,2024.2.1,60.4467771187384,2024-11-25 11h20.58.402973 +0100,
27,150,150,53,None,20,20,0,,,,,,,,,,,,,,,,0,20,20,26,,,,,413.79523124699335,,,,,,,,,,,,,,,,,,,,,,,,,,,,,,,,,,,,,,,,,,,,,,,,,,,,,,,,413.78561407300003,413.79523124699335,413.99548300999595,413.99548300999595,413.99548300999595,415.6949814289983,415.6949814289983,415.6788281219997,,,,,,,,,,,,,,,,,,,,,,,,,,,,616216,001,2024-11-25_11h20.42.804,Test,2024.2.1,60.4467771187384,2024-11-25 11h20.58.402973 +0100,
20,150,90,13,None,21,21,0,,,,,,,,,,,,,,,,0,21,21,19,,,,,415.6949814289983,,,,,,,,,,,,,,,,,,,,,,,,,,,,,,,,,,,,,,,,,,,,,,,,,,,,,,,,415.6839093889939,415.6949814289983,415.8959586689962,415.8959586689962,415.8959586689962,417.59643743699417,417.59643743699417,417.58012852399406,,,,,,,,,,,,,,,,,,,,,,,,,,,,616216,001,2024-11-25_11h20.42.804,Test,2024.2.1,60.4467771187384,2024-11-25 11h20.58.402973 +0100,
25,150,120,25,None,22,22,0,,,,,,,,,,,,,,,,0,22,22,24,,,,,417.59643743699417,,,,,,,,,,,,,,,,,,,,,,,,,,,,,,,,,,,,,,,,,,,,,,,,,,,,,,,,417.5881119169935,417.59643743699417,417.7957147559937,417.7957147559937,417.81191313599993,419.4983391049973,419.4983391049973,419.480528328997,,,,,,,,,,,,,,,,,,,,,,,,,,,,616216,001,2024-11-25_11h20.42.804,Test,2024.2.1,60.4467771187384,2024-11-25 11h20.58.402973 +0100,
24,150,120,24,None,23,23,0,,,,,,,,,,,,,,,,0,23,23,23,,,,,419.4983391049973,,,,,,,,,,,,,,,,,,,,,,,,,,,,,,,,,,,,,,,,,,,,,,,,,,,,,,,,419.490449222998,419.4983391049973,419.695529138,419.695529138,419.712062296996,421.39659814499464,421.39659814499464,421.38046002199553,,,,,,,,,,,,,,,,,,,,,,,,,,,,616216,001,2024-11-25_11h20.42.804,Test,2024.2.1,60.4467771187384,2024-11-25 11h20.58.402973 +0100,
4,150,0,48,None,24,24,0,,,,,,,,,,,,,,,,0,24,24,3,,,,,421.39659814499464,,,,,,,,,,,,,,,,,,,,,,,,,,,,,,,,,,,,,,,,,,,,,,,,,,,,,,,,421.3873656769938,421.39659814499464,421.596379316994,421.596379316994,421.596379316994,423.2956928559943,423.2956928559943,423.2799691909968,,,,,,,,,,,,,,,,,,,,,,,,,,,,616216,001,2024-11-25_11h20.42.804,Test,2024.2.1,60.4467771187384,2024-11-25 11h20.58.402973 +0100,
35,150,180,16,None,25,25,0,,,,,,,,,,,,,,,,0,25,25,34,,,,,423.2956928559943,,,,,,,,,,,,,,,,,,,,,,,,,,,,,,,,,,,,,,,,,,,,,,,,,,,,,,,,423.2850593979965,423.2956928559943,423.4963156349986,423.4963156349986,423.4963156349986,425.1962163079952,425.1962163079952,425.18030315299984,,,,,,,,,,,,,,,,,,,,,,,,,,,,616216,001,2024-11-25_11h20.42.804,Test,2024.2.1,60.4467771187384,2024-11-25 11h20.58.402973 +0100,
7,150,30,56,None,26,26,0,,,,,,,,,,,,,,,,0,26,26,6,,,,,425.1962163079952,,,,,,,,,,,,,,,,,,,,,,,,,,,,,,,,,,,,,,,,,,,,,,,,,,,,,,,,425.18567871099367,425.1962163079952,425.39640959899407,425.39640959899407,425.39640959899407,427.0961728349939,427.0961728349939,427.0807035629987,,,,,,,,,,,,,,,,,,,,,,,,,,,,616216,001,2024-11-25_11h20.42.804,Test,2024.2.1,60.4467771187384,2024-11-25 11h20.58.402973 +0100,
13,150,60,21,None,27,27,0,,,,,,,,,,,,,,,,0,27,27,12,,,,,427.0961728349939,,,,,,,,,,,,,,,,,,,,,,,,,,,,,,,,,,,,,,,,,,,,,,,,,,,,,,,,427.0884011189992,427.0961728349939,427.29645082599745,427.29645082599745,427.29645082599745,428.9963149499963,428.9963149499963,428.97999689799326,,,,,,,,,,,,,,,,,,,,,,,,,,,,616216,001,2024-11-25_11h20.42.804,Test,2024.2.1,60.4467771187384,2024-11-25 11h20.58.402973 +0100,
17,150,90,51,None,28,28,0,,,,,,,,,,,,,,,,0,28,28,16,,,,,428.9963149499963,,,,,,,,,,,,,,,,,,,,,,,,,,,,,,,,,,,,,,,,,,,,,,,,,,,,,,,,428.9853452399984,428.9963149499963,429.1962558409941,429.1962558409941,429.1962558409941,430.8968197349968,430.8968197349968,430.88056587999745,,,,,,,,,,,,,,,,,,,,,,,,,,,,616216,001,2024-11-25_11h20.42.804,Test,2024.2.1,60.4467771187384,2024-11-25 11h20.58.402973 +0100,
16,150,90,28,None,29,29,0,,,,,,,,,,,,,,,,0,29,29,15,,,,,430.8968197349968,,,,,,,,,,,,,,,,,,,,,,,,,,,,,,,,,,,,,,,,,,,,,,,,,,,,,,,,430.8878404729985,430.8968197349968,431.0965259089935,431.0965259089935,431.0965259089935,432.7961458899954,432.7961458899954,432.7810415559943,,,,,,,,,,,,,,,,,,,,,,,,,,,,616216,001,2024-11-25_11h20.42.804,Test,2024.2.1,60.4467771187384,2024-11-25 11h20.58.402973 +0100,
30,150,150,42,None,30,30,0,,,,,,,,,,,,,,,,0,30,30,29,,,,,432.7961458899954,,,,,,,,,,,,,,,,,,,,,,,,,,,,,,,,,,,,,,,,,,,,,,,,,,,,,,,,432.7864564429983,432.7961458899954,432.9968290079996,432.9968290079996,432.9968290079996,434.7065526849983,434.7065526849983,434.6813639489992,,,,,,,,,,,,,,,,,,,,,,,,,,,,616216,001,2024-11-25_11h20.42.804,Test,2024.2.1,60.4467771187384,2024-11-25 11h20.58.402973 +0100,
10,150,30,62,None,31,31,0,,,,,,,,,,,,,,,,0,31,31,9,,,,,434.7065526849983,,,,,,,,,,,,,,,,,,,,,,,,,,,,,,,,,,,,,,,,,,,,,,,,,,,,,,,,434.69803850899916,434.7065526849983,434.89693116199487,434.89693116199487,434.914201956999,436.59817296599795,436.59817296599795,436.58139720399777,,,,,,,,,,,,,,,,,,,,,,,,,,,,616216,001,2024-11-25_11h20.42.804,Test,2024.2.1,60.4467771187384,2024-11-25 11h20.58.402973 +0100,
26,150,150,29,None,32,32,0,,,,,,,,,,,,,,,,0,32,32,25,,,,,436.59817296599795,,,,,,,,,,,,,,,,,,,,,,,,,,,,,,,,,,,,,,,,,,,,,,,,,,,,,,,,436.5893747359951,436.59817296599795,436.7980273489957,436.7980273489957,436.81366122399777,438.5020050919993,438.5020050919993,438.4827106779994,,,,,,,,,,,,,,,,,,,,,,,,,,,,616216,001,2024-11-25_11h20.42.804,Test,2024.2.1,60.4467771187384,2024-11-25 11h20.58.402973 +0100,
19,150,90,50,None,33,33,0,,,,,,,,,,,,,,,,0,33,33,18,,,,,438.5020050919993,,,,,,,,,,,,,,,,,,,,,,,,,,,,,,,,,,,,,,,,,,,,,,,,,,,,,,,,438.4942458259975,438.5020050919993,438.6981910779941,438.6981910779941,438.714561281995,440.39721984199423,440.39721984199423,440.381589134995,,,,,,,,,,,,,,,,,,,,,,,,,,,,616216,001,2024-11-25_11h20.42.804,Test,2024.2.1,60.4467771187384,2024-11-25 11h20.58.402973 +0100,
6,150,30,44,None,34,34,0,,,,,,,,,,,,,,,,0,34,34,5,,,,,440.39721984199423,,,,,,,,,,,,,,,,,,,,,,,,,,,,,,,,,,,,,,,,,,,,,,,,,,,,,,,,440.38798533399677,440.39721984199423,440.5974202449943,440.5974202449943,440.5974202449943,442.29823685599695,442.29823685599695,442.2825596659968,,,,,,,,,,,,,,,,,,,,,,,,,,,,616216,001,2024-11-25_11h20.42.804,Test,2024.2.1,60.4467771187384,2024-11-25 11h20.58.402973 +0100,
,,,,,,,,,,,,,,,,,,,,,,,,,,,,,,,,,,,,,,,,,,,,,,,,,,,,,,,,,,,,,,,,,,,,,,,,,,,,,,,,,,,,,,,,,,,,,,,442.2827785769987,442.29823685599695,442.29823685599695,449.1823780279956,space,6.867698168003699,None,,,,,,,,,,,,,,,,,,,,,616216,001,2024-11-25_11h20.42.804,Test,2024.2.1,60.4467771187384,2024-11-25 11h20.58.402973 +0100,
48,150,60,61,None,0,0,0,True,,,,right,1.0367313239985378,None,,,,,,,,,,,,,0,0,0,0,449.2092273189992,,,,,,,,,,,,,,,,,,,,,,,,,,,,,,,,,,,,,,,,,,,,,,,,,,,,,,,,,,,,,,,,,,,,,,,449.20146744099475,449.2092273189992,450.21503248099907,451.181639866998,451.181639866998,451.181639866998,452.2332703159991,right,1.0367313239985378,None,,,,,,,,,,,616216,001,2024-11-25_11h20.42.804,Test,2024.2.1,60.4467771187384,2024-11-25 11h20.58.402973 +0100,
32,150,180,5,None,1,1,0,False,,,,right,1.267128038998635,None,,,,,,,,,,,,,0,1,1,1,452.24853164599335,,,,,,,,,,,,,,,,,,,,,,,,,,,,,,,,,,,,,,,,,,,,,,,,,,,,,,,,,,,,,,,,,,,,,,,452.238859964993,452.24853164599335,453.24786855299317,454.24957527699735,454.24957527699735,454.24957527699735,455.5331317969976,right,1.267128038998635,None,,,,,,,,,,,616216,001,2024-11-25_11h20.42.804,Test,2024.2.1,60.4467771187384,2024-11-25 11h20.58.402973 +0100,
27,150,150,53,None,2,2,0,False,,,,left,1.3171113729986246,None,,,,,,,,,,,,,0,2,2,2,455.54820313999517,,,,,,,,,,,,,,,,,,,,,,,,,,,,,,,,,,,,,,,,,,,,,,,,,,,,,,,,,,,,,,,,,,,,,,,455.538673903,455.54820313999517,456.5495869459992,457.54889376999927,457.54889376999927,457.54889376999927,458.86879734299873,left,1.3171113729986246,None,,,,,,,,,,,616216,001,2024-11-25_11h20.42.804,Test,2024.2.1,60.4467771187384,2024-11-25 11h20.58.402973 +0100,
1,150,0,37,None,3,3,0,False,,,,right,1.0190151140050148,None,,,,,,,,,,,,,0,3,3,3,458.883381789994,,,,,,,,,,,,,,,,,,,,,,,,,,,,,,,,,,,,,,,,,,,,,,,,,,,,,,,,,,,,,,,,,,,,,,,458.8746157179994,458.883381789994,459.8993375939972,460.88202862699836,460.88202862699836,460.88202862699836,461.9168349920001,right,1.0190151140050148,None,,,,,,,,,,,616216,001,2024-11-25_11h20.42.804,Test,2024.2.1,60.4467771187384,2024-11-25 11h20.58.402973 +0100,
46,150,60,11,None,4,4,0,True,,,,left,1.2823855469978298,None,,,,,,,,,,,,,0,4,4,4,461.9404569409962,,,,,,,,,,,,,,,,,,,,,,,,,,,,,,,,,,,,,,,,,,,,,,,,,,,,,,,,,,,,,,,,,,,,,,,461.9264488619956,461.9404569409962,462.94882377099566,463.91571853599453,463.91571853599453,463.91571853599453,465.2012398039951,left,1.2823855469978298,None,,,,,,,,,,,616216,001,2024-11-25_11h20.42.804,Test,2024.2.1,60.4467771187384,2024-11-25 11h20.58.402973 +0100,
56,150,120,49,None,5,5,0,True,,,,left,1.084365650996915,None,,,,,,,,,,,,,0,5,5,5,465.21782311999414,,,,,,,,,,,,,,,,,,,,,,,,,,,,,,,,,,,,,,,,,,,,,,,,,,,,,,,,,,,,,,,,,,,,,,,465.20864006499323,465.21782311999414,466.2328634239966,467.21624915299617,467.21624915299617,467.21624915299617,468.318123058998,left,1.084365650996915,None,,,,,,,,,,,616216,001,2024-11-25_11h20.42.804,Test,2024.2.1,60.4467771187384,2024-11-25 11h20.58.402973 +0100,
14,150,60,17,None,6,6,0,False,,,,left,0.9840469520058832,None,,,,,,,,,,,,,0,6,6,6,468.3330383349967,,,,,,,,,,,,,,,,,,,,,,,,,,,,,,,,,,,,,,,,,,,,,,,,,,,,,,,,,,,,,,,,,,,,,,,468.32407943799626,468.3330383349967,469.3336658059998,470.33388072499656,470.33388072499656,470.33388072499656,471.33463190199836,left,0.9840469520058832,None,,,,,,,,,,,616216,001,2024-11-25_11h20.42.804,Test,2024.2.1,60.4467771187384,2024-11-25 11h20.58.402973 +0100,
6,150,30,44,None,7,7,0,False,,,,right,0.9803666270017857,None,,,,,,,,,,,,,0,7,7,7,471.3501016159935,,,,,,,,,,,,,,,,,,,,,,,,,,,,,,,,,,,,,,,,,,,,,,,,,,,,,,,,,,,,,,,,,,,,,,,471.34069674799684,471.3501016159935,472.36621937699965,473.3496606789995,473.3496606789995,473.3496606789995,474.33427855999616,right,0.9803666270017857,None,,,,,,,,,,,616216,001,2024-11-25_11h20.42.804,Test,2024.2.1,60.4467771187384,2024-11-25 11h20.58.402973 +0100,
8,150,30,69,None,8,8,0,False,,,,right,0.8268970400022226,None,,,,,,,,,,,,,0,8,8,8,474.34934316,,,,,,,,,,,,,,,,,,,,,,,,,,,,,,,,,,,,,,,,,,,,,,,,,,,,,,,,,,,,,,,,,,,,,,,474.3392424689955,474.34934316,475.3499079920002,476.3498685749946,476.3498685749946,476.3498685749946,477.1865068919942,right,0.8268970400022226,None,,,,,,,,,,,616216,001,2024-11-25_11h20.42.804,Test,2024.2.1,60.4467771187384,2024-11-25 11h20.58.402973 +0100,
20,150,90,13,None,9,9,0,False,,,,right,0.8001106119991164,None,,,,,,,,,,,,,0,9,9,9,477.2017651999995,,,,,,,,,,,,,,,,,,,,,,,,,,,,,,,,,,,,,,,,,,,,,,,,,,,,,,,,,,,,,,,,,,,,,,,477.1928262309957,477.2017651999995,478.216630212999,479.2012637789958,479.2012637789958,479.2012637789958,480.01819754299504,right,0.8001106119991164,None,,,,,,,,,,,616216,001,2024-11-25_11h20.42.804,Test,2024.2.1,60.4467771187384,2024-11-25 11h20.58.402973 +0100,
52,150,90,68,None,10,10,0,True,,,,left,1.272615959001996,None,,,,,,,,,,,,,0,10,10,10,480.03423635799845,,,,,,,,,,,,,,,,,,,,,,,,,,,,,,,,,,,,,,,,,,,,,,,,,,,,,,,,,,,,,,,,,,,,,,,480.025690577997,480.03423635799845,481.0663411839996,482.0331376260001,482.0331376260001,482.0331376260001,483.31772551699396,left,1.272615959001996,None,,,,,,,,,,,616216,001,2024-11-25_11h20.42.804,Test,2024.2.1,60.4467771187384,2024-11-25 11h20.58.402973 +0100,
61,150,150,52,None,11,11,0,True,,,,left,1.5347826049983269,None,,,,,,,,,,,,,0,11,11,11,483.3336206149979,,,,,,,,,,,,,,,,,,,,,,,,,,,,,,,,,,,,,,,,,,,,,,,,,,,,,,,,,,,,,,,,,,,,,,,483.3234540719932,483.3336206149979,484.37983307399554,485.3168886419953,485.3168886419953,485.3168886419953,486.8692525219958,left,1.5347826049983269,None,,,,,,,,,,,616216,001,2024-11-25_11h20.42.804,Test,2024.2.1,60.4467771187384,2024-11-25 11h20.58.402973 +0100,
40,150,0,32,None,12,12,0,True,,,,left,1.4682049210023251,None,,,,,,,,,,,,,0,12,12,12,486.88458813399484,,,,,,,,,,,,,,,,,,,,,,,,,,,,,,,,,,,,,,,,,,,,,,,,,,,,,,,,,,,,,,,,,,,,,,,486.87502295000013,486.88458813399484,487.90112011699966,488.88391855199734,488.88391855199734,488.88391855199734,490.36941204199684,left,1.4682049210023251,None,,,,,,,,,,,616216,001,2024-11-25_11h20.42.804,Test,2024.2.1,60.4467771187384,2024-11-25 11h20.58.402973 +0100,
38,150,0,67,None,13,13,0,True,,,,left,0.8527749219938414,None,,,,,,,,,,,,,0,13,13,13,490.38484141599474,,,,,,,,,,,,,,,,,,,,,,,,,,,,,,,,,,,,,,,,,,,,,,,,,,,,,,,,,,,,,,,,,,,,,,,490.37529164399893,490.38484141599474,491.38466541199887,492.367042509999,492.367042509999,492.367042509999,493.23633508899366,left,0.8527749219938414,None,,,,,,,,,,,616216,001,2024-11-25_11h20.42.804,Test,2024.2.1,60.4467771187384,2024-11-25 11h20.58.402973 +0100,
45,150,30,39,None,14,14,0,True,,,,right,0.7464147279970348,None,,,,,,,,,,,,,0,14,14,14,493.25014619899594,,,,,,,,,,,,,,,,,,,,,,,,,,,,,,,,,,,,,,,,,,,,,,,,,,,,,,,,,,,,,,,,,,,,,,,493.24071497099794,493.25014619899594,494.2510795329945,495.2349082219953,495.2349082219953,495.2349082219953,495.9859482719985,right,0.7464147279970348,None,,,,,,,,,,,616216,001,2024-11-25_11h20.42.804,Test,2024.2.1,60.4467771187384,2024-11-25 11h20.58.402973 +0100,
53,150,90,30,None,15,15,0,True,,,,right,0.7516177500001504,None,,,,,,,,,,,,,0,15,15,15,496.00146455299546,,,,,,,,,,,,,,,,,,,,,,,,,,,,,,,,,,,,,,,,,,,,,,,,,,,,,,,,,,,,,,,,,,,,,,,495.9918019639954,496.00146455299546,497.0011814419995,497.9854041879953,497.9854041879953,497.9854041879953,498.75328220599476,right,0.7516177500001504,None,,,,,,,,,,,616216,001,2024-11-25_11h20.42.804,Test,2024.2.1,60.4467771187384,2024-11-25 11h20.58.402973 +0100,
24,150,120,24,None,16,16,0,False,,,,right,2.5259361479984364,None,,,,,,,,,,,,,0,16,16,16,498.7692296429959,,,,,,,,,,,,,,,,,,,,,,,,,,,,,,,,,,,,,,,,,,,,,,,,,,,,,,,,,,,,,,,,,,,,,,,498.7601762099948,498.7692296429959,499.76825218999875,500.76810719999776,500.76810719999776,500.76810719999776,503.30293819899816,right,2.5259361479984364,None,,,,,,,,,,,616216,001,2024-11-25_11h20.42.804,Test,2024.2.1,60.4467771187384,2024-11-25 11h20.58.402973 +0100,
54,150,90,46,None,17,17,0,True,,,,right,0.7763117319991579,None,,,,,,,,,,,,,0,17,17,17,503.31792607499665,,,,,,,,,,,,,,,,,,,,,,,,,,,,,,,,,,,,,,,,,,,,,,,,,,,,,,,,,,,,,,,,,,,,,,,503.30818753499625,503.31792607499665,504.31891890399856,505.318946759995,505.318946759995,505.318946759995,506.1040656529949,right,0.7763117319991579,None,,,,,,,,,,,616216,001,2024-11-25_11h20.42.804,Test,2024.2.1,60.4467771187384,2024-11-25 11h20.58.402973 +0100,
3,150,0,43,None,18,18,0,False,,,,right,0.8002334760021768,None,,,,,,,,,,,,,0,18,18,18,506.1195556219973,,,,,,,,,,,,,,,,,,,,,,,,,,,,,,,,,,,,,,,,,,,,,,,,,,,,,,,,,,,,,,,,,,,,,,,506.11031743799686,506.1195556219973,507.1187832309952,508.11888907799585,508.11888907799585,508.11888907799585,508.923625394993,right,0.8002334760021768,None,,,,,,,,,,,616216,001,2024-11-25_11h20.42.804,Test,2024.2.1,60.4467771187384,2024-11-25 11h20.58.402973 +0100,
17,150,90,51,None,19,19,0,False,,,,left,1.107844208003371,None,,,,,,,,,,,,,0,19,19,19,508.94103184199776,,,,,,,,,,,,,,,,,,,,,,,,,,,,,,,,,,,,,,,,,,,,,,,,,,,,,,,,,,,,,,,,,,,,,,,508.9330484019956,508.94103184199776,509.9527032069964,510.9356380149984,510.9356380149984,510.9356380149984,512.0542700449951,left,1.107844208003371,None,,,,,,,,,,,616216,001,2024-11-25_11h20.42.804,Test,2024.2.1,60.4467771187384,2024-11-25 11h20.58.402973 +0100,
42,150,30,34,None,20,20,0,True,,,,left,1.1753388599972823,None,,,,,,,,,,,,,0,20,20,20,512.0710725529934,,,,,,,,,,,,,,,,,,,,,,,,,,,,,,,,,,,,,,,,,,,,,,,,,,,,,,,,,,,,,,,,,,,,,,,512.0618368319992,512.0710725529934,513.0853732579999,514.0690579469956,514.0690579469956,514.0690579469956,515.2538549229939,left,1.1753388599972823,None,,,,,,,,,,,616216,001,2024-11-25_11h20.42.804,Test,2024.2.1,60.4467771187384,2024-11-25 11h20.58.402973 +0100,
23,150,120,4,None,21,21,0,False,,,,right,0.897277503994701,None,,,,,,,,,,,,,0,21,21,21,515.2844526629997,,,,,,,,,,,,,,,,,,,,,,,,,,,,,,,,,,,,,,,,,,,,,,,,,,,,,,,,,,,,,,,,,,,,,,,515.2607284859987,515.2844526629997,516.2859379659931,517.2691716469999,517.2691716469999,517.2691716469999,518.1714578519968,right,0.897277503994701,None,,,,,,,,,,,616216,001,2024-11-25_11h20.42.804,Test,2024.2.1,60.4467771187384,2024-11-25 11h20.58.402973 +0100,
28,150,150,9,None,22,22,0,False,,,,right,1.1768683479967876,None,,,,,,,,,,,,,0,22,22,22,518.1867090759988,,,,,,,,,,,,,,,,,,,,,,,,,,,,,,,,,,,,,,,,,,,,,,,,,,,,,,,,,,,,,,,,,,,,,,,518.1769392059941,518.1867090759988,519.1864322209949,520.1863717089946,520.1863717089946,520.1863717089946,521.3710235789986,right,1.1768683479967876,None,,,,,,,,,,,616216,001,2024-11-25_11h20.42.804,Test,2024.2.1,60.4467771187384,2024-11-25 11h20.58.402973 +0100,
15,150,60,18,None,23,23,0,False,,,,right,2.411851133001619,None,,,,,,,,,,,,,0,23,23,23,521.3856286719965,,,,,,,,,,,,,,,,,,,,,,,,,,,,,,,,,,,,,,,,,,,,,,,,,,,,,,,,,,,,,,,,,,,,,,,521.3761176949993,521.3856286719965,522.3866454659947,523.3698777019963,523.3698777019963,523.3698777019963,525.7882059589974,right,2.411851133001619,None,,,,,,,,,,,616216,001,2024-11-25_11h20.42.804,Test,2024.2.1,60.4467771187384,2024-11-25 11h20.58.402973 +0100,
26,150,150,29,None,24,24,0,False,,,,right,1.369962979995762,None,,,,,,,,,,,,,0,24,24,24,525.8044648629948,,,,,,,,,,,,,,,,,,,,,,,,,,,,,,,,,,,,,,,,,,,,,,,,,,,,,,,,,,,,,,,,,,,,,,,525.7959989589945,525.8044648629948,526.819908862999,527.8031497479969,527.8031497479969,527.8031497479969,529.1894923449945,right,1.369962979995762,None,,,,,,,,,,,616216,001,2024-11-25_11h20.42.804,Test,2024.2.1,60.4467771187384,2024-11-25 11h20.58.402973 +0100,
30,150,150,42,None,25,25,0,False,,,,right,0.9396902490043431,None,,,,,,,,,,,,,0,25,25,25,529.2092950909937,,,,,,,,,,,,,,,,,,,,,,,,,,,,,,,,,,,,,,,,,,,,,,,,,,,,,,,,,,,,,,,,,,,,,,,529.1991769799934,529.2092950909937,530.2197286209994,531.2031046319971,531.2031046319971,531.2031046319971,532.1546645799972,right,0.9396902490043431,None,,,,,,,,,,,616216,001,2024-11-25_11h20.42.804,Test,2024.2.1,60.4467771187384,2024-11-25 11h20.58.402973 +0100,
65,150,150,27,None,26,26,0,True,,,,left,1.6020345830038423,None,,,,,,,,,,,,,0,26,26,26,532.1698035079971,,,,,,,,,,,,,,,,,,,,,,,,,,,,,,,,,,,,,,,,,,,,,,,,,,,,,,,,,,,,,,,,,,,,,,,532.1604321409977,532.1698035079971,533.1702738999957,534.1540248599995,534.1540248599995,534.1540248599995,535.7718514559965,left,1.6020345830038423,None,,,,,,,,,,,616216,001,2024-11-25_11h20.42.804,Test,2024.2.1,60.4467771187384,2024-11-25 11h20.58.402973 +0100,
59,150,120,8,None,27,27,0,True,,,,right,17.529056423001748,None,,,,,,,,,,,,,0,27,27,27,535.7875369029935,,,,,,,,,,,,,,,,,,,,,,,,,,,,,,,,,,,,,,,,,,,,,,,,,,,,,,,,,,,,,,,,,,,,,,,535.7776471499965,535.7875369029935,536.7868864129996,537.7705956049977,537.7705956049977,537.7705956049977,555.306805278,right,17.529056423001748,None,540.7707998179976,540.7707998179976,540.8194654509934,,,,,,,,616216,001,2024-11-25_11h20.42.804,Test,2024.2.1,60.4467771187384,2024-11-25 11h20.58.402973 +0100,
55,150,90,23,None,28,28,0,True,,,,left,1.7899632010012283,None,,,,,,,,,,,,,0,28,28,28,555.3227597209989,,,,,,,,,,,,,,,,,,,,,,,,,,,,,,,,,,,,,,,,,,,,,,,,,,,,,,,,,,,,,,,,,,,,,,,555.3135965689944,555.3227597209989,556.3225912579946,557.3228892279949,557.3228892279949,557.3228892279949,559.1245819539981,left,1.7899632010012283,None,,,,,,,,,,,616216,001,2024-11-25_11h20.42.804,Test,2024.2.1,60.4467771187384,2024-11-25 11h20.58.402973 +0100,
64,150,150,38,None,29,29,0,True,,,,right,2.3405020229984075,None,,,,,,,,,,,,,0,29,29,29,559.1407169059967,,,,,,,,,,,,,,,,,,,,,,,,,,,,,,,,,,,,,,,,,,,,,,,,,,,,,,,,,,,,,,,,,,,,,,,559.1319511759939,559.1407169059967,560.1558985449956,561.139374335995,561.139374335995,561.139374335995,563.4901005869979,right,2.3405020229984075,None,,,,,,,,,,,616216,001,2024-11-25_11h20.42.804,Test,2024.2.1,60.4467771187384,2024-11-25 11h20.58.402973 +0100,
13,150,60,21,None,30,30,0,False,,,,right,0.8878227400055039,None,,,,,,,,,,,,,0,30,30,30,563.5057862799949,,,,,,,,,,,,,,,,,,,,,,,,,,,,,,,,,,,,,,,,,,,,,,,,,,,,,,,,,,,,,,,,,,,,,,,563.4960151689957,563.5057862799949,564.5068202419934,565.4891639719935,565.4891639719935,565.4891639719935,566.3916257069941,right,0.8878227400055039,None,,,,,,,,,,,616216,001,2024-11-25_11h20.42.804,Test,2024.2.1,60.4467771187384,2024-11-25 11h20.58.402973 +0100,
66,150,180,2,None,31,31,0,True,,,,right,1.013553807992139,None,,,,,,,,,,,,,0,31,31,31,566.4067322049959,,,,,,,,,,,,,,,,,,,,,,,,,,,,,,,,,,,,,,,,,,,,,,,,,,,,,,,,,,,,,,,,,,,,,,,566.3978656959953,566.4067322049959,567.4064511639954,568.4060561349979,568.4060561349979,568.4060561349979,569.4243523019904,right,1.013553807992139,None,,,,,,,,,,,616216,001,2024-11-25_11h20.42.804,Test,2024.2.1,60.4467771187384,2024-11-25 11h20.58.402973 +0100,
57,150,120,64,None,32,32,0,True,,,,left,0.9516892370011192,None,,,,,,,,,,,,,0,32,32,32,569.4402277609988,,,,,,,,,,,,,,,,,,,,,,,,,,,,,,,,,,,,,,,,,,,,,,,,,,,,,,,,,,,,,,,,,,,,,,,569.4302464479915,569.4402277609988,570.4392564439986,571.4401625709943,571.4401625709943,571.4401625709943,572.4085499430003,left,0.9516892370011192,None,,,,,,,,,,,616216,001,2024-11-25_11h20.42.804,Test,2024.2.1,60.4467771187384,2024-11-25 11h20.58.402973 +0100,
11,150,60,45,None,33,33,0,False,,,,left,0.8957992969953921,None,,,,,,,,,,,,,0,33,33,33,572.4233842449976,,,,,,,,,,,,,,,,,,,,,,,,,,,,,,,,,,,,,,,,,,,,,,,,,,,,,,,,,,,,,,,,,,,,,,,572.4147469410018,572.4233842449976,573.423974051002,574.4231607129987,574.4231607129987,574.4231607129987,575.3251627159989,left,0.8957992969953921,None,,,,,,,,,,,616216,001,2024-11-25_11h20.42.804,Test,2024.2.1,60.4467771187384,2024-11-25 11h20.58.402973 +0100,
62,150,150,22,None,34,34,0,True,,,,right,1.0593233539984794,None,,,,,,,,,,,,,0,34,34,34,575.3404227240026,,,,,,,,,,,,,,,,,,,,,,,,,,,,,,,,,,,,,,,,,,,,,,,,,,,,,,,,,,,,,,,,,,,,,,,575.3313232639994,575.3404227240026,576.3400350130032,577.34066003099,577.34066003099,577.34066003099,578.4083463079951,right,1.0593233539984794,None,,,,,,,,,,,616216,001,2024-11-25_11h20.42.804,Test,2024.2.1,60.4467771187384,2024-11-25 11h20.58.402973 +0100,
25,150,120,25,None,35,35,0,False,,,,right,1.0633592500089435,None,,,,,,,,,,,,,0,35,35,35,578.4231947540029,,,,,,,,,,,,,,,,,,,,,,,,,,,,,,,,,,,,,,,,,,,,,,,,,,,,,,,,,,,,,,,,,,,,,,,578.4137904199961,578.4231947540029,579.4234439359934,580.4253644789933,580.4253644789933,580.4253644789933,581.4929022919896,right,1.0633592500089435,None,,,,,,,,,,,616216,001,2024-11-25_11h20.42.804,Test,2024.2.1,60.4467771187384,2024-11-25 11h20.58.402973 +0100,
34,150,180,10,None,36,36,0,False,,,,right,1.2895582279888913,None,,,,,,,,,,,,,0,36,36,36,581.5070304390028,,,,,,,,,,,,,,,,,,,,,,,,,,,,,,,,,,,,,,,,,,,,,,,,,,,,,,,,,,,,,,,,,,,,,,,581.4981174350032,581.5070304390028,582.5077403109972,583.5064359519965,583.5064359519965,583.5064359519965,584.8089552910023,right,1.2895582279888913,None,,,,,,,,,,,616216,001,2024-11-25_11h20.42.804,Test,2024.2.1,60.4467771187384,2024-11-25 11h20.58.402973 +0100,
21,150,120,19,None,37,37,0,False,,,,right,0.9068052079965128,None,,,,,,,,,,,,,0,37,37,37,584.8241744920015,,,,,,,,,,,,,,,,,,,,,,,,,,,,,,,,,,,,,,,,,,,,,,,,,,,,,,,,,,,,,,,,,,,,,,,584.815253685003,584.8241744920015,585.8238791279946,586.8081889679961,586.8081889679961,586.8081889679961,587.7250298009967,right,0.9068052079965128,None,,,,,,,,,,,616216,001,2024-11-25_11h20.42.804,Test,2024.2.1,60.4467771187384,2024-11-25 11h20.58.402973 +0100,
51,150,90,26,None,38,38,0,True,,,,right,1.0348871139867697,None,,,,,,,,,,,,,0,38,38,38,587.7403746080017,,,,,,,,,,,,,,,,,,,,,,,,,,,,,,,,,,,,,,,,,,,,,,,,,,,,,,,,,,,,,,,,,,,,,,,587.7303211659964,587.7403746080017,588.7412659899928,589.7242342680038,589.7242342680038,589.7242342680038,590.776852678995,right,1.0348871139867697,None,,,,,,,,,,,616216,001,2024-11-25_11h20.42.804,Test,2024.2.1,60.4467771187384,2024-11-25 11h20.58.402973 +0100,
22,150,120,7,None,39,39,0,False,,,,right,1.293273870003759,None,,,,,,,,,,,,,0,39,39,39,590.7920577339901,,,,,,,,,,,,,,,,,,,,,,,,,,,,,,,,,,,,,,,,,,,,,,,,,,,,,,,,,,,,,,,,,,,,,,,590.7828463059923,590.7920577339901,591.7910586009893,592.7915295389903,592.7915295389903,592.7915295389903,594.0928854279991,right,1.293273870003759,None,,,,,,,,,,,616216,001,2024-11-25_11h20.42.804,Test,2024.2.1,60.4467771187384,2024-11-25 11h20.58.402973 +0100,
39,150,0,14,None,40,40,0,True,,,,left,1.2678343760053394,None,,,,,,,,,,,,,0,40,40,40,594.1096213189958,,,,,,,,,,,,,,,,,,,,,,,,,,,,,,,,,,,,,,,,,,,,,,,,,,,,,,,,,,,,,,,,,,,,,,,594.1003984819909,594.1096213189958,595.1249429309901,596.1083708320002,596.1083708320002,596.1083708320002,597.3936367740025,left,1.2678343760053394,None,,,,,,,,,,,616216,001,2024-11-25_11h20.42.804,Test,2024.2.1,60.4467771187384,2024-11-25 11h20.58.402973 +0100,
44,150,30,70,None,41,41,0,True,,,,right,1.5084391260024859,None,,,,,,,,,,,,,0,41,41,41,597.4086713009965,,,,,,,,,,,,,,,,,,,,,,,,,,,,,,,,,,,,,,,,,,,,,,,,,,,,,,,,,,,,,,,,,,,,,,,597.3996523930036,597.4086713009965,598.4092231399918,599.3926315109929,599.3926315109929,599.3926315109929,600.9101186760017,right,1.5084391260024859,None,,,,,,,,,,,616216,001,2024-11-25_11h20.42.804,Test,2024.2.1,60.4467771187384,2024-11-25 11h20.58.402973 +0100,
33,150,180,63,None,42,42,0,False,,,,left,1.1884148950048257,None,,,,,,,,,,,,,0,42,42,42,600.9280095849899,,,,,,,,,,,,,,,,,,,,,,,,,,,,,,,,,,,,,,,,,,,,,,,,,,,,,,,,,,,,,,,,,,,,,,,600.9151581459955,600.9280095849899,601.9420298019904,602.9251560569901,602.9251560569901,602.9251560569901,604.127371579998,left,1.1884148950048257,None,,,,,,,,,,,616216,001,2024-11-25_11h20.42.804,Test,2024.2.1,60.4467771187384,2024-11-25 11h20.58.402973 +0100,
19,150,90,50,None,43,43,0,False,,,,left,1.4443610329908552,None,,,,,,,,,,,,,0,43,43,43,604.1420189129931,,,,,,,,,,,,,,,,,,,,,,,,,,,,,,,,,,,,,,,,,,,,,,,,,,,,,,,,,,,,,,,,,,,,,,,604.1325103039926,604.1420189129931,605.1415732779933,606.142324109991,606.142324109991,606.142324109991,607.5936058449952,left,1.4443610329908552,None,,,,,,,,,,,616216,001,2024-11-25_11h20.42.804,Test,2024.2.1,60.4467771187384,2024-11-25 11h20.58.402973 +0100,
67,150,180,40,None,44,44,0,True,,,,left,2.800061652000295,None,,,,,,,,,,,,,0,44,44,44,607.6119710099956,,,,,,,,,,,,,,,,,,,,,,,,,,,,,,,,,,,,,,,,,,,,,,,,,,,,,,,,,,,,,,,,,,,,,,,607.6028045979983,607.6119710099956,608.626054040993,609.6091790229912,609.6091790229912,609.6091790229912,612.4120856579902,left,2.800061652000295,None,,,,,,,,,,,616216,001,2024-11-25_11h20.42.804,Test,2024.2.1,60.4467771187384,2024-11-25 11h20.58.402973 +0100,
10,150,30,62,None,45,45,0,False,,,,left,1.059694629002479,None,,,,,,,,,,,,,0,45,45,45,612.4432727669991,,,,,,,,,,,,,,,,,,,,,,,,,,,,,,,,,,,,,,,,,,,,,,,,,,,,,,,,,,,,,,,,,,,,,,,612.4289692569946,612.4432727669991,613.4424220489964,614.4259688209931,614.4259688209931,614.4259688209931,615.494079848002,left,1.059694629002479,None,,,,,,,,,,,616216,001,2024-11-25_11h20.42.804,Test,2024.2.1,60.4467771187384,2024-11-25 11h20.58.402973 +0100,
47,150,60,65,None,46,46,0,True,,,,left,0.9549989000079222,None,,,,,,,,,,,,,0,46,46,46,615.5108711790017,,,,,,,,,,,,,,,,,,,,,,,,,,,,,,,,,,,,,,,,,,,,,,,,,,,,,,,,,,,,,,,,,,,,,,,615.5018215859964,615.5108711790017,616.5261614219999,617.4925079519962,617.4925079519962,617.4925079519962,618.4615459400011,left,0.9549989000079222,None,,,,,,,,,,,616216,001,2024-11-25_11h20.42.804,Test,2024.2.1,60.4467771187384,2024-11-25 11h20.58.402973 +0100,
29,150,150,36,None,47,47,0,False,,,,left,0.810027211002307,None,,,,,,,,,,,,,0,47,47,47,618.4761413099986,,,,,,,,,,,,,,,,,,,,,,,,,,,,,,,,,,,,,,,,,,,,,,,,,,,,,,,,,,,,,,,,,,,,,,,618.4664953289976,618.4761413099986,619.4769518250032,620.4757857320001,620.4757857320001,620.4757857320001,621.2959349419907,left,0.810027211002307,None,,,,,,,,,,,616216,001,2024-11-25_11h20.42.804,Test,2024.2.1,60.4467771187384,2024-11-25 11h20.58.402973 +0100,
49,150,60,59,None,48,48,0,True,,,,left,0.8918593790003797,None,,,,,,,,,,,,,0,48,48,48,621.3117063419995,,,,,,,,,,,,,,,,,,,,,,,,,,,,,,,,,,,,,,,,,,,,,,,,,,,,,,,,,,,,,,,,,,,,,,,621.30244644099,621.3117063419995,622.3268687320015,623.310315674993,623.310315674993,623.310315674993,624.211271139,left,0.8918593790003797,None,,,,,,,,,,,616216,001,2024-11-25_11h20.42.804,Test,2024.2.1,60.4467771187384,2024-11-25 11h20.58.402973 +0100,
12,150,60,20,None,49,49,0,False,,,,left,0.8212197929969989,None,,,,,,,,,,,,,0,49,49,49,624.2269470379906,,,,,,,,,,,,,,,,,,,,,,,,,,,,,,,,,,,,,,,,,,,,,,,,,,,,,,,,,,,,,,,,,,,,,,,624.2173790909947,624.2269470379906,625.2271555909902,626.226867035999,626.226867035999,626.226867035999,627.0583903159932,left,0.8212197929969989,None,,,,,,,,,,,616216,001,2024-11-25_11h20.42.804,Test,2024.2.1,60.4467771187384,2024-11-25 11h20.58.402973 +0100,
37,150,0,6,None,50,50,0,True,,,,left,0.9550487679953221,None,,,,,,,,,,,,,0,50,50,50,627.0723202079898,,,,,,,,,,,,,,,,,,,,,,,,,,,,,,,,,,,,,,,,,,,,,,,,,,,,,,,,,,,,,,,,,,,,,,,627.0641539169956,627.0723202079898,628.0771339239946,629.0597984010019,629.0597984010019,629.0597984010019,630.0279483159902,left,0.9550487679953221,None,,,,,,,,,,,616216,001,2024-11-25_11h20.42.804,Test,2024.2.1,60.4467771187384,2024-11-25 11h20.58.402973 +0100,
36,150,0,33,None,51,51,0,True,,,,left,1.1898530820035376,None,,,,,,,,,,,,,0,51,51,51,630.0436051029901,,,,,,,,,,,,,,,,,,,,,,,,,,,,,,,,,,,,,,,,,,,,,,,,,,,,,,,,,,,,,,,,,,,,,,,630.0327952750013,630.0436051029901,631.0434195490016,632.0269231619968,632.0269231619968,632.0269231619968,633.2286723049983,left,1.1898530820035376,None,,,,,,,,,,,616216,001,2024-11-25_11h20.42.804,Test,2024.2.1,60.4467771187384,2024-11-25 11h20.58.402973 +0100,
69,150,180,66,None,52,52,0,True,,,,left,0.9501294699875871,None,,,,,,,,,,,,,0,52,52,52,633.2440092669931,,,,,,,,,,,,,,,,,,,,,,,,,,,,,,,,,,,,,,,,,,,,,,,,,,,,,,,,,,,,,,,,,,,,,,,633.2336994249999,633.2440092669931,634.2449428949985,635.2452523780012,635.2452523780012,635.2452523780012,636.213168137001,left,0.9501294699875871,None,,,,,,,,,,,616216,001,2024-11-25_11h20.42.804,Test,2024.2.1,60.4467771187384,2024-11-25 11h20.58.402973 +0100,
50,150,60,57,None,53,53,0,True,,,,right,0.9431236280070152,None,,,,,,,,,,,,,0,53,53,53,636.2302068999925,,,,,,,,,,,,,,,,,,,,,,,,,,,,,,,,,,,,,,,,,,,,,,,,,,,,,,,,,,,,,,,,,,,,,,,636.2213058889974,636.2302068999925,637.2443929049987,638.227239339998,638.227239339998,638.227239339998,639.1792167710009,right,0.9431236280070152,None,,,,,,,,,,,616216,001,2024-11-25_11h20.42.804,Test,2024.2.1,60.4467771187384,2024-11-25 11h20.58.402973 +0100,
41,150,30,58,None,54,54,0,True,,,,left,1.528100152994739,None,,,,,,,,,,,,,0,54,54,54,639.1951145150015,,,,,,,,,,,,,,,,,,,,,,,,,,,,,,,,,,,,,,,,,,,,,,,,,,,,,,,,,,,,,,,,,,,,,,,639.1853485779939,639.1951145150015,640.1953528919912,641.1948170879987,641.1948170879987,641.1948170879987,642.72919584599,left,1.528100152994739,None,,,,,,,,,,,616216,001,2024-11-25_11h20.42.804,Test,2024.2.1,60.4467771187384,2024-11-25 11h20.58.402973 +0100,
2,150,0,1,None,55,55,0,False,,,,left,0.9832028889941284,None,,,,,,,,,,,,,0,55,55,55,642.7440885129981,,,,,,,,,,,,,,,,,,,,,,,,,,,,,,,,,,,,,,,,,,,,,,,,,,,,,,,,,,,,,,,,,,,,,,,642.7342762919943,642.7440885129981,643.7446370280013,644.7280241339977,644.7280241339977,644.7280241339977,645.714260574001,left,0.9832028889941284,None,,,,,,,,,,,616216,001,2024-11-25_11h20.42.804,Test,2024.2.1,60.4467771187384,2024-11-25 11h20.58.402973 +0100,
68,150,180,41,None,56,56,0,True,,,,right,1.044555615997524,None,,,,,,,,,,,,,0,56,56,56,645.7292377539925,,,,,,,,,,,,,,,,,,,,,,,,,,,,,,,,,,,,,,,,,,,,,,,,,,,,,,,,,,,,,,,,,,,,,,,645.7204939129952,645.7292377539925,646.7284694889895,647.7283898230016,647.7283898230016,647.7283898230016,648.7800006469988,right,1.044555615997524,None,,,,,,,,,,,616216,001,2024-11-25_11h20.42.804,Test,2024.2.1,60.4467771187384,2024-11-25 11h20.58.402973 +0100,
35,150,180,16,None,57,57,0,False,,,,right,0.7723577279975871,None,,,,,,,,,,,,,0,57,57,57,648.7945772820021,,,,,,,,,,,,,,,,,,,,,,,,,,,,,,,,,,,,,,,,,,,,,,,,,,,,,,,,,,,,,,,,,,,,,,,648.7854843439927,648.7945772820021,649.7958135699955,650.7951762169905,650.7951762169905,650.7951762169905,651.5799458509937,right,0.7723577279975871,None,,,,,,,,,,,616216,001,2024-11-25_11h20.42.804,Test,2024.2.1,60.4467771187384,2024-11-25 11h20.58.402973 +0100,
58,150,120,12,None,58,58,0,True,,,,right,1.1877621159947012,None,,,,,,,,,,,,,0,58,58,58,651.5961133009914,,,,,,,,,,,,,,,,,,,,,,,,,,,,,,,,,,,,,,,,,,,,,,,,,,,,,,,,,,,,,,,,,,,,,,,651.5872128819974,651.5961133009914,652.5956373839945,653.5798556189911,653.5798556189911,653.5798556189911,654.7810395089982,right,1.1877621159947012,None,,,,,,,,,,,616216,001,2024-11-25_11h20.42.804,Test,2024.2.1,60.4467771187384,2024-11-25 11h20.58.402973 +0100,
43,150,30,47,None,59,59,0,True,,,,right,1.2010223160032183,None,,,,,,,,,,,,,0,59,59,59,654.7964198369955,,,,,,,,,,,,,,,,,,,,,,,,,,,,,,,,,,,,,,,,,,,,,,,,,,,,,,,,,,,,,,,,,,,,,,,654.7872435120007,654.7964198369955,655.7956979980008,656.7955742279955,656.7955742279955,656.7955742279955,657.9990416599976,right,1.2010223160032183,None,,,,,,,,,,,616216,001,2024-11-25_11h20.42.804,Test,2024.2.1,60.4467771187384,2024-11-25 11h20.58.402973 +0100,
4,150,0,48,None,60,60,0,False,,,,left,1.0818962799967267,None,,,,,,,,,,,,,0,60,60,60,658.013896454002,,,,,,,,,,,,,,,,,,,,,,,,,,,,,,,,,,,,,,,,,,,,,,,,,,,,,,,,,,,,,,,,,,,,,,,658.0041605950028,658.013896454002,659.0291014399918,660.0141616480032,660.0141616480032,660.0141616480032,661.1006759950033,left,1.0818962799967267,None,,,,,,,,,,,616216,001,2024-11-25_11h20.42.804,Test,2024.2.1,60.4467771187384,2024-11-25 11h20.58.402973 +0100,
5,150,0,55,None,61,61,0,False,,,,right,1.0872609420039225,None,,,,,,,,,,,,,0,61,61,61,661.116080587999,,,,,,,,,,,,,,,,,,,,,,,,,,,,,,,,,,,,,,,,,,,,,,,,,,,,,,,,,,,,,,,,,,,,,,,661.1069727779904,661.116080587999,662.1293639110008,663.1120760029953,663.1120760029953,663.1120760029953,664.2143764970024,right,1.0872609420039225,None,,,,,,,,,,,616216,001,2024-11-25_11h20.42.804,Test,2024.2.1,60.4467771187384,2024-11-25 11h20.58.402973 +0100,
31,150,180,35,None,62,62,0,False,,,,right,0.8749408709991258,None,,,,,,,,,,,,,0,62,62,62,664.2292522440039,,,,,,,,,,,,,,,,,,,,,,,,,,,,,,,,,,,,,,,,,,,,,,,,,,,,,,,,,,,,,,,,,,,,,,,664.2200829180001,664.2292522440039,665.2296145130022,666.2303037210004,666.2303037210004,666.2303037210004,667.1157832009994,right,0.8749408709991258,None,,,,,,,,,,,616216,001,2024-11-25_11h20.42.804,Test,2024.2.1,60.4467771187384,2024-11-25 11h20.58.402973 +0100,
16,150,90,28,None,63,63,0,False,,,,right,0.8698161829961464,None,,,,,,,,,,,,,0,63,63,63,667.131268471996,,,,,,,,,,,,,,,,,,,,,,,,,,,,,,,,,,,,,,,,,,,,,,,,,,,,,,,,,,,,,,,,,,,,,,,667.122023787997,667.131268471996,668.1468042260021,669.1297089969958,669.1297089969958,669.1297089969958,670.0158042699986,right,0.8698161829961464,None,,,,,,,,,,,616216,001,2024-11-25_11h20.42.804,Test,2024.2.1,60.4467771187384,2024-11-25 11h20.58.402973 +0100,
9,150,30,15,None,64,64,0,False,,,,left,1.03515215900552,None,,,,,,,,,,,,,0,64,64,64,670.0317220099896,,,,,,,,,,,,,,,,,,,,,,,,,,,,,,,,,,,,,,,,,,,,,,,,,,,,,,,,,,,,,,,,,,,,,,,670.0215816899945,670.0317220099896,671.0465137549982,672.1554844139973,672.1554844139973,672.1554844139973,673.1979425980026,left,1.03515215900552,None,,,,,,,,,,,616216,001,2024-11-25_11h20.42.804,Test,2024.2.1,60.4467771187384,2024-11-25 11h20.58.402973 +0100,
18,150,90,60,None,65,65,0,False,,,,right,0.7617301300051622,None,,,,,,,,,,,,,0,65,65,65,673.2137520280012,,,,,,,,,,,,,,,,,,,,,,,,,,,,,,,,,,,,,,,,,,,,,,,,,,,,,,,,,,,,,,,,,,,,,,,673.2036395069954,673.2137520280012,674.2132537869984,675.2132759140004,675.2132759140004,675.2132759140004,675.981787122997,right,0.7617301300051622,None,,,,,,,,,,,616216,001,2024-11-25_11h20.42.804,Test,2024.2.1,60.4467771187384,2024-11-25 11h20.58.402973 +0100,
63,150,150,3,None,66,66,0,True,,,,right,1.6005949090031208,None,,,,,,,,,,,,,0,66,66,66,675.9969571579932,,,,,,,,,,,,,,,,,,,,,,,,,,,,,,,,,,,,,,,,,,,,,,,,,,,,,,,,,,,,,,,,,,,,,,,675.9877076530029,675.9969571579932,676.9966946629938,677.9977135070003,677.9977135070003,677.9977135070003,679.6155524959977,right,1.6005949090031208,None,,,,,,,,,,,616216,001,2024-11-25_11h20.42.804,Test,2024.2.1,60.4467771187384,2024-11-25 11h20.58.402973 +0100,
7,150,30,56,None,67,67,0,False,,,,left,0.9028137749992311,None,,,,,,,,,,,,,0,67,67,67,679.6305972329938,,,,,,,,,,,,,,,,,,,,,,,,,,,,,,,,,,,,,,,,,,,,,,,,,,,,,,,,,,,,,,,,,,,,,,,679.6217232409908,679.6305972329938,680.6317738369908,681.6309749439897,681.6309749439897,681.6309749439897,682.5495384939932,left,0.9028137749992311,None,,,,,,,,,,,616216,001,2024-11-25_11h20.42.804,Test,2024.2.1,60.4467771187384,2024-11-25 11h20.58.402973 +0100,
60,150,120,31,None,68,68,0,True,,,,left,1.1081901449942961,None,,,,,,,,,,,,,0,68,68,68,682.5644934459924,,,,,,,,,,,,,,,,,,,,,,,,,,,,,,,,,,,,,,,,,,,,,,,,,,,,,,,,,,,,,,,,,,,,,,,682.5551664149898,682.5644934459924,683.5652021350033,684.5641903389987,684.5641903389987,684.5641903389987,685.682274600993,left,1.1081901449942961,None,,,,,,,,,,,616216,001,2024-11-25_11h20.42.804,Test,2024.2.1,60.4467771187384,2024-11-25 11h20.58.402973 +0100,
70,150,180,54,None,69,69,0,True,,,,left,0.9398592810030095,None,,,,,,,,,,,,,0,69,69,69,685.6977734890024,,,,,,,,,,,,,,,,,,,,,,,,,,,,,,,,,,,,,,,,,,,,,,,,,,,,,,,,,,,,,,,,,,,,,,,685.6882377349903,685.6977734890024,686.6972551489962,687.680941052,687.680941052,687.680941052,688.6327723089998,left,0.9398592810030095,None,,,,,,,,,,,616216,001,2024-11-25_11h20.42.804,Test,2024.2.1,60.4467771187384,2024-11-25 11h20.58.402973 +0100,
,,,,,,,,,,,,,,,,,,,,,,,,,,,,,,,,,,,,,,,,,,,,,,,,,,,,,,,,,,,,,,,,,,,,,,,,,,,,,,,,,,,,,,,,,,,,,,,,,,,,,,,,,,,,,,,,,,,688.6329428859972,688.6480032489999,688.6480032489999,690.9157507629934,space,2.25553046099958,None,616216,001,2024-11-25_11h20.42.804,Test,2024.2.1,60.4467771187384,2024-11-25 11h20.58.402973 +0100,
