Trial_Number,Exposure_Duration,Displacement_Angle,Stimulus,Response,thisN,thisTrialN,thisRepN,Is_Distractor,key_resp_3.keys,key_resp_3.rt,key_resp_3.duration,key_resp_7.keys,key_resp_7.rt,key_resp_7.duration,trials.thisRepN,trials.thisTrialN,trials.thisN,trials.thisIndex,trials_2.thisRepN,trials_2.thisTrialN,trials_2.thisN,trials_2.thisIndex,trials_3.thisRepN,trials_3.thisTrialN,trials_3.thisN,trials_3.thisIndex,trials_4.thisRepN,trials_4.thisTrialN,trials_4.thisN,trials_4.thisIndex,thisRow.t,notes,Intro_to_experiment.started,important1_2.started,key_resp_8.started,Intro_to_experiment.stopped,key_resp_8.keys,key_resp_8.rt,key_resp_8.duration,important.started,important1.started,key_resp_4.started,important.stopped,key_resp_4.keys,key_resp_4.rt,key_resp_4.duration,training_instruction.started,key_resp_9.started,important1_3.started,training_instruction.stopped,key_resp_9.keys,key_resp_9.rt,key_resp_9.duration,training_trial.started,cross.started,image.started,aperture.started,cross.stopped,image.stopped,aperture.stopped,training_trial.stopped,New_instruction.started,text.started,key_resp_2.started,New_instruction.stopped,key_resp_2.keys,key_resp_2.rt,key_resp_2.duration,test_trial.started,cross2.started,cross2.stopped,image_2.started,key_resp_3.started,aperture_2.started,test_trial.stopped,trials_2.key_resp_3.keys,trials_2.key_resp_3.rt,trials_2.key_resp_3.duration,image_2.stopped,text_3.started,aperture_2.stopped,start_blok_2.started,key_resp_5.started,text_4.started,start_blok_2.stopped,key_resp_5.keys,key_resp_5.rt,key_resp_5.duration,training_2.started,cross_2.started,image_3.started,aperture_3.started,cross_2.stopped,image_3.stopped,aperture_3.stopped,training_2.stopped,nyeste_instruks.started,text_5.started,key_resp_6.started,nyeste_instruks.stopped,key_resp_6.keys,key_resp_6.rt,key_resp_6.duration,test_2.started,cross2_2.started,cross2_2.stopped,image_4.started,key_resp_7.started,aperture_4.started,test_2.stopped,trials_4.key_resp_7.keys,trials_4.key_resp_7.rt,trials_4.key_resp_7.duration,Instruction.started,Instruktion.started,key_resp.started,Instruction.stopped,key_resp.keys,key_resp.rt,key_resp.duration,participant,session,date,expName,psychopyVersion,frameRate,expStart,
,,,,,,,,,,,,,,,,,,,,,,,,,,,,,,,,,0.00624145899200812,0.012327333999564871,0.012327333999564871,39.06541195898899,space,39.01920254199649,None,,,,,,,,,,,,,,,,,,,,,,,,,,,,,,,,,,,,,,,,,,,,,,,,,,,,,,,,,,,,,,,,,,,,,,,,,,,,,,,,,,624666,001,2024-11-28_15h10.42.067,Test,2024.2.4,None,2024-11-28 15h10.51.022887 +0100,
,,,,,,,,,,,,,,,,,,,,,,,,,,,,,,,,,,,,,,,,39.06551554199541,39.10030462499708,39.10030462499708,56.084026249998715,space,16.978376958024455,None,,,,,,,,,,,,,,,,,,,,,,,,,,,,,,,,,,,,,,,,,,,,,,,,,,,,,,,,,,,,,,,,,,,,,,,,,,,624666,001,2024-11-28_15h10.42.067,Test,2024.2.4,None,2024-11-28 15h10.51.022887 +0100,
,,,,,,,,,,,,,,,,,,,,,,,,,,,,,,,,,,,,,,,,,,,,,,,56.084119874984026,56.1077111249906,56.1077111249906,70.00745341699803,space,13.89572479200433,None,,,,,,,,,,,,,,,,,,,,,,,,,,,,,,,,,,,,,,,,,,,,,,,,,,,,,,,,,,,,,,,,,,,,624666,001,2024-11-28_15h10.42.067,Test,2024.2.4,None,2024-11-28 15h10.51.022887 +0100,
30,150,150,50,None,0,0,0,,,,,,,,0,0,0,29,,,,,,,,,,,,,70.0461450839939,,,,,,,,,,,,,,,,,,,,,,,70.03773587499745,70.0461450839939,70.2150585000054,70.2150585000054,70.23661845899187,71.9144847499847,71.9144847499847,71.8992374590016,,,,,,,,,,,,,,,,,,,,,,,,,,,,,,,,,,,,,,,,,,,,,,,,,,,,,,,,,,,,624666,001,2024-11-28_15h10.42.067,Test,2024.2.4,None,2024-11-28 15h10.51.022887 +0100,
25,150,120,54,None,1,1,0,,,,,,,,0,1,1,24,,,,,,,,,,,,,71.9144847499847,,,,,,,,,,,,,,,,,,,,,,,71.90957829199033,71.9144847499847,72.1047531249933,72.1047531249933,72.1047531249933,73.80250754198642,73.80250754198642,73.78846941699157,,,,,,,,,,,,,,,,,,,,,,,,,,,,,,,,,,,,,,,,,,,,,,,,,,,,,,,,,,,,624666,001,2024-11-28_15h10.42.067,Test,2024.2.4,None,2024-11-28 15h10.51.022887 +0100,
34,150,180,20,None,2,2,0,,,,,,,,0,2,2,33,,,,,,,,,,,,,73.80250754198642,,,,,,,,,,,,,,,,,,,,,,,73.79809524997836,73.81488108399208,74.00462645900552,74.00462645900552,74.00462645900552,75.7010942089837,75.7010942089837,75.68853654200211,,,,,,,,,,,,,,,,,,,,,,,,,,,,,,,,,,,,,,,,,,,,,,,,,,,,,,,,,,,,624666,001,2024-11-28_15h10.42.067,Test,2024.2.4,None,2024-11-28 15h10.51.022887 +0100,
4,150,0,33,None,3,3,0,,,,,,,,0,3,3,3,,,,,,,,,,,,,75.7010942089837,,,,,,,,,,,,,,,,,,,,,,,75.69671024999116,75.71501241700025,75.90540537500056,75.90540537500056,75.90540537500056,77.60249370898237,77.60249370898237,77.58844212497934,,,,,,,,,,,,,,,,,,,,,,,,,,,,,,,,,,,,,,,,,,,,,,,,,,,,,,,,,,,,624666,001,2024-11-28_15h10.42.067,Test,2024.2.4,None,2024-11-28 15h10.51.022887 +0100,
28,150,150,56,None,4,4,0,,,,,,,,0,4,4,27,,,,,,,,,,,,,77.60249370898237,,,,,,,,,,,,,,,,,,,,,,,77.59781679199659,77.61513583399937,77.80527958399034,77.80527958399034,77.80527958399034,79.50056979199871,79.50056979199871,79.48851737499353,,,,,,,,,,,,,,,,,,,,,,,,,,,,,,,,,,,,,,,,,,,,,,,,,,,,,,,,,,,,624666,001,2024-11-28_15h10.42.067,Test,2024.2.4,None,2024-11-28 15h10.51.022887 +0100,
33,150,180,32,None,5,5,0,,,,,,,,0,5,5,32,,,,,,,,,,,,,79.50056979199871,,,,,,,,,,,,,,,,,,,,,,,79.49599399999715,79.51495312497718,79.7046111249947,79.7046111249947,79.7046111249947,81.40079795898055,81.40079795898055,81.3887018339883,,,,,,,,,,,,,,,,,,,,,,,,,,,,,,,,,,,,,,,,,,,,,,,,,,,,,,,,,,,,624666,001,2024-11-28_15h10.42.067,Test,2024.2.4,None,2024-11-28 15h10.51.022887 +0100,
26,150,150,16,None,6,6,0,,,,,,,,0,6,6,25,,,,,,,,,,,,,81.40079795898055,,,,,,,,,,,,,,,,,,,,,,,81.3963104999857,81.41503366699908,81.60539124999195,81.60539124999195,81.60539124999195,83.31497099998523,83.31497099998523,83.29942933400162,,,,,,,,,,,,,,,,,,,,,,,,,,,,,,,,,,,,,,,,,,,,,,,,,,,,,,,,,,,,624666,001,2024-11-28_15h10.42.067,Test,2024.2.4,None,2024-11-28 15h10.51.022887 +0100,
13,150,60,51,None,7,7,0,,,,,,,,0,7,7,12,,,,,,,,,,,,,83.31497099998523,,,,,,,,,,,,,,,,,,,,,,,83.30958408399601,83.31497099998523,83.50462387499283,83.50462387499283,83.50462387499283,85.20294449999346,85.20294449999346,85.1896402919956,,,,,,,,,,,,,,,,,,,,,,,,,,,,,,,,,,,,,,,,,,,,,,,,,,,,,,,,,,,,624666,001,2024-11-28_15h10.42.067,Test,2024.2.4,None,2024-11-28 15h10.51.022887 +0100,
21,150,120,61,None,8,8,0,,,,,,,,0,8,8,20,,,,,,,,,,,,,85.20294449999346,,,,,,,,,,,,,,,,,,,,,,,85.1981500419788,85.21498608399997,85.40500191698084,85.40500191698084,85.40500191698084,87.11312079199706,87.11312079199706,87.09916558398982,,,,,,,,,,,,,,,,,,,,,,,,,,,,,,,,,,,,,,,,,,,,,,,,,,,,,,,,,,,,624666,001,2024-11-28_15h10.42.067,Test,2024.2.4,None,2024-11-28 15h10.51.022887 +0100,
6,150,30,3,None,9,9,0,,,,,,,,0,9,9,5,,,,,,,,,,,,,87.11312079199706,,,,,,,,,,,,,,,,,,,,,,,87.10771145898616,87.11312079199706,87.30548962499597,87.30548962499597,87.30548962499597,89.00056416698499,89.00056416698499,88.98851695898338,,,,,,,,,,,,,,,,,,,,,,,,,,,,,,,,,,,,,,,,,,,,,,,,,,,,,,,,,,,,624666,001,2024-11-28_15h10.42.067,Test,2024.2.4,None,2024-11-28 15h10.51.022887 +0100,
19,150,90,10,None,10,10,0,,,,,,,,0,10,10,18,,,,,,,,,,,,,89.00056416698499,,,,,,,,,,,,,,,,,,,,,,,88.99584208399756,89.0149204999907,89.20510170899797,89.20510170899797,89.20510170899797,90.90246670899796,90.90246670899796,90.88951862498652,,,,,,,,,,,,,,,,,,,,,,,,,,,,,,,,,,,,,,,,,,,,,,,,,,,,,,,,,,,,624666,001,2024-11-28_15h10.42.067,Test,2024.2.4,None,2024-11-28 15h10.51.022887 +0100,
12,150,60,40,None,11,11,0,,,,,,,,0,11,11,11,,,,,,,,,,,,,90.90246670899796,,,,,,,,,,,,,,,,,,,,,,,90.89801995898597,90.91495929198572,91.105182875006,91.105182875006,91.105182875006,92.80110354200588,92.80110354200588,92.7885514999798,,,,,,,,,,,,,,,,,,,,,,,,,,,,,,,,,,,,,,,,,,,,,,,,,,,,,,,,,,,,624666,001,2024-11-28_15h10.42.067,Test,2024.2.4,None,2024-11-28 15h10.51.022887 +0100,
23,150,120,29,None,12,12,0,,,,,,,,0,12,12,22,,,,,,,,,,,,,92.80110354200588,,,,,,,,,,,,,,,,,,,,,,,92.7967361669871,92.81503899997915,93.00454741698923,93.00454741698923,93.00454741698923,94.70178316699457,94.70178316699457,94.68860208400292,,,,,,,,,,,,,,,,,,,,,,,,,,,,,,,,,,,,,,,,,,,,,,,,,,,,,,,,,,,,624666,001,2024-11-28_15h10.42.067,Test,2024.2.4,None,2024-11-28 15h10.51.022887 +0100,
35,150,180,62,None,13,13,0,,,,,,,,0,13,13,34,,,,,,,,,,,,,94.70178316699457,,,,,,,,,,,,,,,,,,,,,,,94.69739562500035,94.71495341698756,94.9051382500038,94.9051382500038,94.9051382500038,96.61314304199186,96.61314304199186,96.59941741699004,,,,,,,,,,,,,,,,,,,,,,,,,,,,,,,,,,,,,,,,,,,,,,,,,,,,,,,,,,,,624666,001,2024-11-28_15h10.42.067,Test,2024.2.4,None,2024-11-28 15h10.51.022887 +0100,
3,150,0,44,None,14,14,0,,,,,,,,0,14,14,2,,,,,,,,,,,,,96.61314304199186,,,,,,,,,,,,,,,,,,,,,,,96.60769370899652,96.61314304199186,96.80567912498373,96.80567912498373,96.80567912498373,98.51369145899662,98.51369145899662,98.49923554199631,,,,,,,,,,,,,,,,,,,,,,,,,,,,,,,,,,,,,,,,,,,,,,,,,,,,,,,,,,,,624666,001,2024-11-28_15h10.42.067,Test,2024.2.4,None,2024-11-28 15h10.51.022887 +0100,
17,150,90,68,None,15,15,0,,,,,,,,0,15,15,16,,,,,,,,,,,,,98.51369145899662,,,,,,,,,,,,,,,,,,,,,,,98.50833666700055,98.51369145899662,98.70551158400485,98.70551158400485,98.70551158400485,100.41420987498714,100.41420987498714,100.39952499998617,,,,,,,,,,,,,,,,,,,,,,,,,,,,,,,,,,,,,,,,,,,,,,,,,,,,,,,,,,,,624666,001,2024-11-28_15h10.42.067,Test,2024.2.4,None,2024-11-28 15h10.51.022887 +0100,
18,150,90,45,None,16,16,0,,,,,,,,0,16,16,17,,,,,,,,,,,,,100.41420987498714,,,,,,,,,,,,,,,,,,,,,,,100.40894449999905,100.41420987498714,100.60542624999653,100.60542624999653,100.60542624999653,102.30193041698658,102.30193041698658,102.2889422919834,,,,,,,,,,,,,,,,,,,,,,,,,,,,,,,,,,,,,,,,,,,,,,,,,,,,,,,,,,,,624666,001,2024-11-28_15h10.42.067,Test,2024.2.4,None,2024-11-28 15h10.51.022887 +0100,
5,150,0,8,None,17,17,0,,,,,,,,0,17,17,4,,,,,,,,,,,,,102.30193041698658,,,,,,,,,,,,,,,,,,,,,,,102.29749274998903,102.31505424997886,102.50544499998796,102.50544499998796,102.50544499998796,104.2073714589933,104.2073714589933,104.188592874998,,,,,,,,,,,,,,,,,,,,,,,,,,,,,,,,,,,,,,,,,,,,,,,,,,,,,,,,,,,,624666,001,2024-11-28_15h10.42.067,Test,2024.2.4,None,2024-11-28 15h10.51.022887 +0100,
1,150,0,34,None,18,18,0,,,,,,,,0,18,18,0,,,,,,,,,,,,,104.2073714589933,,,,,,,,,,,,,,,,,,,,,,,104.20284787498531,104.2148754170048,104.40949224997894,104.40949224997894,104.40949224997894,106.11514354200335,106.11514354200335,106.09945104198414,,,,,,,,,,,,,,,,,,,,,,,,,,,,,,,,,,,,,,,,,,,,,,,,,,,,,,,,,,,,624666,001,2024-11-28_15h10.42.067,Test,2024.2.4,None,2024-11-28 15h10.51.022887 +0100,
16,150,90,25,None,19,19,0,,,,,,,,0,19,19,15,,,,,,,,,,,,,106.11514354200335,,,,,,,,,,,,,,,,,,,,,,,106.10964166698977,106.11514354200335,106.30525224999292,106.30525224999292,106.30525224999292,108.00096274999669,108.00096274999669,107.98863516698475,,,,,,,,,,,,,,,,,,,,,,,,,,,,,,,,,,,,,,,,,,,,,,,,,,,,,,,,,,,,624666,001,2024-11-28_15h10.42.067,Test,2024.2.4,None,2024-11-28 15h10.51.022887 +0100,
32,150,180,5,None,20,20,0,,,,,,,,0,20,20,31,,,,,,,,,,,,,108.00096274999669,,,,,,,,,,,,,,,,,,,,,,,107.99662120899302,108.0149059999967,108.20466254200437,108.20466254200437,108.20466254200437,109.90189329200075,109.90189329200075,109.88856558399857,,,,,,,,,,,,,,,,,,,,,,,,,,,,,,,,,,,,,,,,,,,,,,,,,,,,,,,,,,,,624666,001,2024-11-28_15h10.42.067,Test,2024.2.4,None,2024-11-28 15h10.51.022887 +0100,
29,150,150,4,None,21,21,0,,,,,,,,0,21,21,28,,,,,,,,,,,,,109.90189329200075,,,,,,,,,,,,,,,,,,,,,,,109.89746745899902,109.9149575420015,110.10493037500419,110.10493037500419,110.10493037500419,111.81360741698882,111.81360741698882,111.79948583399528,,,,,,,,,,,,,,,,,,,,,,,,,,,,,,,,,,,,,,,,,,,,,,,,,,,,,,,,,,,,624666,001,2024-11-28_15h10.42.067,Test,2024.2.4,None,2024-11-28 15h10.51.022887 +0100,
2,150,0,53,None,22,22,0,,,,,,,,0,22,22,1,,,,,,,,,,,,,111.81360741698882,,,,,,,,,,,,,,,,,,,,,,,111.80818783398718,111.81360741698882,112.0056571669993,112.0056571669993,112.0056571669993,113.71370295897941,113.71370295897941,113.69949895900209,,,,,,,,,,,,,,,,,,,,,,,,,,,,,,,,,,,,,,,,,,,,,,,,,,,,,,,,,,,,624666,001,2024-11-28_15h10.42.067,Test,2024.2.4,None,2024-11-28 15h10.51.022887 +0100,
15,150,60,2,None,23,23,0,,,,,,,,0,23,23,14,,,,,,,,,,,,,113.71370295897941,,,,,,,,,,,,,,,,,,,,,,,113.70836291697924,113.71370295897941,113.90537079199567,113.90537079199567,113.90537079199567,115.60117583398824,115.60117583398824,115.5888151669933,,,,,,,,,,,,,,,,,,,,,,,,,,,,,,,,,,,,,,,,,,,,,,,,,,,,,,,,,,,,624666,001,2024-11-28_15h10.42.067,Test,2024.2.4,None,2024-11-28 15h10.51.022887 +0100,
11,150,60,26,None,24,24,0,,,,,,,,0,24,24,10,,,,,,,,,,,,,115.60117583398824,,,,,,,,,,,,,,,,,,,,,,,115.59668404198601,115.61499337499845,115.80546737500117,115.80546737500117,115.80546737500117,117.51344916698872,117.51344916698872,117.49928566699964,,,,,,,,,,,,,,,,,,,,,,,,,,,,,,,,,,,,,,,,,,,,,,,,,,,,,,,,,,,,624666,001,2024-11-28_15h10.42.067,Test,2024.2.4,None,2024-11-28 15h10.51.022887 +0100,
22,150,120,66,None,25,25,0,,,,,,,,0,25,25,21,,,,,,,,,,,,,117.51344916698872,,,,,,,,,,,,,,,,,,,,,,,117.50804554199567,117.51344916698872,117.705087291979,117.705087291979,117.705087291979,119.40120979200583,119.40120979200583,119.38875225000083,,,,,,,,,,,,,,,,,,,,,,,,,,,,,,,,,,,,,,,,,,,,,,,,,,,,,,,,,,,,624666,001,2024-11-28_15h10.42.067,Test,2024.2.4,None,2024-11-28 15h10.51.022887 +0100,
31,150,180,67,None,26,26,0,,,,,,,,0,26,26,30,,,,,,,,,,,,,119.40120979200583,,,,,,,,,,,,,,,,,,,,,,,119.39678999999887,119.41516358399531,119.60559929200099,119.60559929200099,119.60559929200099,121.31216249999125,121.31216249999125,121.29937170899939,,,,,,,,,,,,,,,,,,,,,,,,,,,,,,,,,,,,,,,,,,,,,,,,,,,,,,,,,,,,624666,001,2024-11-28_15h10.42.067,Test,2024.2.4,None,2024-11-28 15h10.51.022887 +0100,
7,150,30,31,None,27,27,0,,,,,,,,0,27,27,6,,,,,,,,,,,,,121.31216249999125,,,,,,,,,,,,,,,,,,,,,,,121.30688237497816,121.31216249999125,121.50521112498245,121.50521112498245,121.50521112498245,123.20105629198952,123.20105629198952,123.18843454198213,,,,,,,,,,,,,,,,,,,,,,,,,,,,,,,,,,,,,,,,,,,,,,,,,,,,,,,,,,,,624666,001,2024-11-28_15h10.42.067,Test,2024.2.4,None,2024-11-28 15h10.51.022887 +0100,
10,150,30,60,None,28,28,0,,,,,,,,0,28,28,9,,,,,,,,,,,,,123.20105629198952,,,,,,,,,,,,,,,,,,,,,,,123.19665774999885,123.21509804198286,123.4050731669995,123.4050731669995,123.4050731669995,125.1004103749874,125.1004103749874,125.08831570899929,,,,,,,,,,,,,,,,,,,,,,,,,,,,,,,,,,,,,,,,,,,,,,,,,,,,,,,,,,,,624666,001,2024-11-28_15h10.42.067,Test,2024.2.4,None,2024-11-28 15h10.51.022887 +0100,
24,150,120,11,None,29,29,0,,,,,,,,0,29,29,23,,,,,,,,,,,,,125.1004103749874,,,,,,,,,,,,,,,,,,,,,,,125.0953234169865,125.11493170898757,125.30541220898158,125.30541220898158,125.30541220898158,127.01340374999563,127.01340374999563,126.99943587498274,,,,,,,,,,,,,,,,,,,,,,,,,,,,,,,,,,,,,,,,,,,,,,,,,,,,,,,,,,,,624666,001,2024-11-28_15h10.42.067,Test,2024.2.4,None,2024-11-28 15h10.51.022887 +0100,
20,150,90,55,None,30,30,0,,,,,,,,0,30,30,19,,,,,,,,,,,,,127.01340374999563,,,,,,,,,,,,,,,,,,,,,,,127.00809379198472,127.01340374999563,127.2052478340047,127.2052478340047,127.2052478340047,128.90082291699946,128.90082291699946,128.88860929198563,,,,,,,,,,,,,,,,,,,,,,,,,,,,,,,,,,,,,,,,,,,,,,,,,,,,,,,,,,,,624666,001,2024-11-28_15h10.42.067,Test,2024.2.4,None,2024-11-28 15h10.51.022887 +0100,
14,150,60,41,None,31,31,0,,,,,,,,0,31,31,13,,,,,,,,,,,,,128.90082291699946,,,,,,,,,,,,,,,,,,,,,,,128.89645220898092,128.91513679199852,129.1053657089942,129.1053657089942,129.1053657089942,130.80146133399103,130.80146133399103,130.7888007919828,,,,,,,,,,,,,,,,,,,,,,,,,,,,,,,,,,,,,,,,,,,,,,,,,,,,,,,,,,,,624666,001,2024-11-28_15h10.42.067,Test,2024.2.4,None,2024-11-28 15h10.51.022887 +0100,
8,150,30,52,None,32,32,0,,,,,,,,0,32,32,7,,,,,,,,,,,,,130.80146133399103,,,,,,,,,,,,,,,,,,,,,,,130.79727037498378,130.81501508399379,131.00535633400432,131.00535633400432,131.00535633400432,132.701059583982,132.701059583982,132.68841854200582,,,,,,,,,,,,,,,,,,,,,,,,,,,,,,,,,,,,,,,,,,,,,,,,,,,,,,,,,,,,624666,001,2024-11-28_15h10.42.067,Test,2024.2.4,None,2024-11-28 15h10.51.022887 +0100,
9,150,30,69,None,33,33,0,,,,,,,,0,33,33,8,,,,,,,,,,,,,132.701059583982,,,,,,,,,,,,,,,,,,,,,,,132.69667941698572,132.71508037499734,132.9048242919962,132.9048242919962,132.9048242919962,134.60169812498498,134.60169812498498,134.5888127499784,,,,,,,,,,,,,,,,,,,,,,,,,,,,,,,,,,,,,,,,,,,,,,,,,,,,,,,,,,,,624666,001,2024-11-28_15h10.42.067,Test,2024.2.4,None,2024-11-28 15h10.51.022887 +0100,
27,150,150,35,None,34,34,0,,,,,,,,0,34,34,26,,,,,,,,,,,,,134.60169812498498,,,,,,,,,,,,,,,,,,,,,,,134.59735820899368,134.61503295900184,134.80470887498814,134.80470887498814,134.80470887498814,136.49843725000392,136.49843725000392,136.48850537498947,,,,,,,,,,,,,,,,,,,,,,,,,,,,,,,,,,,,,,,,,,,,,,,,,,,,,,,,,,,,624666,001,2024-11-28_15h10.42.067,Test,2024.2.4,None,2024-11-28 15h10.51.022887 +0100,
,,,,,,,,,,,,,,,,,,,,,,,,,,,,,,,,,,,,,,,,,,,,,,,,,,,,,,,,,,,,,,136.4886817499937,136.5066960839904,136.5066960839904,154.6236209589988,space,18.111042834003456,None,,,,,,,,,,,,,,,,,,,,,,,,,,,,,,,,,,,,,,,,,,,,,,,,,,,,,624666,001,2024-11-28_15h10.42.067,Test,2024.2.4,None,2024-11-28 15h10.51.022887 +0100,
69,150,180,49,None,0,0,0,True,left,2.959871083992766,None,,,,,,,,0,0,0,0,,,,,,,,,154.65381429198897,,,,,,,,,,,,,,,,,,,,,,,,,,,,,,,,,,,,,,154.64407712500542,154.65381429198897,155.64844045898644,156.623184666998,156.623184666998,156.623184666998,159.5903472499922,left,2.959871083992766,None,,,,,,,,,,,,,,,,,,,,,,,,,,,,,,,,,,,,,,,,,,,624666,001,2024-11-28_15h10.42.067,Test,2024.2.4,None,2024-11-28 15h10.51.022887 +0100,
14,150,60,41,None,1,1,0,False,right,0.8802495840063784,None,,,,,,,,0,1,1,1,,,,,,,,,159.62302183400607,,,,,,,,,,,,,,,,,,,,,,,,,,,,,,,,,,,,,,159.5988550419861,159.62302183400607,160.61995566700352,161.5889568339917,161.5889568339917,161.5889568339917,162.4738784999936,right,0.8802495840063784,None,,,,,,,,,,,,,,,,,,,,,,,,,,,,,,,,,,,,,,,,,,,624666,001,2024-11-28_15h10.42.067,Test,2024.2.4,None,2024-11-28 15h10.51.022887 +0100,
41,150,30,7,None,2,2,0,True,left,1.4649492499884218,None,,,,,,,,0,2,2,2,,,,,,,,,162.48853837497882,,,,,,,,,,,,,,,,,,,,,,,,,,,,,,,,,,,,,,162.4825331250031,162.48853837497882,163.48706991699873,164.4720707499946,164.4720707499946,164.4720707499946,165.9399114169937,left,1.4649492499884218,None,,,,,,,,,,,,,,,,,,,,,,,,,,,,,,,,,,,,,,,,,,,624666,001,2024-11-28_15h10.42.067,Test,2024.2.4,None,2024-11-28 15h10.51.022887 +0100,
11,150,60,26,None,3,3,0,False,right,1.2518421249988023,None,,,,,,,,0,3,3,3,,,,,,,,,165.9542551249906,,,,,,,,,,,,,,,,,,,,,,,,,,,,,,,,,,,,,,165.9476875840046,165.9542551249906,166.94837741699303,167.93867829200462,167.93867829200462,167.93867829200462,169.20066316699376,right,1.2518421249988023,None,,,,,,,,,,,,,,,,,,,,,,,,,,,,,,,,,,,,,,,,,,,624666,001,2024-11-28_15h10.42.067,Test,2024.2.4,None,2024-11-28 15h10.51.022887 +0100,
4,150,0,33,None,4,4,0,False,right,1.2791442919988185,None,,,,,,,,0,4,4,4,,,,,,,,,169.2155692089873,,,,,,,,,,,,,,,,,,,,,,,,,,,,,,,,,,,,,,169.20940749999136,169.2155692089873,170.20362237500376,171.19869720897987,171.19869720897987,171.19869720897987,172.4840900839772,right,1.2791442919988185,None,,,,,,,,,,,,,,,,,,,,,,,,,,,,,,,,,,,,,,,,,,,624666,001,2024-11-28_15h10.42.067,Test,2024.2.4,None,2024-11-28 15h10.51.022887 +0100,
62,150,150,13,None,5,5,0,True,right,1.6370397090213373,None,,,,,,,,0,5,5,5,,,,,,,,,172.49919766699895,,,,,,,,,,,,,,,,,,,,,,,,,,,,,,,,,,,,,,172.49268066699733,172.49919766699895,173.48667024998576,174.4818665839848,174.4818665839848,174.4818665839848,176.12306416698266,right,1.6370397090213373,None,,,,,,,,,,,,,,,,,,,,,,,,,,,,,,,,,,,,,,,,,,,624666,001,2024-11-28_15h10.42.067,Test,2024.2.4,None,2024-11-28 15h10.51.022887 +0100,
65,150,150,39,None,6,6,0,True,left,1.4325447500159498,None,,,,,,,,0,6,6,6,,,,,,,,,176.13734158399166,,,,,,,,,,,,,,,,,,,,,,,,,,,,,,,,,,,,,,176.13112308399286,176.13734158399166,177.13171612500446,178.12289816699922,178.12289816699922,178.12289816699922,179.56736099999398,left,1.4325447500159498,None,,,,,,,,,,,,,,,,,,,,,,,,,,,,,,,,,,,,,,,,,,,624666,001,2024-11-28_15h10.42.067,Test,2024.2.4,None,2024-11-28 15h10.51.022887 +0100,
51,150,90,30,None,7,7,0,True,right,1.972231958003249,None,,,,,,,,0,7,7,7,,,,,,,,,179.58230070897844,,,,,,,,,,,,,,,,,,,,,,,,,,,,,,,,,,,,,,179.57564816699596,179.58230070897844,180.57111470898963,181.5652722090017,181.5652722090017,181.5652722090017,183.54014075000305,right,1.972231958003249,None,,,,,,,,,,,,,,,,,,,,,,,,,,,,,,,,,,,,,,,,,,,624666,001,2024-11-28_15h10.42.067,Test,2024.2.4,None,2024-11-28 15h10.51.022887 +0100,
10,150,30,60,None,8,8,0,False,right,2.4095561249996535,None,,,,,,,,0,8,8,8,,,,,,,,,183.55471341699013,,,,,,,,,,,,,,,,,,,,,,,,,,,,,,,,,,,,,,183.5488068749837,183.55471341699013,184.54843708398403,185.53940483398037,185.53940483398037,185.53940483398037,187.951379584003,right,2.4095561249996535,None,,,,,,,,,,,,,,,,,,,,,,,,,,,,,,,,,,,,,,,,,,,624666,001,2024-11-28_15h10.42.067,Test,2024.2.4,None,2024-11-28 15h10.51.022887 +0100,
66,150,180,24,None,9,9,0,True,left,1.750307917012833,None,,,,,,,,0,9,9,9,,,,,,,,,187.9663832919905,,,,,,,,,,,,,,,,,,,,,,,,,,,,,,,,,,,,,,187.96008391698706,187.9663832919905,188.96508566700504,189.94845437500044,189.94845437500044,189.94845437500044,191.7017000420019,left,1.750307917012833,None,,,,,,,,,,,,,,,,,,,,,,,,,,,,,,,,,,,,,,,,,,,624666,001,2024-11-28_15h10.42.067,Test,2024.2.4,None,2024-11-28 15h10.51.022887 +0100,
30,150,150,50,None,10,10,0,False,left,1.2295272499904968,None,,,,,,,,0,10,10,10,,,,,,,,,191.716105917003,,,,,,,,,,,,,,,,,,,,,,,,,,,,,,,,,,,,,,191.71035916698747,191.716105917003,192.71514899999602,193.69856820898713,193.69856820898713,193.69856820898713,194.93416408399935,left,1.2295272499904968,None,,,,,,,,,,,,,,,,,,,,,,,,,,,,,,,,,,,,,,,,,,,624666,001,2024-11-28_15h10.42.067,Test,2024.2.4,None,2024-11-28 15h10.51.022887 +0100,
9,150,30,69,None,11,11,0,False,right,2.26776287498069,None,,,,,,,,0,11,11,11,,,,,,,,,194.9501394169929,,,,,,,,,,,,,,,,,,,,,,,,,,,,,,,,,,,,,,194.94353525000042,194.9501394169929,195.94848220900167,196.93187237498933,196.93187237498933,196.93187237498933,199.20683833397925,right,2.26776287498069,None,,,,,,,,,,,,,,,,,,,,,,,,,,,,,,,,,,,,,,,,,,,624666,001,2024-11-28_15h10.42.067,Test,2024.2.4,None,2024-11-28 15h10.51.022887 +0100,
55,150,90,59,None,12,12,0,True,left,1.0507045830017887,None,,,,,,,,0,12,12,12,,,,,,,,,199.22088558398536,,,,,,,,,,,,,,,,,,,,,,,,,,,,,,,,,,,,,,199.21509166699252,199.22088558398536,200.2151672919863,201.20630066699232,201.20630066699232,201.20630066699232,202.26715987498756,left,1.0507045830017887,None,,,,,,,,,,,,,,,,,,,,,,,,,,,,,,,,,,,,,,,,,,,624666,001,2024-11-28_15h10.42.067,Test,2024.2.4,None,2024-11-28 15h10.51.022887 +0100,
67,150,180,48,None,13,13,0,True,left,1.8234378330234904,None,,,,,,,,0,13,13,13,,,,,,,,,202.28259245899972,,,,,,,,,,,,,,,,,,,,,,,,,,,,,,,,,,,,,,202.27546466697822,202.28259245899972,203.27038070900016,204.26529141698848,204.26529141698848,204.26529141698848,206.10059441698832,left,1.8234378330234904,None,,,,,,,,,,,,,,,,,,,,,,,,,,,,,,,,,,,,,,,,,,,624666,001,2024-11-28_15h10.42.067,Test,2024.2.4,None,2024-11-28 15h10.51.022887 +0100,
61,150,150,14,None,14,14,0,True,left,1.1168485830130521,None,,,,,,,,0,14,14,14,,,,,,,,,206.11557520899805,,,,,,,,,,,,,,,,,,,,,,,,,,,,,,,,,,,,,,206.10918395899353,206.11557520899805,207.1037630419887,208.0987317090039,208.0987317090039,208.0987317090039,209.21832766698208,left,1.1168485830130521,None,,,,,,,,,,,,,,,,,,,,,,,,,,,,,,,,,,,,,,,,,,,624666,001,2024-11-28_15h10.42.067,Test,2024.2.4,None,2024-11-28 15h10.51.022887 +0100,
57,150,120,43,None,15,15,0,True,left,0.9510813329834491,None,,,,,,,,0,15,15,15,,,,,,,,,209.23325324998586,,,,,,,,,,,,,,,,,,,,,,,,,,,,,,,,,,,,,,209.2273740840028,209.23325324998586,210.2317241669807,211.21534091699868,211.21534091699868,211.21534091699868,212.17334379200474,left,0.9510813329834491,None,,,,,,,,,,,,,,,,,,,,,,,,,,,,,,,,,,,,,,,,,,,624666,001,2024-11-28_15h10.42.067,Test,2024.2.4,None,2024-11-28 15h10.51.022887 +0100,
52,150,90,38,None,16,16,0,True,left,8.498779457993805,None,,,,,,,,0,16,16,16,,,,,,,,,212.18784391699592,,,,,,,,,,,,,,,,,,,,,,,,,,,,,,,,,,,,,,212.18211429199437,212.18784391699592,213.18179858400254,214.17206929199165,214.17206929199165,214.17206929199165,222.67324783399818,left,8.498779457993805,None,217.17355904198484,217.17355904198484,217.17355904198484,,,,,,,,,,,,,,,,,,,,,,,,,,,,,,,,,,,,,,,,624666,001,2024-11-28_15h10.42.067,Test,2024.2.4,None,2024-11-28 15h10.51.022887 +0100,
25,150,120,54,None,17,17,0,False,left,1.249450999981491,None,,,,,,,,0,17,17,17,,,,,,,,,222.68814408397884,,,,,,,,,,,,,,,,,,,,,,,,,,,,,,,,,,,,,,222.6820140419877,222.68814408397884,223.6818166669982,224.67301870899973,224.67301870899973,224.67301870899973,225.93394629200338,left,1.249450999981491,None,,,,,,,,,,,,,,,,,,,,,,,,,,,,,,,,,,,,,,,,,,,624666,001,2024-11-28_15h10.42.067,Test,2024.2.4,None,2024-11-28 15h10.51.022887 +0100,
39,150,0,15,None,18,18,0,True,left,1.105798207980115,None,,,,,,,,0,18,18,18,,,,,,,,,225.94955541699892,,,,,,,,,,,,,,,,,,,,,,,,,,,,,,,,,,,,,,225.94274029199732,225.94955541699892,226.9484324590012,227.93178733400418,227.93178733400418,227.93178733400418,229.03996783398907,left,1.105798207980115,None,,,,,,,,,,,,,,,,,,,,,,,,,,,,,,,,,,,,,,,,,,,624666,001,2024-11-28_15h10.42.067,Test,2024.2.4,None,2024-11-28 15h10.51.022887 +0100,
34,150,180,20,None,19,19,0,False,right,1.2603546249738429,None,,,,,,,,0,19,19,19,,,,,,,,,229.0546550419822,,,,,,,,,,,,,,,,,,,,,,,,,,,,,,,,,,,,,,229.04884495900478,229.0546550419822,230.048383833986,231.03961624999647,231.03961624999647,231.03961624999647,232.30729583400534,right,1.2603546249738429,None,,,,,,,,,,,,,,,,,,,,,,,,,,,,,,,,,,,,,,,,,,,624666,001,2024-11-28_15h10.42.067,Test,2024.2.4,None,2024-11-28 15h10.51.022887 +0100,
15,150,60,2,None,20,20,0,False,left,0.8794358749873936,None,,,,,,,,0,20,20,20,,,,,,,,,232.3215084169933,,,,,,,,,,,,,,,,,,,,,,,,,,,,,,,,,,,,,,232.31579337498988,232.3215084169933,233.31515462498646,234.30634304200066,234.30634304200066,234.30634304200066,235.1903365420003,left,0.8794358749873936,None,,,,,,,,,,,,,,,,,,,,,,,,,,,,,,,,,,,,,,,,,,,624666,001,2024-11-28_15h10.42.067,Test,2024.2.4,None,2024-11-28 15h10.51.022887 +0100,
59,150,120,27,None,21,21,0,True,left,1.0439373329863884,None,,,,,,,,0,21,21,21,,,,,,,,,235.20397104197764,,,,,,,,,,,,,,,,,,,,,,,,,,,,,,,,,,,,,,235.19844591699075,235.20397104197764,236.19852091697976,237.18883749999804,237.18883749999804,237.18883749999804,238.24013479199493,left,1.0439373329863884,None,,,,,,,,,,,,,,,,,,,,,,,,,,,,,,,,,,,,,,,,,,,624666,001,2024-11-28_15h10.42.067,Test,2024.2.4,None,2024-11-28 15h10.51.022887 +0100,
56,150,120,64,None,22,22,0,True,left,1.437769791984465,None,,,,,,,,0,22,22,22,,,,,,,,,238.2544989589951,,,,,,,,,,,,,,,,,,,,,,,,,,,,,,,,,,,,,,238.2486451669829,238.2544989589951,239.25331937498413,240.23845183398225,240.23845183398225,240.23845183398225,241.68458662499324,left,1.437769791984465,None,,,,,,,,,,,,,,,,,,,,,,,,,,,,,,,,,,,,,,,,,,,624666,001,2024-11-28_15h10.42.067,Test,2024.2.4,None,2024-11-28 15h10.51.022887 +0100,
22,150,120,66,None,23,23,0,False,right,1.190970625000773,None,,,,,,,,0,23,23,23,,,,,,,,,241.69975983398035,,,,,,,,,,,,,,,,,,,,,,,,,,,,,,,,,,,,,,241.69329729198944,241.69975983398035,242.69844645899138,243.68186758400407,243.68186758400407,243.68186758400407,244.8829721249931,right,1.190970625000773,None,,,,,,,,,,,,,,,,,,,,,,,,,,,,,,,,,,,,,,,,,,,624666,001,2024-11-28_15h10.42.067,Test,2024.2.4,None,2024-11-28 15h10.51.022887 +0100,
7,150,30,31,None,24,24,0,False,left,2.3905343329824973,None,,,,,,,,0,24,24,24,,,,,,,,,244.89532412498374,,,,,,,,,,,,,,,,,,,,,,,,,,,,,,,,,,,,,,244.89023904199712,244.89532412498374,245.88664212499862,246.88189208399854,246.88189208399854,246.88189208399854,249.28372120897984,left,2.3905343329824973,None,,,,,,,,,,,,,,,,,,,,,,,,,,,,,,,,,,,,,,,,,,,624666,001,2024-11-28_15h10.42.067,Test,2024.2.4,None,2024-11-28 15h10.51.022887 +0100,
58,150,120,63,None,25,25,0,True,left,1.1333980000053998,None,,,,,,,,0,25,25,25,,,,,,,,,249.29897979198722,,,,,,,,,,,,,,,,,,,,,,,,,,,,,,,,,,,,,,249.29236345898244,249.29897979198722,250.28620191698428,251.2819358340057,251.2819358340057,251.2819358340057,252.41832341699046,left,1.1333980000053998,None,,,,,,,,,,,,,,,,,,,,,,,,,,,,,,,,,,,,,,,,,,,624666,001,2024-11-28_15h10.42.067,Test,2024.2.4,None,2024-11-28 15h10.51.022887 +0100,
31,150,180,67,None,26,26,0,False,left,1.8698050420207437,None,,,,,,,,0,26,26,26,,,,,,,,,252.43357774999458,,,,,,,,,,,,,,,,,,,,,,,,,,,,,,,,,,,,,,252.427038541995,252.43357774999458,253.4317487499793,254.41518683399772,254.41518683399772,254.41518683399772,256.29010862499126,left,1.8698050420207437,None,,,,,,,,,,,,,,,,,,,,,,,,,,,,,,,,,,,,,,,,,,,624666,001,2024-11-28_15h10.42.067,Test,2024.2.4,None,2024-11-28 15h10.51.022887 +0100,
16,150,90,25,None,27,27,0,False,right,1.1484718330029864,None,,,,,,,,0,27,27,27,,,,,,,,,256.3047120840056,,,,,,,,,,,,,,,,,,,,,,,,,,,,,,,,,,,,,,256.29863312499947,256.3047120840056,257.30334820898133,258.2889389169868,258.2889389169868,258.2889389169868,259.4397950419807,right,1.1484718330029864,None,,,,,,,,,,,,,,,,,,,,,,,,,,,,,,,,,,,,,,,,,,,624666,001,2024-11-28_15h10.42.067,Test,2024.2.4,None,2024-11-28 15h10.51.022887 +0100,
43,150,30,9,None,28,28,0,True,left,1.0924459579982795,None,,,,,,,,0,28,28,28,,,,,,,,,259.45452458399814,,,,,,,,,,,,,,,,,,,,,,,,,,,,,,,,,,,,,,259.4477826249786,259.45452458399814,260.44844862498576,261.43988870899193,261.43988870899193,261.43988870899193,262.53468479198636,left,1.0924459579982795,None,,,,,,,,,,,,,,,,,,,,,,,,,,,,,,,,,,,,,,,,,,,624666,001,2024-11-28_15h10.42.067,Test,2024.2.4,None,2024-11-28 15h10.51.022887 +0100,
63,150,150,47,None,29,29,0,True,right,1.094300790980924,None,,,,,,,,0,29,29,29,,,,,,,,,262.54888124999707,,,,,,,,,,,,,,,,,,,,,,,,,,,,,,,,,,,,,,262.5426918749872,262.54888124999707,263.53660404199036,264.53184599999804,264.53184599999804,264.53184599999804,265.63439062499674,right,1.094300790980924,None,,,,,,,,,,,,,,,,,,,,,,,,,,,,,,,,,,,,,,,,,,,624666,001,2024-11-28_15h10.42.067,Test,2024.2.4,None,2024-11-28 15h10.51.022887 +0100,
20,150,90,55,None,30,30,0,False,left,1.0399853329872712,None,,,,,,,,0,30,30,30,,,,,,,,,265.64999341699877,,,,,,,,,,,,,,,,,,,,,,,,,,,,,,,,,,,,,,265.64346454199404,265.64999341699877,266.6483880839951,267.6319841670047,267.6319841670047,267.6319841670047,268.6740597089811,left,1.0399853329872712,None,,,,,,,,,,,,,,,,,,,,,,,,,,,,,,,,,,,,,,,,,,,624666,001,2024-11-28_15h10.42.067,Test,2024.2.4,None,2024-11-28 15h10.51.022887 +0100,
27,150,150,35,None,31,31,0,False,left,1.0800214170012623,None,,,,,,,,0,31,31,31,,,,,,,,,268.6889190420043,,,,,,,,,,,,,,,,,,,,,,,,,,,,,,,,,,,,,,268.68290899999556,268.6889190420043,269.68728366697906,270.6725267919828,270.6725267919828,270.6725267919828,271.7570700419892,left,1.0800214170012623,None,,,,,,,,,,,,,,,,,,,,,,,,,,,,,,,,,,,,,,,,,,,624666,001,2024-11-28_15h10.42.067,Test,2024.2.4,None,2024-11-28 15h10.51.022887 +0100,
32,150,180,5,None,32,32,0,False,left,1.432482499978505,None,,,,,,,,0,32,32,32,,,,,,,,,271.7710570000054,,,,,,,,,,,,,,,,,,,,,,,,,,,,,,,,,,,,,,271.7653256249905,271.7710570000054,272.76512475000345,273.75534579198575,273.75534579198575,273.75534579198575,275.19007520898595,left,1.432482499978505,None,,,,,,,,,,,,,,,,,,,,,,,,,,,,,,,,,,,,,,,,,,,624666,001,2024-11-28_15h10.42.067,Test,2024.2.4,None,2024-11-28 15h10.51.022887 +0100,
64,150,150,57,None,33,33,0,True,right,2.434863917005714,None,,,,,,,,0,33,33,33,,,,,,,,,275.20483345899265,,,,,,,,,,,,,,,,,,,,,,,,,,,,,,,,,,,,,,275.198736499995,275.20483345899265,276.19845224998426,277.1894042500062,277.1894042500062,277.1894042500062,279.63449724999373,right,2.434863917005714,None,,,,,,,,,,,,,,,,,,,,,,,,,,,,,,,,,,,,,,,,,,,624666,001,2024-11-28_15h10.42.067,Test,2024.2.4,None,2024-11-28 15h10.51.022887 +0100,
38,150,0,1,None,34,34,0,True,left,0.9194123749912251,None,,,,,,,,0,34,34,34,,,,,,,,,279.6501572499983,,,,,,,,,,,,,,,,,,,,,,,,,,,,,,,,,,,,,,279.64344404198346,279.6501572499983,280.6485129999928,281.6319248749933,281.6319248749933,281.6319248749933,282.55661437500385,left,0.9194123749912251,None,,,,,,,,,,,,,,,,,,,,,,,,,,,,,,,,,,,,,,,,,,,624666,001,2024-11-28_15h10.42.067,Test,2024.2.4,None,2024-11-28 15h10.51.022887 +0100,
21,150,120,61,None,35,35,0,False,left,0.7306846249848604,None,,,,,,,,0,35,35,35,,,,,,,,,282.57054554199567,,,,,,,,,,,,,,,,,,,,,,,,,,,,,,,,,,,,,,282.56439524999587,282.57054554199567,283.56513933397946,284.5554657499888,284.5554657499888,284.5554657499888,285.2902097500046,left,0.7306846249848604,None,,,,,,,,,,,,,,,,,,,,,,,,,,,,,,,,,,,,,,,,,,,624666,001,2024-11-28_15h10.42.067,Test,2024.2.4,None,2024-11-28 15h10.51.022887 +0100,
40,150,0,23,None,36,36,0,True,left,0.9438115419761743,None,,,,,,,,0,36,36,36,,,,,,,,,285.3043869169778,,,,,,,,,,,,,,,,,,,,,,,,,,,,,,,,,,,,,,285.29855137498816,285.3043869169778,286.2983194589906,287.28900654197787,287.28900654197787,287.28900654197787,288.2433897089795,left,0.9438115419761743,None,,,,,,,,,,,,,,,,,,,,,,,,,,,,,,,,,,,,,,,,,,,624666,001,2024-11-28_15h10.42.067,Test,2024.2.4,None,2024-11-28 15h10.51.022887 +0100,
13,150,60,51,None,37,37,0,False,left,1.5198077080131043,None,,,,,,,,0,37,37,37,,,,,,,,,288.2548862499825,,,,,,,,,,,,,,,,,,,,,,,,,,,,,,,,,,,,,,288.25015416697715,288.2548862499825,289.25298558399663,290.2390643339895,290.2390643339895,290.2390643339895,291.7671990839881,left,1.5198077080131043,None,,,,,,,,,,,,,,,,,,,,,,,,,,,,,,,,,,,,,,,,,,,624666,001,2024-11-28_15h10.42.067,Test,2024.2.4,None,2024-11-28 15h10.51.022887 +0100,
5,150,0,8,None,38,38,0,False,left,0.7696708749863319,None,,,,,,,,0,38,38,38,,,,,,,,,291.7820582090062,,,,,,,,,,,,,,,,,,,,,,,,,,,,,,,,,,,,,,291.7758459589968,291.7820582090062,292.7705568340025,293.76519054200617,293.76519054200617,293.76519054200617,294.53997462498955,left,0.7696708749863319,None,,,,,,,,,,,,,,,,,,,,,,,,,,,,,,,,,,,,,,,,,,,624666,001,2024-11-28_15h10.42.067,Test,2024.2.4,None,2024-11-28 15h10.51.022887 +0100,
48,150,60,70,None,39,39,0,True,left,1.1035352089966182,None,,,,,,,,0,39,39,39,,,,,,,,,294.5542821669951,,,,,,,,,,,,,,,,,,,,,,,,,,,,,,,,,,,,,,294.54831625000224,294.5542821669951,295.54845766699873,296.5387543340039,296.5387543340039,296.5387543340039,297.6504909590003,left,1.1035352089966182,None,,,,,,,,,,,,,,,,,,,,,,,,,,,,,,,,,,,,,,,,,,,624666,001,2024-11-28_15h10.42.067,Test,2024.2.4,None,2024-11-28 15h10.51.022887 +0100,
44,150,30,28,None,40,40,0,True,left,1.1108057499805,None,,,,,,,,0,40,40,40,,,,,,,,,297.66566745899036,,,,,,,,,,,,,,,,,,,,,,,,,,,,,,,,,,,,,,297.65914395899745,297.66566745899036,298.6537157089915,299.64861870900495,299.64861870900495,299.64861870900495,300.7671130420058,left,1.1108057499805,None,,,,,,,,,,,,,,,,,,,,,,,,,,,,,,,,,,,,,,,,,,,624666,001,2024-11-28_15h10.42.067,Test,2024.2.4,None,2024-11-28 15h10.51.022887 +0100,
46,150,60,58,None,41,41,0,True,left,0.968755665991921,None,,,,,,,,0,41,41,41,,,,,,,,,300.7825162920053,,,,,,,,,,,,,,,,,,,,,,,,,,,,,,,,,,,,,,300.7761336249823,300.7825162920053,301.769988333981,302.76524924999103,302.76524924999103,302.76524924999103,303.7399837919802,left,0.968755665991921,None,,,,,,,,,,,,,,,,,,,,,,,,,,,,,,,,,,,,,,,,,,,624666,001,2024-11-28_15h10.42.067,Test,2024.2.4,None,2024-11-28 15h10.51.022887 +0100,
50,150,60,17,None,42,42,0,True,left,2.8718100840051193,None,,,,,,,,0,42,42,42,,,,,,,,,303.75459608397796,,,,,,,,,,,,,,,,,,,,,,,,,,,,,,,,,,,,,,303.74851524998667,303.75459608397796,304.74845879198983,305.7389840419928,305.7389840419928,305.7389840419928,308.61711487499997,left,2.8718100840051193,None,,,,,,,,,,,,,,,,,,,,,,,,,,,,,,,,,,,,,,,,,,,624666,001,2024-11-28_15h10.42.067,Test,2024.2.4,None,2024-11-28 15h10.51.022887 +0100,
45,150,30,46,None,43,43,0,True,left,1.0276201670058072,None,,,,,,,,0,43,43,43,,,,,,,,,308.6319824999955,,,,,,,,,,,,,,,,,,,,,,,,,,,,,,,,,,,,,,308.6252865419956,308.6319824999955,309.6202569169982,310.61525387500296,310.61525387500296,310.61525387500296,311.65059408399975,left,1.0276201670058072,None,,,,,,,,,,,,,,,,,,,,,,,,,,,,,,,,,,,,,,,,,,,624666,001,2024-11-28_15h10.42.067,Test,2024.2.4,None,2024-11-28 15h10.51.022887 +0100,
37,150,0,42,None,44,44,0,True,left,1.7387987080146559,None,,,,,,,,0,44,44,44,,,,,,,,,311.6654208340042,,,,,,,,,,,,,,,,,,,,,,,,,,,,,,,,,,,,,,311.65914883400546,311.6654208340042,312.65408870897954,313.6485393749899,313.6485393749899,313.6485393749899,315.39001920897863,left,1.7387987080146559,None,,,,,,,,,,,,,,,,,,,,,,,,,,,,,,,,,,,,,,,,,,,624666,001,2024-11-28_15h10.42.067,Test,2024.2.4,None,2024-11-28 15h10.51.022887 +0100,
68,150,180,12,None,45,45,0,True,left,1.4988169170101173,None,,,,,,,,0,45,45,45,,,,,,,,,315.40453354199417,,,,,,,,,,,,,,,,,,,,,,,,,,,,,,,,,,,,,,315.39846808399307,315.40453354199417,316.398483166995,317.38916274998337,317.38916274998337,317.38916274998337,318.8902806249971,left,1.4988169170101173,None,,,,,,,,,,,,,,,,,,,,,,,,,,,,,,,,,,,,,,,,,,,624666,001,2024-11-28_15h10.42.067,Test,2024.2.4,None,2024-11-28 15h10.51.022887 +0100,
35,150,180,62,None,46,46,0,False,left,1.1929464169952553,None,,,,,,,,0,46,46,46,,,,,,,,,318.90524354198715,,,,,,,,,,,,,,,,,,,,,,,,,,,,,,,,,,,,,,318.8992657089839,318.90524354198715,319.8984534589981,320.88918229198316,320.88918229198316,320.88918229198316,322.0844027499843,left,1.1929464169952553,None,,,,,,,,,,,,,,,,,,,,,,,,,,,,,,,,,,,,,,,,,,,624666,001,2024-11-28_15h10.42.067,Test,2024.2.4,None,2024-11-28 15h10.51.022887 +0100,
26,150,150,16,None,47,47,0,False,right,1.100162500020815,None,,,,,,,,0,47,47,47,,,,,,,,,322.099555333989,,,,,,,,,,,,,,,,,,,,,,,,,,,,,,,,,,,,,,322.09329129199614,322.099555333989,323.09852770899306,324.0819354589912,324.0819354589912,324.0819354589912,325.1845242919808,right,1.100162500020815,None,,,,,,,,,,,,,,,,,,,,,,,,,,,,,,,,,,,,,,,,,,,624666,001,2024-11-28_15h10.42.067,Test,2024.2.4,None,2024-11-28 15h10.51.022887 +0100,
23,150,120,29,None,48,48,0,False,left,1.79426904200227,None,,,,,,,,0,48,48,48,,,,,,,,,325.19927862499026,,,,,,,,,,,,,,,,,,,,,,,,,,,,,,,,,,,,,,325.19332179200137,325.19927862499026,326.1869957089948,327.1819411669858,327.1819411669858,327.1819411669858,328.9840026249876,left,1.79426904200227,None,,,,,,,,,,,,,,,,,,,,,,,,,,,,,,,,,,,,,,,,,,,624666,001,2024-11-28_15h10.42.067,Test,2024.2.4,None,2024-11-28 15h10.51.022887 +0100,
2,150,0,53,None,49,49,0,False,right,1.0168722080125008,None,,,,,,,,0,49,49,49,,,,,,,,,328.9998611249903,,,,,,,,,,,,,,,,,,,,,,,,,,,,,,,,,,,,,,328.9927772920055,328.9998611249903,329.9985145840037,330.9819389169861,330.9819389169861,330.9819389169861,332.00163516699104,right,1.0168722080125008,None,,,,,,,,,,,,,,,,,,,,,,,,,,,,,,,,,,,,,,,,,,,624666,001,2024-11-28_15h10.42.067,Test,2024.2.4,None,2024-11-28 15h10.51.022887 +0100,
42,150,30,36,None,50,50,0,True,left,1.3595846249954775,None,,,,,,,,0,50,50,50,,,,,,,,,332.01623695899616,,,,,,,,,,,,,,,,,,,,,,,,,,,,,,,,,,,,,,332.01016258398886,332.01623695899616,333.0039388339792,333.99857508399873,333.99857508399873,333.99857508399873,335.36743041698355,left,1.3595846249954775,None,,,,,,,,,,,,,,,,,,,,,,,,,,,,,,,,,,,,,,,,,,,624666,001,2024-11-28_15h10.42.067,Test,2024.2.4,None,2024-11-28 15h10.51.022887 +0100,
18,150,90,45,None,51,51,0,False,right,1.473218083003303,None,,,,,,,,0,51,51,51,,,,,,,,,335.3825825419917,,,,,,,,,,,,,,,,,,,,,,,,,,,,,,,,,,,,,,335.3756667090056,335.3825825419917,336.37003820898826,337.36528066699975,337.36528066699975,337.36528066699975,338.8406856249785,right,1.473218083003303,None,,,,,,,,,,,,,,,,,,,,,,,,,,,,,,,,,,,,,,,,,,,624666,001,2024-11-28_15h10.42.067,Test,2024.2.4,None,2024-11-28 15h10.51.022887 +0100,
24,150,120,11,None,52,52,0,False,right,1.8692408339993563,None,,,,,,,,0,52,52,52,,,,,,,,,338.8559743340011,,,,,,,,,,,,,,,,,,,,,,,,,,,,,,,,,,,,,,338.8495396669896,338.8559743340011,339.8537269590015,340.8390739169845,340.8390739169845,340.8390739169845,342.7173115419864,right,1.8692408339993563,None,,,,,,,,,,,,,,,,,,,,,,,,,,,,,,,,,,,,,,,,,,,624666,001,2024-11-28_15h10.42.067,Test,2024.2.4,None,2024-11-28 15h10.51.022887 +0100,
70,150,180,19,None,53,53,0,True,left,1.2919767499843147,None,,,,,,,,0,53,53,53,,,,,,,,,342.73312362498837,,,,,,,,,,,,,,,,,,,,,,,,,,,,,,,,,,,,,,342.726259499992,342.73312362498837,343.73173349999706,344.7153498340049,344.7153498340049,344.7153498340049,346.0171936249826,left,1.2919767499843147,None,,,,,,,,,,,,,,,,,,,,,,,,,,,,,,,,,,,,,,,,,,,624666,001,2024-11-28_15h10.42.067,Test,2024.2.4,None,2024-11-28 15h10.51.022887 +0100,
47,150,60,21,None,54,54,0,True,left,1.2216062920051627,None,,,,,,,,0,54,54,54,,,,,,,,,346.0330954589881,,,,,,,,,,,,,,,,,,,,,,,,,,,,,,,,,,,,,,346.0263217089814,346.0330954589881,347.0317689589865,348.01513870898634,348.01513870898634,348.01513870898634,349.23949245898984,left,1.2216062920051627,None,,,,,,,,,,,,,,,,,,,,,,,,,,,,,,,,,,,,,,,,,,,624666,001,2024-11-28_15h10.42.067,Test,2024.2.4,None,2024-11-28 15h10.51.022887 +0100,
53,150,90,37,None,55,55,0,True,left,1.2270462500164285,None,,,,,,,,0,55,55,55,,,,,,,,,349.25433249998605,,,,,,,,,,,,,,,,,,,,,,,,,,,,,,,,,,,,,,349.2480251249799,349.25433249998605,350.2484839169774,351.23918079197756,351.23918079197756,351.23918079197756,352.4736330419837,left,1.2270462500164285,None,,,,,,,,,,,,,,,,,,,,,,,,,,,,,,,,,,,,,,,,,,,624666,001,2024-11-28_15h10.42.067,Test,2024.2.4,None,2024-11-28 15h10.51.022887 +0100,
54,150,90,18,None,56,56,0,True,left,1.0886084999947343,None,,,,,,,,0,56,56,56,,,,,,,,,352.489487541985,,,,,,,,,,,,,,,,,,,,,,,,,,,,,,,,,,,,,,352.4830521249969,352.489487541985,353.4870744170039,354.47276566698565,354.47276566698565,354.47276566698565,355.56755316699855,left,1.0886084999947343,None,,,,,,,,,,,,,,,,,,,,,,,,,,,,,,,,,,,,,,,,,,,624666,001,2024-11-28_15h10.42.067,Test,2024.2.4,None,2024-11-28 15h10.51.022887 +0100,
60,150,120,6,None,57,57,0,True,left,1.0001152500044554,None,,,,,,,,0,57,57,57,,,,,,,,,355.5822196670051,,,,,,,,,,,,,,,,,,,,,,,,,,,,,,,,,,,,,,355.5761329589877,355.5822196670051,356.56972154197865,357.56515745900106,357.56515745900106,357.56515745900106,358.56795120899915,left,1.0001152500044554,None,,,,,,,,,,,,,,,,,,,,,,,,,,,,,,,,,,,,,,,,,,,624666,001,2024-11-28_15h10.42.067,Test,2024.2.4,None,2024-11-28 15h10.51.022887 +0100,
28,150,150,56,None,58,58,0,False,left,1.217235874995822,None,,,,,,,,0,58,58,58,,,,,,,,,358.5828850840044,,,,,,,,,,,,,,,,,,,,,,,,,,,,,,,,,,,,,,358.57662995898863,358.5828850840044,359.5817073340004,360.565255124995,360.565255124995,360.565255124995,361.78539358399576,left,1.217235874995822,None,,,,,,,,,,,,,,,,,,,,,,,,,,,,,,,,,,,,,,,,,,,624666,001,2024-11-28_15h10.42.067,Test,2024.2.4,None,2024-11-28 15h10.51.022887 +0100,
36,150,0,65,None,59,59,0,True,left,1.0393406249932013,None,,,,,,,,0,59,59,59,,,,,,,,,361.79964729200583,,,,,,,,,,,,,,,,,,,,,,,,,,,,,,,,,,,,,,361.79395487500005,361.79964729200583,362.79842454197933,363.7819653339975,363.7819653339975,363.7819653339975,364.8235874589882,left,1.0393406249932013,None,,,,,,,,,,,,,,,,,,,,,,,,,,,,,,,,,,,,,,,,,,,624666,001,2024-11-28_15h10.42.067,Test,2024.2.4,None,2024-11-28 15h10.51.022887 +0100,
49,150,60,22,None,60,60,0,True,left,1.0477276250021532,None,,,,,,,,0,60,60,60,,,,,,,,,364.83847774998867,,,,,,,,,,,,,,,,,,,,,,,,,,,,,,,,,,,,,,364.8315439589787,364.83847774998867,365.831904458988,366.82226575000095,366.82226575000095,366.82226575000095,367.8734546669875,left,1.0477276250021532,None,,,,,,,,,,,,,,,,,,,,,,,,,,,,,,,,,,,,,,,,,,,624666,001,2024-11-28_15h10.42.067,Test,2024.2.4,None,2024-11-28 15h10.51.022887 +0100,
3,150,0,44,None,61,61,0,False,right,1.2161773330008145,None,,,,,,,,0,61,61,61,,,,,,,,,367.8881445839943,,,,,,,,,,,,,,,,,,,,,,,,,,,,,,,,,,,,,,367.8820141250035,367.8881445839943,368.8818266669987,369.8728848749888,369.8728848749888,369.8728848749888,371.1012185839936,right,1.2161773330008145,None,,,,,,,,,,,,,,,,,,,,,,,,,,,,,,,,,,,,,,,,,,,624666,001,2024-11-28_15h10.42.067,Test,2024.2.4,None,2024-11-28 15h10.51.022887 +0100,
17,150,90,68,None,62,62,0,False,right,1.2046274160093162,None,,,,,,,,0,62,62,62,,,,,,,,,371.1169864590047,,,,,,,,,,,,,,,,,,,,,,,,,,,,,,,,,,,,,,371.1101837499882,371.1169864590047,372.11519874999067,373.09858674998395,373.09858674998395,373.09858674998395,374.306164833979,right,1.2046274160093162,None,,,,,,,,,,,,,,,,,,,,,,,,,,,,,,,,,,,,,,,,,,,624666,001,2024-11-28_15h10.42.067,Test,2024.2.4,None,2024-11-28 15h10.51.022887 +0100,
33,150,180,32,None,63,63,0,False,left,0.9114925839821808,None,,,,,,,,0,63,63,63,,,,,,,,,374.3206878750061,,,,,,,,,,,,,,,,,,,,,,,,,,,,,,,,,,,,,,374.31475774999126,374.3206878750061,375.3151077499788,376.3048724590044,376.3048724590044,376.3048724590044,377.22367983398726,left,0.9114925839821808,None,,,,,,,,,,,,,,,,,,,,,,,,,,,,,,,,,,,,,,,,,,,624666,001,2024-11-28_15h10.42.067,Test,2024.2.4,None,2024-11-28 15h10.51.022887 +0100,
1,150,0,34,None,64,64,0,False,left,1.76065004200791,None,,,,,,,,0,64,64,64,,,,,,,,,377.2407067089807,,,,,,,,,,,,,,,,,,,,,,,,,,,,,,,,,,,,,,377.2349578339781,377.2407067089807,378.2367876670032,379.2251363749965,379.2251363749965,379.2251363749965,380.99041266698623,left,1.76065004200791,None,,,,,,,,,,,,,,,,,,,,,,,,,,,,,,,,,,,,,,,,,,,624666,001,2024-11-28_15h10.42.067,Test,2024.2.4,None,2024-11-28 15h10.51.022887 +0100,
29,150,150,4,None,65,65,0,False,right,0.8984959999797866,None,,,,,,,,0,65,65,65,,,,,,,,,381.0047596670047,,,,,,,,,,,,,,,,,,,,,,,,,,,,,,,,,,,,,,380.9990867089946,381.0047596670047,381.99841020899476,382.98925912499544,382.98925912499544,382.98925912499544,383.8901165839925,right,0.8984959999797866,None,,,,,,,,,,,,,,,,,,,,,,,,,,,,,,,,,,,,,,,,,,,624666,001,2024-11-28_15h10.42.067,Test,2024.2.4,None,2024-11-28 15h10.51.022887 +0100,
6,150,30,3,None,66,66,0,False,left,1.0926115830079652,None,,,,,,,,0,66,66,66,,,,,,,,,383.9046282499912,,,,,,,,,,,,,,,,,,,,,,,,,,,,,,,,,,,,,,383.89880641698255,383.9046282499912,384.89838054199936,385.88961616699817,385.88961616699817,385.88961616699817,386.98528199997963,left,1.0926115830079652,None,,,,,,,,,,,,,,,,,,,,,,,,,,,,,,,,,,,,,,,,,,,624666,001,2024-11-28_15h10.42.067,Test,2024.2.4,None,2024-11-28 15h10.51.022887 +0100,
12,150,60,40,None,67,67,0,False,right,0.8669417499913834,None,,,,,,,,0,67,67,67,,,,,,,,,387.0007329589862,,,,,,,,,,,,,,,,,,,,,,,,,,,,,,,,,,,,,,386.9943037919875,387.0007329589862,387.9985609999858,388.98194874997716,388.98194874997716,388.98194874997716,389.85204670898383,right,0.8669417499913834,None,,,,,,,,,,,,,,,,,,,,,,,,,,,,,,,,,,,,,,,,,,,624666,001,2024-11-28_15h10.42.067,Test,2024.2.4,None,2024-11-28 15h10.51.022887 +0100,
8,150,30,52,None,68,68,0,False,right,1.7353270830062684,None,,,,,,,,0,68,68,68,,,,,,,,,389.86729716698756,,,,,,,,,,,,,,,,,,,,,,,,,,,,,,,,,,,,,,389.8603967499803,389.86729716698756,390.86508666697773,391.8487009590026,391.8487009590026,391.8487009590026,393.5891037090041,right,1.7353270830062684,None,,,,,,,,,,,,,,,,,,,,,,,,,,,,,,,,,,,,,,,,,,,624666,001,2024-11-28_15h10.42.067,Test,2024.2.4,None,2024-11-28 15h10.51.022887 +0100,
19,150,90,10,None,69,69,0,False,right,2.366462792007951,None,,,,,,,,0,69,69,69,,,,,,,,,393.6039816249977,,,,,,,,,,,,,,,,,,,,,,,,,,,,,,,,,,,,,,393.59743620900554,393.6039816249977,394.5985873339814,395.58927045899327,395.58927045899327,395.58927045899327,397.96730416698847,right,2.366462792007951,None,,,,,,,,,,,,,,,,,,,,,,,,,,,,,,,,,,,,,,,,,,,624666,001,2024-11-28_15h10.42.067,Test,2024.2.4,None,2024-11-28 15h10.51.022887 +0100,
,,,,,,,,,,,,,,,,,,,,,,,,,,,,,,,,,,,,,,,,,,,,,,,,,,,,,,,,,,,,,,,,,,,,,,,,,,,,,,,,,,397.9675846250029,397.9776147090015,397.9776147090015,401.88375991699286,space,3.8997765420062933,None,,,,,,,,,,,,,,,,,,,,,,,,,,,,,,,,,624666,001,2024-11-28_15h10.42.067,Test,2024.2.4,None,2024-11-28 15h10.51.022887 +0100,
29,150,150,4,None,0,0,0,,,,,,,,,,,,,,,,0,0,0,28,,,,,401.90974616698804,,,,,,,,,,,,,,,,,,,,,,,,,,,,,,,,,,,,,,,,,,,,,,,,,,,,,,,,,,401.9013523339818,401.90974616698804,402.0818800419802,402.0818800419802,402.10385841698735,403.77993212500587,403.77993212500587,403.7662273339811,,,,,,,,,,,,,,,,,,,,,,,,,624666,001,2024-11-28_15h10.42.067,Test,2024.2.4,None,2024-11-28 15h10.51.022887 +0100,
6,150,30,3,None,1,1,0,,,,,,,,,,,,,,,,0,1,1,5,,,,,403.77993212500587,,,,,,,,,,,,,,,,,,,,,,,,,,,,,,,,,,,,,,,,,,,,,,,,,,,,,,,,,,403.7748791250051,403.7846348339808,403.981885458983,403.981885458983,403.981885458983,405.6783324999851,405.6783324999851,405.6659861249791,,,,,,,,,,,,,,,,,,,,,,,,,624666,001,2024-11-28_15h10.42.067,Test,2024.2.4,None,2024-11-28 15h10.51.022887 +0100,
25,150,120,54,None,2,2,0,,,,,,,,,,,,,,,,0,2,2,24,,,,,405.6783324999851,,,,,,,,,,,,,,,,,,,,,,,,,,,,,,,,,,,,,,,,,,,,,,,,,,,,,,,,,,405.673609541991,405.6826294999919,405.88200120898546,405.88200120898546,405.8695592089789,407.57891183398897,407.57891183398897,407.56623895899975,,,,,,,,,,,,,,,,,,,,,,,,,624666,001,2024-11-28_15h10.42.067,Test,2024.2.4,None,2024-11-28 15h10.51.022887 +0100,
4,150,0,33,None,3,3,0,,,,,,,,,,,,,,,,0,3,3,3,,,,,407.57891183398897,,,,,,,,,,,,,,,,,,,,,,,,,,,,,,,,,,,,,,,,,,,,,,,,,,,,,,,,,,407.5741724589898,407.58360287500545,407.78190695898957,407.78190695898957,407.78190695898957,409.479011583986,409.479011583986,409.4658935419866,,,,,,,,,,,,,,,,,,,,,,,,,624666,001,2024-11-28_15h10.42.067,Test,2024.2.4,None,2024-11-28 15h10.51.022887 +0100,
34,150,180,20,None,4,4,0,,,,,,,,,,,,,,,,0,4,4,33,,,,,409.479011583986,,,,,,,,,,,,,,,,,,,,,,,,,,,,,,,,,,,,,,,,,,,,,,,,,,,,,,,,,,409.47409891698044,409.48362199999974,409.68197295899154,409.68197295899154,409.68197295899154,411.3786336669873,411.3786336669873,411.3659237919783,,,,,,,,,,,,,,,,,,,,,,,,,624666,001,2024-11-28_15h10.42.067,Test,2024.2.4,None,2024-11-28 15h10.51.022887 +0100,
26,150,150,16,None,5,5,0,,,,,,,,,,,,,,,,0,5,5,25,,,,,411.3786336669873,,,,,,,,,,,,,,,,,,,,,,,,,,,,,,,,,,,,,,,,,,,,,,,,,,,,,,,,,,411.3736372090061,411.3831672499946,411.5818556669983,411.5818556669983,411.5818556669983,413.27946529199835,413.27946529199835,413.26614258400514,,,,,,,,,,,,,,,,,,,,,,,,,624666,001,2024-11-28_15h10.42.067,Test,2024.2.4,None,2024-11-28 15h10.51.022887 +0100,
22,150,120,66,None,6,6,0,,,,,,,,,,,,,,,,0,6,6,21,,,,,413.27946529199835,,,,,,,,,,,,,,,,,,,,,,,,,,,,,,,,,,,,,,,,,,,,,,,,,,,,,,,,,,413.27436124999076,413.2844854169816,413.4819478749996,413.4819478749996,413.4819478749996,415.17902254199726,415.17902254199726,415.166015625,,,,,,,,,,,,,,,,,,,,,,,,,624666,001,2024-11-28_15h10.42.067,Test,2024.2.4,None,2024-11-28 15h10.51.022887 +0100,
20,150,90,55,None,7,7,0,,,,,,,,,,,,,,,,0,7,7,19,,,,,415.17902254199726,,,,,,,,,,,,,,,,,,,,,,,,,,,,,,,,,,,,,,,,,,,,,,,,,,,,,,,,,,415.1741197499796,415.18352612497984,415.3818308750051,415.3818308750051,415.3818308750051,417.07842258398887,417.07842258398887,417.0658700839849,,,,,,,,,,,,,,,,,,,,,,,,,624666,001,2024-11-28_15h10.42.067,Test,2024.2.4,None,2024-11-28 15h10.51.022887 +0100,
7,150,30,31,None,8,8,0,,,,,,,,,,,,,,,,0,8,8,6,,,,,417.07842258398887,,,,,,,,,,,,,,,,,,,,,,,,,,,,,,,,,,,,,,,,,,,,,,,,,,,,,,,,,,417.0736764589965,417.08268141699955,417.2819396669802,417.2819396669802,417.270401124988,418.97850124997785,418.97850124997785,418.96611454198137,,,,,,,,,,,,,,,,,,,,,,,,,624666,001,2024-11-28_15h10.42.067,Test,2024.2.4,None,2024-11-28 15h10.51.022887 +0100,
3,150,0,44,None,9,9,0,,,,,,,,,,,,,,,,0,9,9,2,,,,,418.97850124997785,,,,,,,,,,,,,,,,,,,,,,,,,,,,,,,,,,,,,,,,,,,,,,,,,,,,,,,,,,418.9736860419798,418.98314724999364,419.18193774999236,419.18193774999236,419.18193774999236,420.87882920898846,420.87882920898846,420.86606666698935,,,,,,,,,,,,,,,,,,,,,,,,,624666,001,2024-11-28_15h10.42.067,Test,2024.2.4,None,2024-11-28 15h10.51.022887 +0100,
12,150,60,40,None,10,10,0,,,,,,,,,,,,,,,,0,10,10,11,,,,,420.87882920898846,,,,,,,,,,,,,,,,,,,,,,,,,,,,,,,,,,,,,,,,,,,,,,,,,,,,,,,,,,420.874025541998,420.88349512498826,421.0820834999904,421.0820834999904,421.0820834999904,422.7794151249982,422.7794151249982,422.76616129200556,,,,,,,,,,,,,,,,,,,,,,,,,624666,001,2024-11-28_15h10.42.067,Test,2024.2.4,None,2024-11-28 15h10.51.022887 +0100,
2,150,0,53,None,11,11,0,,,,,,,,,,,,,,,,0,11,11,1,,,,,422.7794151249982,,,,,,,,,,,,,,,,,,,,,,,,,,,,,,,,,,,,,,,,,,,,,,,,,,,,,,,,,,422.77437091700267,422.7841769589868,422.9819366669981,422.9819366669981,422.9819366669981,424.68047020898666,424.68047020898666,424.6669010419864,,,,,,,,,,,,,,,,,,,,,,,,,624666,001,2024-11-28_15h10.42.067,Test,2024.2.4,None,2024-11-28 15h10.51.022887 +0100,
13,150,60,51,None,12,12,0,,,,,,,,,,,,,,,,0,12,12,12,,,,,424.68047020898666,,,,,,,,,,,,,,,,,,,,,,,,,,,,,,,,,,,,,,,,,,,,,,,,,,,,,,,,,,424.6756400419981,424.68492937498377,424.882022167003,424.882022167003,424.882022167003,426.58051574998535,426.58051574998535,426.56630808400223,,,,,,,,,,,,,,,,,,,,,,,,,624666,001,2024-11-28_15h10.42.067,Test,2024.2.4,None,2024-11-28 15h10.51.022887 +0100,
11,150,60,26,None,13,13,0,,,,,,,,,,,,,,,,0,13,13,10,,,,,426.58051574998535,,,,,,,,,,,,,,,,,,,,,,,,,,,,,,,,,,,,,,,,,,,,,,,,,,,,,,,,,,426.57559245900484,426.5852955839946,426.78189695900073,426.78189695900073,426.78189695900073,428.47946520900587,428.47946520900587,428.46618899999885,,,,,,,,,,,,,,,,,,,,,,,,,624666,001,2024-11-28_15h10.42.067,Test,2024.2.4,None,2024-11-28 15h10.51.022887 +0100,
27,150,150,35,None,14,14,0,,,,,,,,,,,,,,,,0,14,14,26,,,,,428.47946520900587,,,,,,,,,,,,,,,,,,,,,,,,,,,,,,,,,,,,,,,,,,,,,,,,,,,,,,,,,,428.4745087919873,428.48463674998493,428.6819647499942,428.6819647499942,428.6819647499942,430.3807000420056,430.3807000420056,430.3666009589797,,,,,,,,,,,,,,,,,,,,,,,,,624666,001,2024-11-28_15h10.42.067,Test,2024.2.4,None,2024-11-28 15h10.51.022887 +0100,
23,150,120,29,None,15,15,0,,,,,,,,,,,,,,,,0,15,15,22,,,,,430.3807000420056,,,,,,,,,,,,,,,,,,,,,,,,,,,,,,,,,,,,,,,,,,,,,,,,,,,,,,,,,,430.37593874998856,430.3854308339942,430.581802834,430.581802834,430.581802834,432.27960216699285,432.27960216699285,432.2661326249945,,,,,,,,,,,,,,,,,,,,,,,,,624666,001,2024-11-28_15h10.42.067,Test,2024.2.4,None,2024-11-28 15h10.51.022887 +0100,
19,150,90,10,None,16,16,0,,,,,,,,,,,,,,,,0,16,16,18,,,,,432.27960216699285,,,,,,,,,,,,,,,,,,,,,,,,,,,,,,,,,,,,,,,,,,,,,,,,,,,,,,,,,,432.2747371669975,432.2843504170014,432.481883208995,432.481883208995,432.481883208995,434.17902516698814,434.17902516698814,434.1660402919806,,,,,,,,,,,,,,,,,,,,,,,,,624666,001,2024-11-28_15h10.42.067,Test,2024.2.4,None,2024-11-28 15h10.51.022887 +0100,
15,150,60,2,None,17,17,0,,,,,,,,,,,,,,,,0,17,17,14,,,,,434.17902516698814,,,,,,,,,,,,,,,,,,,,,,,,,,,,,,,,,,,,,,,,,,,,,,,,,,,,,,,,,,434.17421391699463,434.18372929198085,434.38197899999795,434.38197899999795,434.38197899999795,436.07934858399676,436.07934858399676,436.06613116699737,,,,,,,,,,,,,,,,,,,,,,,,,624666,001,2024-11-28_15h10.42.067,Test,2024.2.4,None,2024-11-28 15h10.51.022887 +0100,
28,150,150,56,None,18,18,0,,,,,,,,,,,,,,,,0,18,18,27,,,,,436.07934858399676,,,,,,,,,,,,,,,,,,,,,,,,,,,,,,,,,,,,,,,,,,,,,,,,,,,,,,,,,,436.07441616698634,436.08438708400354,436.2818737500056,436.2818737500056,436.2818737500056,437.9796732919931,437.9796732919931,437.9662417919899,,,,,,,,,,,,,,,,,,,,,,,,,624666,001,2024-11-28_15h10.42.067,Test,2024.2.4,None,2024-11-28 15h10.51.022887 +0100,
10,150,30,60,None,19,19,0,,,,,,,,,,,,,,,,0,19,19,9,,,,,437.9796732919931,,,,,,,,,,,,,,,,,,,,,,,,,,,,,,,,,,,,,,,,,,,,,,,,,,,,,,,,,,437.97487720899517,437.98535724999965,438.1819659169996,438.1819659169996,438.1819659169996,439.8793054999842,439.8793054999842,439.8664029169886,,,,,,,,,,,,,,,,,,,,,,,,,624666,001,2024-11-28_15h10.42.067,Test,2024.2.4,None,2024-11-28 15h10.51.022887 +0100,
17,150,90,68,None,20,20,0,,,,,,,,,,,,,,,,0,20,20,16,,,,,439.8793054999842,,,,,,,,,,,,,,,,,,,,,,,,,,,,,,,,,,,,,,,,,,,,,,,,,,,,,,,,,,439.8744271250034,439.8838536249823,440.0818397089897,440.0818397089897,440.0818397089897,441.7791186669783,441.7791186669783,441.7661199999857,,,,,,,,,,,,,,,,,,,,,,,,,624666,001,2024-11-28_15h10.42.067,Test,2024.2.4,None,2024-11-28 15h10.51.022887 +0100,
21,150,120,61,None,21,21,0,,,,,,,,,,,,,,,,0,21,21,20,,,,,441.7791186669783,,,,,,,,,,,,,,,,,,,,,,,,,,,,,,,,,,,,,,,,,,,,,,,,,,,,,,,,,,441.7741837920039,441.78378333398723,441.98192816699157,441.98192816699157,441.98192816699157,443.6797782499925,443.6797782499925,443.6660608749953,,,,,,,,,,,,,,,,,,,,,,,,,624666,001,2024-11-28_15h10.42.067,Test,2024.2.4,None,2024-11-28 15h10.51.022887 +0100,
18,150,90,45,None,22,22,0,,,,,,,,,,,,,,,,0,22,22,17,,,,,443.6797782499925,,,,,,,,,,,,,,,,,,,,,,,,,,,,,,,,,,,,,,,,,,,,,,,,,,,,,,,,,,443.6748119590047,443.6848212920013,443.8819396249892,443.8819396249892,443.8819396249892,445.57937329198467,445.57937329198467,445.56645616699825,,,,,,,,,,,,,,,,,,,,,,,,,624666,001,2024-11-28_15h10.42.067,Test,2024.2.4,None,2024-11-28 15h10.51.022887 +0100,
9,150,30,69,None,23,23,0,,,,,,,,,,,,,,,,0,23,23,8,,,,,445.57937329198467,,,,,,,,,,,,,,,,,,,,,,,,,,,,,,,,,,,,,,,,,,,,,,,,,,,,,,,,,,445.5744301249797,445.58441129198764,445.7817450419825,445.7817450419825,445.7817450419825,447.47994525000104,447.47994525000104,447.4663230839942,,,,,,,,,,,,,,,,,,,,,,,,,624666,001,2024-11-28_15h10.42.067,Test,2024.2.4,None,2024-11-28 15h10.51.022887 +0100,
5,150,0,8,None,24,24,0,,,,,,,,,,,,,,,,0,24,24,4,,,,,447.47994525000104,,,,,,,,,,,,,,,,,,,,,,,,,,,,,,,,,,,,,,,,,,,,,,,,,,,,,,,,,,447.47499879199313,447.4851147089794,447.6819312919979,447.6819312919979,447.6819312919979,449.3798525839811,449.3798525839811,449.36643187497975,,,,,,,,,,,,,,,,,,,,,,,,,624666,001,2024-11-28_15h10.42.067,Test,2024.2.4,None,2024-11-28 15h10.51.022887 +0100,
31,150,180,67,None,25,25,0,,,,,,,,,,,,,,,,0,25,25,30,,,,,449.3798525839811,,,,,,,,,,,,,,,,,,,,,,,,,,,,,,,,,,,,,,,,,,,,,,,,,,,,,,,,,,449.37492375000147,449.3845832499792,449.58205237498623,449.58205237498623,449.58205237498623,451.2805619169958,451.2805619169958,451.26608974998817,,,,,,,,,,,,,,,,,,,,,,,,,624666,001,2024-11-28_15h10.42.067,Test,2024.2.4,None,2024-11-28 15h10.51.022887 +0100,
30,150,150,50,None,26,26,0,,,,,,,,,,,,,,,,0,26,26,29,,,,,451.2805619169958,,,,,,,,,,,,,,,,,,,,,,,,,,,,,,,,,,,,,,,,,,,,,,,,,,,,,,,,,,451.2755724589806,451.2848984169832,451.48183549998794,451.48183549998794,451.48183549998794,453.1804393749917,453.1804393749917,453.1661734999798,,,,,,,,,,,,,,,,,,,,,,,,,624666,001,2024-11-28_15h10.42.067,Test,2024.2.4,None,2024-11-28 15h10.51.022887 +0100,
14,150,60,41,None,27,27,0,,,,,,,,,,,,,,,,0,27,27,13,,,,,453.1804393749917,,,,,,,,,,,,,,,,,,,,,,,,,,,,,,,,,,,,,,,,,,,,,,,,,,,,,,,,,,453.1755674589949,453.1852094999922,453.38188712499687,453.38188712499687,453.38188712499687,455.079083833989,455.079083833989,455.0660824170045,,,,,,,,,,,,,,,,,,,,,,,,,624666,001,2024-11-28_15h10.42.067,Test,2024.2.4,None,2024-11-28 15h10.51.022887 +0100,
8,150,30,52,None,28,28,0,,,,,,,,,,,,,,,,0,28,28,7,,,,,455.079083833989,,,,,,,,,,,,,,,,,,,,,,,,,,,,,,,,,,,,,,,,,,,,,,,,,,,,,,,,,,455.07433787500486,455.0841787089885,455.28183175000595,455.28183175000595,455.28183175000595,456.97916308400454,456.97916308400454,456.9662263749924,,,,,,,,,,,,,,,,,,,,,,,,,624666,001,2024-11-28_15h10.42.067,Test,2024.2.4,None,2024-11-28 15h10.51.022887 +0100,
32,150,180,5,None,29,29,0,,,,,,,,,,,,,,,,0,29,29,31,,,,,456.97916308400454,,,,,,,,,,,,,,,,,,,,,,,,,,,,,,,,,,,,,,,,,,,,,,,,,,,,,,,,,,456.9744427090045,456.9839884999965,457.1818920839869,457.1818920839869,457.1818920839869,458.8797197919921,458.8797197919921,458.86599674998433,,,,,,,,,,,,,,,,,,,,,,,,,624666,001,2024-11-28_15h10.42.067,Test,2024.2.4,None,2024-11-28 15h10.51.022887 +0100,
33,150,180,32,None,30,30,0,,,,,,,,,,,,,,,,0,30,30,32,,,,,458.8797197919921,,,,,,,,,,,,,,,,,,,,,,,,,,,,,,,,,,,,,,,,,,,,,,,,,,,,,,,,,,458.87482066699886,458.88439525000285,459.08196437498555,459.08196437498555,459.08196437498555,460.7798501669895,460.7798501669895,460.76603283398435,,,,,,,,,,,,,,,,,,,,,,,,,624666,001,2024-11-28_15h10.42.067,Test,2024.2.4,None,2024-11-28 15h10.51.022887 +0100,
16,150,90,25,None,31,31,0,,,,,,,,,,,,,,,,0,31,31,15,,,,,460.7798501669895,,,,,,,,,,,,,,,,,,,,,,,,,,,,,,,,,,,,,,,,,,,,,,,,,,,,,,,,,,460.7748128339881,460.7848599169811,460.98205166700063,460.98205166700063,460.98205166700063,462.6833349999797,462.6833349999797,462.6661365419859,,,,,,,,,,,,,,,,,,,,,,,,,624666,001,2024-11-28_15h10.42.067,Test,2024.2.4,None,2024-11-28 15h10.51.022887 +0100,
24,150,120,11,None,32,32,0,,,,,,,,,,,,,,,,0,32,32,23,,,,,462.6833349999797,,,,,,,,,,,,,,,,,,,,,,,,,,,,,,,,,,,,,,,,,,,,,,,,,,,,,,,,,,462.6784887499816,462.698396916996,462.8815357499989,462.8815357499989,462.88757445898955,464.58178345899796,464.58178345899796,464.5665839589783,,,,,,,,,,,,,,,,,,,,,,,,,624666,001,2024-11-28_15h10.42.067,Test,2024.2.4,None,2024-11-28 15h10.51.022887 +0100,
1,150,0,34,None,33,33,0,,,,,,,,,,,,,,,,0,33,33,0,,,,,464.58178345899796,,,,,,,,,,,,,,,,,,,,,,,,,,,,,,,,,,,,,,,,,,,,,,,,,,,,,,,,,,464.57690524999634,464.5855354999949,464.78180045899353,464.78180045899353,464.78180045899353,466.48759987499216,466.48759987499216,466.4660783339932,,,,,,,,,,,,,,,,,,,,,,,,,624666,001,2024-11-28_15h10.42.067,Test,2024.2.4,None,2024-11-28 15h10.51.022887 +0100,
35,150,180,62,None,34,34,0,,,,,,,,,,,,,,,,0,34,34,34,,,,,466.48759987499216,,,,,,,,,,,,,,,,,,,,,,,,,,,,,,,,,,,,,,,,,,,,,,,,,,,,,,,,,,466.48270420898916,466.48759987499216,466.68156691698823,466.68156691698823,466.68156691698823,468.37177045899443,468.37177045899443,468.3664124170027,,,,,,,,,,,,,,,,,,,,,,,,,624666,001,2024-11-28_15h10.42.067,Test,2024.2.4,None,2024-11-28 15h10.51.022887 +0100,
,,,,,,,,,,,,,,,,,,,,,,,,,,,,,,,,,,,,,,,,,,,,,,,,,,,,,,,,,,,,,,,,,,,,,,,,,,,,,,,,,,,,,,,,,,,,,,,,,468.3666726249794,468.38044424998225,468.38044424998225,483.6235637499776,space,15.237982874998124,None,,,,,,,,,,,,,,,,,,624666,001,2024-11-28_15h10.42.067,Test,2024.2.4,None,2024-11-28 15h10.51.022887 +0100,
69,150,180,49,None,0,0,0,True,,,,left,0.8495453750074375,None,,,,,,,,,,,,,0,0,0,0,483.72446141700493,,,,,,,,,,,,,,,,,,,,,,,,,,,,,,,,,,,,,,,,,,,,,,,,,,,,,,,,,,,,,,,,,,,,,,,,,483.71898491698084,483.72446141700493,484.72117891698144,485.62305808399105,485.62305808399105,485.62305808399105,486.48479304197826,left,0.8495453750074375,None,,,,,,,,624666,001,2024-11-28_15h10.42.067,Test,2024.2.4,None,2024-11-28 15h10.51.022887 +0100,
14,150,60,41,None,1,1,0,False,,,,right,0.7733461250027176,None,,,,,,,,,,,,,0,1,1,1,486.4969578339951,,,,,,,,,,,,,,,,,,,,,,,,,,,,,,,,,,,,,,,,,,,,,,,,,,,,,,,,,,,,,,,,,,,,,,,,,486.4914742499823,486.4969578339951,487.48646095898584,488.4820655839867,488.4820655839867,488.4820655839867,489.26664033398265,right,0.7733461250027176,None,,,,,,,,624666,001,2024-11-28_15h10.42.067,Test,2024.2.4,None,2024-11-28 15h10.51.022887 +0100,
41,150,30,7,None,2,2,0,True,,,,left,1.0023439579817932,None,,,,,,,,,,,,,0,2,2,2,489.2793498749961,,,,,,,,,,,,,,,,,,,,,,,,,,,,,,,,,,,,,,,,,,,,,,,,,,,,,,,,,,,,,,,,,,,,,,,,,489.27431933398475,489.2793498749961,490.2701354169985,491.26546787499683,491.26546787499683,491.26546787499683,492.27373670900124,left,1.0023439579817932,None,,,,,,,,624666,001,2024-11-28_15h10.42.067,Test,2024.2.4,None,2024-11-28 15h10.51.022887 +0100,
11,150,60,26,None,3,3,0,False,,,,left,1.540114542003721,None,,,,,,,,,,,,,0,3,3,3,492.29009649998625,,,,,,,,,,,,,,,,,,,,,,,,,,,,,,,,,,,,,,,,,,,,,,,,,,,,,,,,,,,,,,,,,,,,,,,,,492.2830178749864,492.29009649998625,493.2870747499983,494.2720106249908,494.2720106249908,494.2720106249908,495.8179516249802,left,1.540114542003721,None,,,,,,,,624666,001,2024-11-28_15h10.42.067,Test,2024.2.4,None,2024-11-28 15h10.51.022887 +0100,
4,150,0,33,None,4,4,0,False,,,,right,0.7677213329880033,None,,,,,,,,,,,,,0,4,4,4,495.83308625000063,,,,,,,,,,,,,,,,,,,,,,,,,,,,,,,,,,,,,,,,,,,,,,,,,,,,,,,,,,,,,,,,,,,,,,,,,495.8266543339996,495.83308625000063,496.8203712499817,497.81534708398976,497.81534708398976,497.81534708398976,498.5901781669818,right,0.7677213329880033,None,,,,,,,,624666,001,2024-11-28_15h10.42.067,Test,2024.2.4,None,2024-11-28 15h10.51.022887 +0100,
62,150,150,13,None,5,5,0,True,,,,left,0.9211469999863766,None,,,,,,,,,,,,,0,5,5,5,498.60561058399617,,,,,,,,,,,,,,,,,,,,,,,,,,,,,,,,,,,,,,,,,,,,,,,,,,,,,,,,,,,,,,,,,,,,,,,,,498.5987257499946,498.60561058399617,499.60354304200155,500.58825758399325,500.58825758399325,500.58825758399325,501.51713587497943,left,0.9211469999863766,None,,,,,,,,624666,001,2024-11-28_15h10.42.067,Test,2024.2.4,None,2024-11-28 15h10.51.022887 +0100,
65,150,150,39,None,6,6,0,True,,,,right,1.1012350420060102,None,,,,,,,,,,,,,0,6,6,6,501.5318947499909,,,,,,,,,,,,,,,,,,,,,,,,,,,,,,,,,,,,,,,,,,,,,,,,,,,,,,,,,,,,,,,,,,,,,,,,,501.5245586670062,501.5318947499909,502.52002137497766,503.515232042002,503.515232042002,503.515232042002,504.62327016697964,right,1.1012350420060102,None,,,,,,,,624666,001,2024-11-28_15h10.42.067,Test,2024.2.4,None,2024-11-28 15h10.51.022887 +0100,
51,150,90,30,None,7,7,0,True,,,,right,1.0975950839929283,None,,,,,,,,,,,,,0,7,7,7,504.63838737498736,,,,,,,,,,,,,,,,,,,,,,,,,,,,,,,,,,,,,,,,,,,,,,,,,,,,,,,,,,,,,,,,,,,,,,,,,504.6319028750004,504.63838737498736,505.6318857919832,506.6226004170021,506.6226004170021,506.6226004170021,507.7235478340008,right,1.0975950839929283,None,,,,,,,,624666,001,2024-11-28_15h10.42.067,Test,2024.2.4,None,2024-11-28 15h10.51.022887 +0100,
10,150,30,60,None,8,8,0,False,,,,right,1.2512479999859352,None,,,,,,,,,,,,,0,8,8,8,507.73883062499226,,,,,,,,,,,,,,,,,,,,,,,,,,,,,,,,,,,,,,,,,,,,,,,,,,,,,,,,,,,,,,,,,,,,,,,,,507.7324963749852,507.73883062499226,508.73629412500304,509.7232064999989,509.7232064999989,509.7232064999989,510.9839974999777,right,1.2512479999859352,None,,,,,,,,624666,001,2024-11-28_15h10.42.067,Test,2024.2.4,None,2024-11-28 15h10.51.022887 +0100,
66,150,180,24,None,9,9,0,True,,,,left,1.3339342919935007,None,,,,,,,,,,,,,0,9,9,9,510.99988758398104,,,,,,,,,,,,,,,,,,,,,,,,,,,,,,,,,,,,,,,,,,,,,,,,,,,,,,,,,,,,,,,,,,,,,,,,,510.99305070898845,510.99988758398104,511.9986045839905,512.981963541999,512.981963541999,512.981963541999,514.3265548339987,left,1.3339342919935007,None,,,,,,,,624666,001,2024-11-28_15h10.42.067,Test,2024.2.4,None,2024-11-28 15h10.51.022887 +0100,
30,150,150,50,None,10,10,0,False,,,,left,1.5375013329903595,None,,,,,,,,,,,,,0,10,10,10,514.3380419169844,,,,,,,,,,,,,,,,,,,,,,,,,,,,,,,,,,,,,,,,,,,,,,,,,,,,,,,,,,,,,,,,,,,,,,,,,514.3334620840033,514.3380419169844,515.3363374589826,516.3221959169896,516.3221959169896,516.3221959169896,517.8673307919817,left,1.5375013329903595,None,,,,,,,,624666,001,2024-11-28_15h10.42.067,Test,2024.2.4,None,2024-11-28 15h10.51.022887 +0100,
9,150,30,69,None,11,11,0,False,,,,right,0.9943565829889849,None,,,,,,,,,,,,,0,11,11,11,517.8825996670057,,,,,,,,,,,,,,,,,,,,,,,,,,,,,,,,,,,,,,,,,,,,,,,,,,,,,,,,,,,,,,,,,,,,,,,,,517.8751894589805,517.8825996670057,518.8705462919897,519.8653493750026,519.8653493750026,519.8653493750026,520.8672338750039,right,0.9943565829889849,None,,,,,,,,624666,001,2024-11-28_15h10.42.067,Test,2024.2.4,None,2024-11-28 15h10.51.022887 +0100,
55,150,90,59,None,12,12,0,True,,,,left,2.584556167013943,None,,,,,,,,,,,,,0,12,12,12,520.8824423339975,,,,,,,,,,,,,,,,,,,,,,,,,,,,,,,,,,,,,,,,,,,,,,,,,,,,,,,,,,,,,,,,,,,,,,,,,520.8763946249965,520.8824423339975,521.8704017499986,522.8653519999934,522.8653519999934,522.8653519999934,525.4572562089888,left,2.584556167013943,None,,,,,,,,624666,001,2024-11-28_15h10.42.067,Test,2024.2.4,None,2024-11-28 15h10.51.022887 +0100,
67,150,180,48,None,13,13,0,True,,,,left,1.6831693330022972,None,,,,,,,,,,,,,0,13,13,13,525.4713168749877,,,,,,,,,,,,,,,,,,,,,,,,,,,,,,,,,,,,,,,,,,,,,,,,,,,,,,,,,,,,,,,,,,,,,,,,,525.4651431249804,525.4713168749877,526.4652200839773,527.4554959999805,527.4554959999805,527.4554959999805,529.1412752500037,left,1.6831693330022972,None,,,,,,,,624666,001,2024-11-28_15h10.42.067,Test,2024.2.4,None,2024-11-28 15h10.51.022887 +0100,
61,150,150,14,None,14,14,0,True,,,,left,1.4769914579810575,None,,,,,,,,,,,,,0,14,14,14,529.1556649589911,,,,,,,,,,,,,,,,,,,,,,,,,,,,,,,,,,,,,,,,,,,,,,,,,,,,,,,,,,,,,,,,,,,,,,,,,529.1497591669904,529.1556649589911,530.1529304169817,531.1395710840006,531.1395710840006,531.1395710840006,532.6240622919868,left,1.4769914579810575,None,,,,,,,,624666,001,2024-11-28_15h10.42.067,Test,2024.2.4,None,2024-11-28 15h10.51.022887 +0100,
57,150,120,43,None,15,15,0,True,,,,right,1.4623448330094106,None,,,,,,,,,,,,,0,15,15,15,532.6381094169919,,,,,,,,,,,,,,,,,,,,,,,,,,,,,,,,,,,,,,,,,,,,,,,,,,,,,,,,,,,,,,,,,,,,,,,,,532.6325144169969,532.6381094169919,533.6320280839864,534.6218004169932,534.6218004169932,534.6218004169932,536.0906566669873,right,1.4623448330094106,None,,,,,,,,624666,001,2024-11-28_15h10.42.067,Test,2024.2.4,None,2024-11-28 15h10.51.022887 +0100,
52,150,90,38,None,16,16,0,True,,,,left,2.3113856250129174,None,,,,,,,,,,,,,0,16,16,16,536.1064504999958,,,,,,,,,,,,,,,,,,,,,,,,,,,,,,,,,,,,,,,,,,,,,,,,,,,,,,,,,,,,,,,,,,,,,,,,,536.0994088339794,536.1064504999958,537.1036096249882,538.0889622090035,538.0889622090035,538.0889622090035,540.4077144170005,left,2.3113856250129174,None,,,,,,,,624666,001,2024-11-28_15h10.42.067,Test,2024.2.4,None,2024-11-28 15h10.51.022887 +0100,
25,150,120,54,None,17,17,0,False,,,,left,1.5763524580106605,None,,,,,,,,,,,,,0,17,17,17,540.4233922089916,,,,,,,,,,,,,,,,,,,,,,,,,,,,,,,,,,,,,,,,,,,,,,,,,,,,,,,,,,,,,,,,,,,,,,,,,540.4164614169858,540.4233922089916,541.420488624979,542.4057124169776,542.4057124169776,542.4057124169776,543.9844715840009,left,1.5763524580106605,None,,,,,,,,624666,001,2024-11-28_15h10.42.067,Test,2024.2.4,None,2024-11-28 15h10.51.022887 +0100,
39,150,0,15,None,18,18,0,True,,,,left,1.4343886249989737,None,,,,,,,,,,,,,0,18,18,18,543.9998762089817,,,,,,,,,,,,,,,,,,,,,,,,,,,,,,,,,,,,,,,,,,,,,,,,,,,,,,,,,,,,,,,,,,,,,,,,,543.9935007919848,543.9998762089817,544.9988377919944,545.9820820000023,545.9820820000023,545.9820820000023,547.4235833339917,left,1.4343886249989737,None,,,,,,,,624666,001,2024-11-28_15h10.42.067,Test,2024.2.4,None,2024-11-28 15h10.51.022887 +0100,
34,150,180,20,None,19,19,0,False,,,,right,1.2623126250109635,None,,,,,,,,,,,,,0,19,19,19,547.4365345419792,,,,,,,,,,,,,,,,,,,,,,,,,,,,,,,,,,,,,,,,,,,,,,,,,,,,,,,,,,,,,,,,,,,,,,,,,547.4307163339981,547.4365345419792,548.4319587499776,549.4235502920055,549.4235502920055,549.4235502920055,550.6901376669994,right,1.2623126250109635,None,,,,,,,,624666,001,2024-11-28_15h10.42.067,Test,2024.2.4,None,2024-11-28 15h10.51.022887 +0100,
15,150,60,2,None,20,20,0,False,,,,right,1.373119665979175,None,,,,,,,,,,,,,0,20,20,20,550.7040818749811,,,,,,,,,,,,,,,,,,,,,,,,,,,,,,,,,,,,,,,,,,,,,,,,,,,,,,,,,,,,,,,,,,,,,,,,,550.698084499978,550.7040818749811,551.6984155839891,552.6895794169977,552.6895794169977,552.6895794169977,554.067982833978,right,1.373119665979175,None,,,,,,,,624666,001,2024-11-28_15h10.42.067,Test,2024.2.4,None,2024-11-28 15h10.51.022887 +0100,
59,150,120,27,None,21,21,0,True,,,,left,1.7087959590135142,None,,,,,,,,,,,,,0,21,21,21,554.083455999993,,,,,,,,,,,,,,,,,,,,,,,,,,,,,,,,,,,,,,,,,,,,,,,,,,,,,,,,,,,,,,,,,,,,,,,,,554.0773184999998,554.083455999993,555.0818974169961,556.0653134169988,556.0653134169988,556.0653134169988,557.7839558339911,left,1.7087959590135142,None,,,,,,,,624666,001,2024-11-28_15h10.42.067,Test,2024.2.4,None,2024-11-28 15h10.51.022887 +0100,
56,150,120,64,None,22,22,0,True,,,,left,1.4055340000195429,None,,,,,,,,,,,,,0,22,22,22,557.7995807919942,,,,,,,,,,,,,,,,,,,,,,,,,,,,,,,,,,,,,,,,,,,,,,,,,,,,,,,,,,,,,,,,,,,,,,,,,557.7928562499874,557.7995807919942,558.7865365420002,559.7821262090001,559.7821262090001,559.7821262090001,561.1899722499948,left,1.4055340000195429,None,,,,,,,,624666,001,2024-11-28_15h10.42.067,Test,2024.2.4,None,2024-11-28 15h10.51.022887 +0100,
22,150,120,66,None,23,23,0,False,,,,right,1.1925871249986812,None,,,,,,,,,,,,,0,23,23,23,561.2041457919986,,,,,,,,,,,,,,,,,,,,,,,,,,,,,,,,,,,,,,,,,,,,,,,,,,,,,,,,,,,,,,,,,,,,,,,,,561.1977935000032,561.2041457919986,562.198479624989,563.1894047919777,563.1894047919777,563.1894047919777,564.3843211669882,right,1.1925871249986812,None,,,,,,,,624666,001,2024-11-28_15h10.42.067,Test,2024.2.4,None,2024-11-28 15h10.51.022887 +0100,
7,150,30,31,None,24,24,0,False,,,,right,1.7570724579854868,None,,,,,,,,,,,,,0,24,24,24,564.399025583989,,,,,,,,,,,,,,,,,,,,,,,,,,,,,,,,,,,,,,,,,,,,,,,,,,,,,,,,,,,,,,,,,,,,,,,,,564.3922709999897,564.399025583989,565.3870138749771,566.3819675419945,566.3819675419945,566.3819675419945,568.1512869589787,right,1.7570724579854868,None,,,,,,,,624666,001,2024-11-28_15h10.42.067,Test,2024.2.4,None,2024-11-28 15h10.51.022887 +0100,
58,150,120,63,None,25,25,0,True,,,,left,1.237014000013005,None,,,,,,,,,,,,,0,25,25,25,568.1668818339822,,,,,,,,,,,,,,,,,,,,,,,,,,,,,,,,,,,,,,,,,,,,,,,,,,,,,,,,,,,,,,,,,,,,,,,,,568.1598890419991,568.1668818339822,569.1653026249842,570.1487300839799,570.1487300839799,570.1487300839799,571.3903395420057,left,1.237014000013005,None,,,,,,,,624666,001,2024-11-28_15h10.42.067,Test,2024.2.4,None,2024-11-28 15h10.51.022887 +0100,
31,150,180,67,None,26,26,0,False,,,,right,1.9203801669937093,None,,,,,,,,,,,,,0,26,26,26,571.4038447499915,,,,,,,,,,,,,,,,,,,,,,,,,,,,,,,,,,,,,,,,,,,,,,,,,,,,,,,,,,,,,,,,,,,,,,,,,571.397869916982,571.4038447499915,572.398466374987,573.3895051250001,573.3895051250001,573.3895051250001,575.3172518339998,right,1.9203801669937093,None,,,,,,,,624666,001,2024-11-28_15h10.42.067,Test,2024.2.4,None,2024-11-28 15h10.51.022887 +0100,
16,150,90,25,None,27,27,0,False,,,,right,1.7013844999892171,None,,,,,,,,,,,,,0,27,27,27,575.3306497089798,,,,,,,,,,,,,,,,,,,,,,,,,,,,,,,,,,,,,,,,,,,,,,,,,,,,,,,,,,,,,,,,,,,,,,,,,575.3249543749844,575.3306497089798,576.32017404199,577.3153704169963,577.3153704169963,577.3153704169963,579.0241217089933,right,1.7013844999892171,None,,,,,,,,624666,001,2024-11-28_15h10.42.067,Test,2024.2.4,None,2024-11-28 15h10.51.022887 +0100,
43,150,30,9,None,28,28,0,True,,,,right,1.2099899160093628,None,,,,,,,,,,,,,0,28,28,28,579.0394657919824,,,,,,,,,,,,,,,,,,,,,,,,,,,,,,,,,,,,,,,,,,,,,,,,,,,,,,,,,,,,,,,,,,,,,,,,,579.0330842919939,579.0394657919824,580.0371673339978,581.0223246669921,581.0223246669921,581.0223246669921,582.2350580419879,right,1.2099899160093628,None,,,,,,,,624666,001,2024-11-28_15h10.42.067,Test,2024.2.4,None,2024-11-28 15h10.51.022887 +0100,
63,150,150,47,None,29,29,0,True,,,,left,1.0246122500102501,None,,,,,,,,,,,,,0,29,29,29,582.2504129589943,,,,,,,,,,,,,,,,,,,,,,,,,,,,,,,,,,,,,,,,,,,,,,,,,,,,,,,,,,,,,,,,,,,,,,,,,582.2440577090019,582.2504129589943,583.2485057500016,584.2319244999962,584.2319244999962,584.2319244999962,585.2672977089824,left,1.0246122500102501,None,,,,,,,,624666,001,2024-11-28_15h10.42.067,Test,2024.2.4,None,2024-11-28 15h10.51.022887 +0100,
20,150,90,55,None,30,30,0,False,,,,right,1.656340542016551,None,,,,,,,,,,,,,0,30,30,30,585.2829504169931,,,,,,,,,,,,,,,,,,,,,,,,,,,,,,,,,,,,,,,,,,,,,,,,,,,,,,,,,,,,,,,,,,,,,,,,,585.2763222499925,585.2829504169931,586.2820594999939,587.2654719999991,587.2654719999991,587.2654719999991,588.9239524999866,right,1.656340542016551,None,,,,,,,,624666,001,2024-11-28_15h10.42.067,Test,2024.2.4,None,2024-11-28 15h10.51.022887 +0100,
27,150,150,35,None,31,31,0,False,,,,right,2.166989207995357,None,,,,,,,,,,,,,0,31,31,31,588.9386204589973,,,,,,,,,,,,,,,,,,,,,,,,,,,,,,,,,,,,,,,,,,,,,,,,,,,,,,,,,,,,,,,,,,,,,,,,,588.9326465839986,588.9386204589973,589.9318453749875,590.9227196249994,590.9227196249994,590.9227196249994,593.1008074999845,right,2.166989207995357,None,,,,,,,,624666,001,2024-11-28_15h10.42.067,Test,2024.2.4,None,2024-11-28 15h10.51.022887 +0100,
32,150,180,5,None,32,32,0,False,,,,left,1.77814045897685,None,,,,,,,,,,,,,0,32,32,32,593.1163093749783,,,,,,,,,,,,,,,,,,,,,,,,,,,,,,,,,,,,,,,,,,,,,,,,,,,,,,,,,,,,,,,,,,,,,,,,,593.1096224169887,593.1163093749783,594.1152023339819,595.0986183749919,595.0986183749919,595.0986183749919,596.8844311669818,left,1.77814045897685,None,,,,,,,,624666,001,2024-11-28_15h10.42.067,Test,2024.2.4,None,2024-11-28 15h10.51.022887 +0100,
64,150,150,57,None,33,33,0,True,,,,left,1.0776368750084657,None,,,,,,,,,,,,,0,33,33,33,596.8989666669804,,,,,,,,,,,,,,,,,,,,,,,,,,,,,,,,,,,,,,,,,,,,,,,,,,,,,,,,,,,,,,,,,,,,,,,,,596.8932257919805,596.8989666669804,597.886733249994,598.8819377089967,598.8819377089967,598.8819377089967,599.9673554589972,left,1.0776368750084657,None,,,,,,,,624666,001,2024-11-28_15h10.42.067,Test,2024.2.4,None,2024-11-28 15h10.51.022887 +0100,
38,150,0,1,None,34,34,0,True,,,,left,2.5748697909875773,None,,,,,,,,,,,,,0,34,34,34,599.981672208989,,,,,,,,,,,,,,,,,,,,,,,,,,,,,,,,,,,,,,,,,,,,,,,,,,,,,,,,,,,,,,,,,,,,,,,,,599.9755687500001,599.981672208989,600.9703375419776,601.9653788339929,601.9653788339929,601.9653788339929,604.5504213749955,left,2.5748697909875773,None,,,,,,,,624666,001,2024-11-28_15h10.42.067,Test,2024.2.4,None,2024-11-28 15h10.51.022887 +0100,
21,150,120,61,None,35,35,0,False,,,,left,2.2915691249945667,None,,,,,,,,,,,,,0,35,35,35,604.5654334999854,,,,,,,,,,,,,,,,,,,,,,,,,,,,,,,,,,,,,,,,,,,,,,,,,,,,,,,,,,,,,,,,,,,,,,,,,604.5587977499817,604.5654334999854,605.5535248749948,606.5477114589885,606.5477114589885,606.5477114589885,608.8507267919776,left,2.2915691249945667,None,,,,,,,,624666,001,2024-11-28_15h10.42.067,Test,2024.2.4,None,2024-11-28 15h10.51.022887 +0100,
40,150,0,23,None,36,36,0,True,,,,left,0.9618537919886876,None,,,,,,,,,,,,,0,36,36,36,608.8650296669803,,,,,,,,,,,,,,,,,,,,,,,,,,,,,,,,,,,,,,,,,,,,,,,,,,,,,,,,,,,,,,,,,,,,,,,,,608.858344459004,608.8650296669803,609.8535701249784,610.8486784999841,610.8486784999841,610.8486784999841,611.8172637090029,left,0.9618537919886876,None,,,,,,,,624666,001,2024-11-28_15h10.42.067,Test,2024.2.4,None,2024-11-28 15h10.51.022887 +0100,
13,150,60,51,None,37,37,0,False,,,,right,1.2610785000142641,None,,,,,,,,,,,,,0,37,37,37,611.8328465420054,,,,,,,,,,,,,,,,,,,,,,,,,,,,,,,,,,,,,,,,,,,,,,,,,,,,,,,,,,,,,,,,,,,,,,,,,611.8256376670033,611.8328465420054,612.8197911669849,613.8152660839842,613.8152660839842,613.8152660839842,615.0838457089849,right,1.2610785000142641,None,,,,,,,,624666,001,2024-11-28_15h10.42.067,Test,2024.2.4,None,2024-11-28 15h10.51.022887 +0100,
5,150,0,8,None,38,38,0,False,,,,right,2.2908153330208734,None,,,,,,,,,,,,,0,38,38,38,615.0973200839944,,,,,,,,,,,,,,,,,,,,,,,,,,,,,,,,,,,,,,,,,,,,,,,,,,,,,,,,,,,,,,,,,,,,,,,,,615.0913779590046,615.0973200839944,616.0873847499897,617.081997500005,617.081997500005,617.081997500005,619.3833462089824,right,2.2908153330208734,None,,,,,,,,624666,001,2024-11-28_15h10.42.067,Test,2024.2.4,None,2024-11-28 15h10.51.022887 +0100,
48,150,60,70,None,39,39,0,True,,,,right,2.5276474580168724,None,,,,,,,,,,,,,0,39,39,39,619.394165249978,,,,,,,,,,,,,,,,,,,,,,,,,,,,,,,,,,,,,,,,,,,,,,,,,,,,,,,,,,,,,,,,,,,,,,,,,619.389539374999,619.394165249978,620.3871914999909,621.3821189589798,621.3821189589798,621.3821189589798,623.9172575839912,right,2.5276474580168724,None,,,,,,,,624666,001,2024-11-28_15h10.42.067,Test,2024.2.4,None,2024-11-28 15h10.51.022887 +0100,
44,150,30,28,None,40,40,0,True,,,,left,1.258015958010219,None,,,,,,,,,,,,,0,40,40,40,623.9309971249895,,,,,,,,,,,,,,,,,,,,,,,,,,,,,,,,,,,,,,,,,,,,,,,,,,,,,,,,,,,,,,,,,,,,,,,,,623.925070917001,623.9309971249895,624.9213052919949,625.915326916991,625.915326916991,625.915326916991,627.1841592919955,left,1.258015958010219,None,,,,,,,,624666,001,2024-11-28_15h10.42.067,Test,2024.2.4,None,2024-11-28 15h10.51.022887 +0100,
46,150,60,58,None,41,41,0,True,,,,left,0.9680593750090338,None,,,,,,,,,,,,,0,41,41,41,627.1993699169834,,,,,,,,,,,,,,,,,,,,,,,,,,,,,,,,,,,,,,,,,,,,,,,,,,,,,,,,,,,,,,,,,,,,,,,,,627.1929629170045,627.1993699169834,628.187141500006,629.1820074169955,629.1820074169955,629.1820074169955,630.1570097919903,left,0.9680593750090338,None,,,,,,,,624666,001,2024-11-28_15h10.42.067,Test,2024.2.4,None,2024-11-28 15h10.51.022887 +0100,
50,150,60,17,None,42,42,0,True,,,,left,2.0763218330102973,None,,,,,,,,,,,,,0,42,42,42,630.171682833985,,,,,,,,,,,,,,,,,,,,,,,,,,,,,,,,,,,,,,,,,,,,,,,,,,,,,,,,,,,,,,,,,,,,,,,,,630.1650259589951,630.171682833985,631.1653147089819,632.1560500839842,632.1560500839842,632.1560500839842,634.2349521249998,left,2.0763218330102973,None,,,,,,,,624666,001,2024-11-28_15h10.42.067,Test,2024.2.4,None,2024-11-28 15h10.51.022887 +0100,
45,150,30,46,None,43,43,0,True,,,,left,1.4843479580013081,None,,,,,,,,,,,,,0,43,43,43,634.2501653340005,,,,,,,,,,,,,,,,,,,,,,,,,,,,,,,,,,,,,,,,,,,,,,,,,,,,,,,,,,,,,,,,,,,,,,,,,634.2432375839853,634.2501653340005,635.2485975000018,636.2319794590003,636.2319794590003,636.2319794590003,637.7233190840052,left,1.4843479580013081,None,,,,,,,,624666,001,2024-11-28_15h10.42.067,Test,2024.2.4,None,2024-11-28 15h10.51.022887 +0100,
37,150,0,42,None,44,44,0,True,,,,left,0.9486778339778539,None,,,,,,,,,,,,,0,44,44,44,637.7387629589939,,,,,,,,,,,,,,,,,,,,,,,,,,,,,,,,,,,,,,,,,,,,,,,,,,,,,,,,,,,,,,,,,,,,,,,,,637.7322822919814,637.7387629589939,638.7371431249776,639.7229665420018,639.7229665420018,639.7229665420018,640.6737981250044,left,0.9486778339778539,None,,,,,,,,624666,001,2024-11-28_15h10.42.067,Test,2024.2.4,None,2024-11-28 15h10.51.022887 +0100,
68,150,180,12,None,45,45,0,True,,,,right,1.2030141249997541,None,,,,,,,,,,,,,0,45,45,45,640.6885676249804,,,,,,,,,,,,,,,,,,,,,,,,,,,,,,,,,,,,,,,,,,,,,,,,,,,,,,,,,,,,,,,,,,,,,,,,,640.6822459590039,640.6885676249804,641.687499541993,642.6723202089779,642.6723202089779,642.6723202089779,643.8839735839865,right,1.2030141249997541,None,,,,,,,,624666,001,2024-11-28_15h10.42.067,Test,2024.2.4,None,2024-11-28 15h10.51.022887 +0100,
35,150,180,62,None,46,46,0,False,,,,right,1.3224733750103042,None,,,,,,,,,,,,,0,46,46,46,643.9042402920022,,,,,,,,,,,,,,,,,,,,,,,,,,,,,,,,,,,,,,,,,,,,,,,,,,,,,,,,,,,,,,,,,,,,,,,,,643.8981810839905,643.9042402920022,644.8985363339889,645.8804388339922,645.8804388339922,645.8804388339922,647.2069918339839,right,1.3224733750103042,None,,,,,,,,624666,001,2024-11-28_15h10.42.067,Test,2024.2.4,None,2024-11-28 15h10.51.022887 +0100,
26,150,150,16,None,47,47,0,False,,,,left,1.3128282919933554,None,,,,,,,,,,,,,0,47,47,47,647.222593249986,,,,,,,,,,,,,,,,,,,,,,,,,,,,,,,,,,,,,,,,,,,,,,,,,,,,,,,,,,,,,,,,,,,,,,,,,647.2161428749969,647.222593249986,648.220492374996,649.2063481249788,649.2063481249788,649.2063481249788,650.5233990839915,left,1.3128282919933554,None,,,,,,,,624666,001,2024-11-28_15h10.42.067,Test,2024.2.4,None,2024-11-28 15h10.51.022887 +0100,
23,150,120,29,None,48,48,0,False,,,,right,1.376005875004921,None,,,,,,,,,,,,,0,48,48,48,650.5379575419938,,,,,,,,,,,,,,,,,,,,,,,,,,,,,,,,,,,,,,,,,,,,,,,,,,,,,,,,,,,,,,,,,,,,,,,,,650.5316710420011,650.5379575419938,651.5317932920007,652.523003499984,652.523003499984,652.523003499984,653.9024003749946,right,1.376005875004921,None,,,,,,,,624666,001,2024-11-28_15h10.42.067,Test,2024.2.4,None,2024-11-28 15h10.51.022887 +0100,
2,150,0,53,None,49,49,0,False,,,,right,1.0667580000008456,None,,,,,,,,,,,,,0,49,49,49,653.9177617499954,,,,,,,,,,,,,,,,,,,,,,,,,,,,,,,,,,,,,,,,,,,,,,,,,,,,,,,,,,,,,,,,,,,,,,,,,653.9108368339948,653.9177617499954,654.9151140000031,655.8987164999999,655.8987164999999,655.8987164999999,656.9678870000062,right,1.0667580000008456,None,,,,,,,,624666,001,2024-11-28_15h10.42.067,Test,2024.2.4,None,2024-11-28 15h10.51.022887 +0100,
42,150,30,36,None,50,50,0,True,,,,right,1.3511796669918112,None,,,,,,,,,,,,,0,50,50,50,656.9831886249885,,,,,,,,,,,,,,,,,,,,,,,,,,,,,,,,,,,,,,,,,,,,,,,,,,,,,,,,,,,,,,,,,,,,,,,,,656.9768431249831,656.9831886249885,657.9818639589939,658.965299375006,658.965299375006,658.965299375006,660.3232693749887,right,1.3511796669918112,None,,,,,,,,624666,001,2024-11-28_15h10.42.067,Test,2024.2.4,None,2024-11-28 15h10.51.022887 +0100,
18,150,90,45,None,51,51,0,False,,,,left,1.02718316600658,None,,,,,,,,,,,,,0,51,51,51,660.3374175420031,,,,,,,,,,,,,,,,,,,,,,,,,,,,,,,,,,,,,,,,,,,,,,,,,,,,,,,,,,,,,,,,,,,,,,,,,660.3306700419926,660.3374175420031,661.3319261669822,662.3221648749895,662.3221648749895,662.3221648749895,663.3604409589898,left,1.02718316600658,None,,,,,,,,624666,001,2024-11-28_15h10.42.067,Test,2024.2.4,None,2024-11-28 15h10.51.022887 +0100,
24,150,120,11,None,52,52,0,False,,,,left,0.9636308329936583,None,,,,,,,,,,,,,0,52,52,52,663.37797958398,,,,,,,,,,,,,,,,,,,,,,,,,,,,,,,,,,,,,,,,,,,,,,,,,,,,,,,,,,,,,,,,,,,,,,,,,663.37317979199,663.37797958398,664.3701882089954,665.357382333983,665.357382333983,665.357382333983,666.3236597089854,left,0.9636308329936583,None,,,,,,,,624666,001,2024-11-28_15h10.42.067,Test,2024.2.4,None,2024-11-28 15h10.51.022887 +0100,
70,150,180,19,None,53,53,0,True,,,,left,1.0094098330009729,None,,,,,,,,,,,,,0,53,53,53,666.3391253339942,,,,,,,,,,,,,,,,,,,,,,,,,,,,,,,,,,,,,,,,,,,,,,,,,,,,,,,,,,,,,,,,,,,,,,,,,666.3328648339957,666.3391253339942,667.3371866249945,668.3231112920039,668.3231112920039,668.3231112920039,669.3430463339901,left,1.0094098330009729,None,,,,,,,,624666,001,2024-11-28_15h10.42.067,Test,2024.2.4,None,2024-11-28 15h10.51.022887 +0100,
47,150,60,21,None,54,54,0,True,,,,left,0.9838731249910779,None,,,,,,,,,,,,,0,54,54,54,669.3551772919891,,,,,,,,,,,,,,,,,,,,,,,,,,,,,,,,,,,,,,,,,,,,,,,,,,,,,,,,,,,,,,,,,,,,,,,,,669.3506062089873,669.3551772919891,670.35389316699,671.3388190419937,671.3388190419937,671.3388190419937,672.3342614169815,left,0.9838731249910779,None,,,,,,,,624666,001,2024-11-28_15h10.42.067,Test,2024.2.4,None,2024-11-28 15h10.51.022887 +0100,
53,150,90,37,None,55,55,0,True,,,,left,1.0501071250182576,None,,,,,,,,,,,,,0,55,55,55,672.3493161670049,,,,,,,,,,,,,,,,,,,,,,,,,,,,,,,,,,,,,,,,,,,,,,,,,,,,,,,,,,,,,,,,,,,,,,,,,672.3427340420021,672.3493161670049,673.3371251669887,674.3320550000062,674.3320550000062,674.3320550000062,675.3845900419983,left,1.0501071250182576,None,,,,,,,,624666,001,2024-11-28_15h10.42.067,Test,2024.2.4,None,2024-11-28 15h10.51.022887 +0100,
54,150,90,18,None,56,56,0,True,,,,left,1.272193624987267,None,,,,,,,,,,,,,0,56,56,56,675.3999138340005,,,,,,,,,,,,,,,,,,,,,,,,,,,,,,,,,,,,,,,,,,,,,,,,,,,,,,,,,,,,,,,,,,,,,,,,,675.3930601669999,675.3999138340005,676.3985878340027,677.3820152919798,677.3820152919798,677.3820152919798,678.6568498339911,left,1.272193624987267,None,,,,,,,,624666,001,2024-11-28_15h10.42.067,Test,2024.2.4,None,2024-11-28 15h10.51.022887 +0100,
60,150,120,6,None,57,57,0,True,,,,left,1.169115917000454,None,,,,,,,,,,,,,0,57,57,57,678.6709826249862,,,,,,,,,,,,,,,,,,,,,,,,,,,,,,,,,,,,,,,,,,,,,,,,,,,,,,,,,,,,,,,,,,,,,,,,,678.6651296250056,678.6709826249862,679.6651884999883,680.6556845419982,680.6556845419982,680.6556845419982,681.8339106249914,left,1.169115917000454,None,,,,,,,,624666,001,2024-11-28_15h10.42.067,Test,2024.2.4,None,2024-11-28 15h10.51.022887 +0100,
28,150,150,56,None,58,58,0,False,,,,left,1.5123102910001762,None,,,,,,,,,,,,,0,58,58,58,681.8495772089809,,,,,,,,,,,,,,,,,,,,,,,,,,,,,,,,,,,,,,,,,,,,,,,,,,,,,,,,,,,,,,,,,,,,,,,,,681.842630500003,681.8495772089809,682.8486524999898,683.8320590840012,683.8320590840012,683.8320590840012,685.3507992920058,left,1.5123102910001762,None,,,,,,,,624666,001,2024-11-28_15h10.42.067,Test,2024.2.4,None,2024-11-28 15h10.51.022887 +0100,
36,150,0,65,None,59,59,0,True,,,,right,1.8009442079928704,None,,,,,,,,,,,,,0,59,59,59,685.3662435839942,,,,,,,,,,,,,,,,,,,,,,,,,,,,,,,,,,,,,,,,,,,,,,,,,,,,,,,,,,,,,,,,,,,,,,,,,685.3592429999844,685.3662435839942,686.3651405839773,687.3483316249913,687.3483316249913,687.3483316249913,689.160075458989,right,1.8009442079928704,None,,,,,,,,624666,001,2024-11-28_15h10.42.067,Test,2024.2.4,None,2024-11-28 15h10.51.022887 +0100,
49,150,60,22,None,60,60,0,True,,,,left,1.0035412500146776,None,,,,,,,,,,,,,0,60,60,60,689.1723044590035,,,,,,,,,,,,,,,,,,,,,,,,,,,,,,,,,,,,,,,,,,,,,,,,,,,,,,,,,,,,,,,,,,,,,,,,,689.1675932919898,689.1723044590035,690.1706027920009,691.1566792090016,691.1566792090016,691.1566792090016,692.1674239999847,left,1.0035412500146776,None,,,,,,,,624666,001,2024-11-28_15h10.42.067,Test,2024.2.4,None,2024-11-28 15h10.51.022887 +0100,
3,150,0,44,None,61,61,0,False,,,,right,1.0194443749787752,None,,,,,,,,,,,,,0,61,61,61,692.1830828749808,,,,,,,,,,,,,,,,,,,,,,,,,,,,,,,,,,,,,,,,,,,,,,,,,,,,,,,,,,,,,,,,,,,,,,,,,692.1761594169948,692.1830828749808,693.1819673339778,694.1653994169901,694.1653994169901,694.1653994169901,695.1904267089849,right,1.0194443749787752,None,,,,,,,,624666,001,2024-11-28_15h10.42.067,Test,2024.2.4,None,2024-11-28 15h10.51.022887 +0100,
17,150,90,68,None,62,62,0,False,,,,left,0.9699239999754354,None,,,,,,,,,,,,,0,62,62,62,695.2050422499888,,,,,,,,,,,,,,,,,,,,,,,,,,,,,,,,,,,,,,,,,,,,,,,,,,,,,,,,,,,,,,,,,,,,,,,,,695.1985426669999,695.2050422499888,696.1986390420061,697.189891749993,697.189891749993,697.189891749993,698.1674131669861,left,0.9699239999754354,None,,,,,,,,624666,001,2024-11-28_15h10.42.067,Test,2024.2.4,None,2024-11-28 15h10.51.022887 +0100,
33,150,180,32,None,63,63,0,False,,,,left,1.2122058749955613,None,,,,,,,,,,,,,0,63,63,63,698.1811946670059,,,,,,,,,,,,,,,,,,,,,,,,,,,,,,,,,,,,,,,,,,,,,,,,,,,,,,,,,,,,,,,,,,,,,,,,,698.1751593340014,698.1811946670059,699.1700259589998,700.1653007919958,700.1653007919958,700.1653007919958,701.3840163749992,left,1.2122058749955613,None,,,,,,,,624666,001,2024-11-28_15h10.42.067,Test,2024.2.4,None,2024-11-28 15h10.51.022887 +0100,
1,150,0,34,None,64,64,0,False,,,,left,1.4673286660108715,None,,,,,,,,,,,,,0,64,64,64,701.3993481670041,,,,,,,,,,,,,,,,,,,,,,,,,,,,,,,,,,,,,,,,,,,,,,,,,,,,,,,,,,,,,,,,,,,,,,,,,701.3929329169914,701.3993481670041,702.3872169999813,703.3820038340054,703.3820038340054,703.3820038340054,704.8601563340053,left,1.4673286660108715,None,,,,,,,,624666,001,2024-11-28_15h10.42.067,Test,2024.2.4,None,2024-11-28 15h10.51.022887 +0100,
29,150,150,4,None,65,65,0,False,,,,left,0.9830829589918721,None,,,,,,,,,,,,,0,65,65,65,704.8720343339955,,,,,,,,,,,,,,,,,,,,,,,,,,,,,,,,,,,,,,,,,,,,,,,,,,,,,,,,,,,,,,,,,,,,,,,,,704.8674638340017,704.8720343339955,705.8704519589955,706.8550130839867,706.8550130839867,706.8550130839867,707.8487339169951,left,0.9830829589918721,None,,,,,,,,624666,001,2024-11-28_15h10.42.067,Test,2024.2.4,None,2024-11-28 15h10.51.022887 +0100,
6,150,30,3,None,66,66,0,False,,,,left,2.779449832974933,None,,,,,,,,,,,,,0,66,66,66,707.8607320419978,,,,,,,,,,,,,,,,,,,,,,,,,,,,,,,,,,,,,,,,,,,,,,,,,,,,,,,,,,,,,,,,,,,,,,,,,707.8562073749781,707.8607320419978,708.8538608749805,709.8399128339952,709.8399128339952,709.8399128339952,712.6240603750048,left,2.779449832974933,None,,,,,,,,624666,001,2024-11-28_15h10.42.067,Test,2024.2.4,None,2024-11-28 15h10.51.022887 +0100,
12,150,60,40,None,67,67,0,False,,,,left,2.3931793750089128,None,,,,,,,,,,,,,0,67,67,67,712.6380217499973,,,,,,,,,,,,,,,,,,,,,,,,,,,,,,,,,,,,,,,,,,,,,,,,,,,,,,,,,,,,,,,,,,,,,,,,,712.6320704169921,712.6380217499973,713.6319023339893,714.6222372500051,714.6222372500051,714.6222372500051,717.0178479589813,left,2.3931793750089128,None,,,,,,,,624666,001,2024-11-28_15h10.42.067,Test,2024.2.4,None,2024-11-28 15h10.51.022887 +0100,
8,150,30,52,None,68,68,0,False,,,,right,0.8073447920032777,None,,,,,,,,,,,,,0,68,68,68,717.0332901249931,,,,,,,,,,,,,,,,,,,,,,,,,,,,,,,,,,,,,,,,,,,,,,,,,,,,,,,,,,,,,,,,,,,,,,,,,717.0266108340002,717.0332901249931,718.0317857089976,719.0152927500021,719.0152927500021,719.0152927500021,719.8340159170039,right,0.8073447920032777,None,,,,,,,,624666,001,2024-11-28_15h10.42.067,Test,2024.2.4,None,2024-11-28 15h10.51.022887 +0100,
19,150,90,10,None,69,69,0,False,,,,left,1.6179832920024637,None,,,,,,,,,,,,,0,69,69,69,719.8490191249875,,,,,,,,,,,,,,,,,,,,,,,,,,,,,,,,,,,,,,,,,,,,,,,,,,,,,,,,,,,,,,,,,,,,,,,,,719.8427121669811,719.8490191249875,720.8367576249875,721.8319792090042,721.8319792090042,721.8319792090042,723.4571517089789,left,1.6179832920024637,None,,,,,,,,624666,001,2024-11-28_15h10.42.067,Test,2024.2.4,None,2024-11-28 15h10.51.022887 +0100,
,,,,,,,,,,,,,,,,,,,,,,,,,,,,,,,,,,,,,,,,,,,,,,,,,,,,,,,,,,,,,,,,,,,,,,,,,,,,,,,,,,,,,,,,,,,,,,,,,,,,,,,,,,,,,,,,,,723.457440750004,723.4669650839933,723.4669650839933,726.4563750420057,space,2.986364665994188,None,624666,001,2024-11-28_15h10.42.067,Test,2024.2.4,None,2024-11-28 15h10.51.022887 +0100,
