Trial_Number,Exposure_Duration,Displacement_Angle,Stimulus,Response,thisN,thisTrialN,thisRepN,Is_Distractor,key_resp_3.keys,key_resp_3.rt,key_resp_3.duration,key_resp_7.keys,key_resp_7.rt,key_resp_7.duration,trials.thisRepN,trials.thisTrialN,trials.thisN,trials.thisIndex,trials_2.thisRepN,trials_2.thisTrialN,trials_2.thisN,trials_2.thisIndex,trials_3.thisRepN,trials_3.thisTrialN,trials_3.thisN,trials_3.thisIndex,trials_4.thisRepN,trials_4.thisTrialN,trials_4.thisN,trials_4.thisIndex,thisRow.t,notes,Intro_to_experiment.started,important1_2.started,key_resp_8.started,Intro_to_experiment.stopped,key_resp_8.keys,key_resp_8.rt,key_resp_8.duration,important.started,important1.started,key_resp_4.started,important.stopped,key_resp_4.keys,key_resp_4.rt,key_resp_4.duration,instruction.started,text_7.started,key_resp_9.started,instruction.stopped,key_resp_9.keys,key_resp_9.rt,key_resp_9.duration,training_trial.started,cross.started,image.started,aperture.started,cross.stopped,image.stopped,aperture.stopped,training_trial.stopped,New_instruction.started,text.started,key_resp_2.started,New_instruction.stopped,key_resp_2.keys,key_resp_2.rt,key_resp_2.duration,test_trial.started,cross2.started,cross2.stopped,image_2.started,key_resp_3.started,aperture_2.started,test_trial.stopped,trials_2.key_resp_3.keys,trials_2.key_resp_3.rt,trials_2.key_resp_3.duration,text_3.started,image_2.stopped,aperture_2.stopped,start_blok_2.started,key_resp_5.started,text_4.started,start_blok_2.stopped,key_resp_5.keys,key_resp_5.rt,key_resp_5.duration,training_2.started,cross_2.started,image_3.started,aperture_3.started,cross_2.stopped,image_3.stopped,aperture_3.stopped,training_2.stopped,nyeste_instruks.started,text_5.started,key_resp_6.started,nyeste_instruks.stopped,key_resp_6.keys,key_resp_6.rt,key_resp_6.duration,test_2.started,cross2_2.started,cross2_2.stopped,image_4.started,key_resp_7.started,aperture_4.started,test_2.stopped,trials_4.key_resp_7.keys,trials_4.key_resp_7.rt,trials_4.key_resp_7.duration,Instruction1.started,Instruktion.started,key_resp.started,Instruction1.stopped,key_resp.keys,key_resp.rt,key_resp.duration,participant,session,date,expName,psychopyVersion,frameRate,expStart,
,,,,,,,,,,,,,,,,,,,,,,,,,,,,,,,,,0.007922107994090766,0.020005665995995514,0.020005665995995514,47.36461535199487,space,47.31533600699913,None,,,,,,,,,,,,,,,,,,,,,,,,,,,,,,,,,,,,,,,,,,,,,,,,,,,,,,,,,,,,,,,,,,,,,,,,,,,,,,,,,,688491,001,2024-12-03_21h40.21.996,Test,2024.2.1,59.90700575670635,2024-12-03 21h40.31.989548 +0100,
,,,,,,,,,,,,,,,,,,,,,,,,,,,,,,,,,,,,,,,,47.364688468995155,47.38840622299176,47.38840622299176,78.12456389400177,space,30.723450839999714,None,,,,,,,,,,,,,,,,,,,,,,,,,,,,,,,,,,,,,,,,,,,,,,,,,,,,,,,,,,,,,,,,,,,,,,,,,,,688491,001,2024-12-03_21h40.21.996,Test,2024.2.1,59.90700575670635,2024-12-03 21h40.31.989548 +0100,
,,,,,,,,,,,,,,,,,,,,,,,,,,,,,,,,,,,,,,,,,,,,,,,78.12464360399463,78.13903736999782,78.13903736999782,93.22516565398837,space,15.074369112990098,None,,,,,,,,,,,,,,,,,,,,,,,,,,,,,,,,,,,,,,,,,,,,,,,,,,,,,,,,,,,,,,,,,,,,688491,001,2024-12-03_21h40.21.996,Test,2024.2.1,59.90700575670635,2024-12-03 21h40.31.989548 +0100,
31,150,180,30,None,0,0,0,,,,,,,,0,0,0,30,,,,,,,,,,,,,93.25250438199146,,,,,,,,,,,,,,,,,,,,,,,93.24308446099167,93.25250438199146,93.42355213199335,93.42355213199335,93.45813957299106,95.12443123898993,95.12443123898993,95.1078837189998,,,,,,,,,,,,,,,,,,,,,,,,,,,,,,,,,,,,,,,,,,,,,,,,,,,,,,,,,,,,688491,001,2024-12-03_21h40.21.996,Test,2024.2.1,59.90700575670635,2024-12-03 21h40.31.989548 +0100,
2,150,0,53,None,1,1,0,,,,,,,,0,1,1,1,,,,,,,,,,,,,95.12443123898993,,,,,,,,,,,,,,,,,,,,,,,95.11497929599136,95.14041292198817,95.34066157900088,95.34066157900088,95.34066157900088,97.04240215399477,97.04240215399477,97.02560306199302,,,,,,,,,,,,,,,,,,,,,,,,,,,,,,,,,,,,,,,,,,,,,,,,,,,,,,,,,,,,688491,001,2024-12-03_21h40.21.996,Test,2024.2.1,59.90700575670635,2024-12-03 21h40.31.989548 +0100,
17,150,90,45,None,2,2,0,,,,,,,,0,2,2,16,,,,,,,,,,,,,97.04240215399477,,,,,,,,,,,,,,,,,,,,,,,97.03416593199654,97.04240215399477,97.24081987699901,97.24081987699901,97.2574628250004,98.94025753499591,98.94025753499591,98.92458109698782,,,,,,,,,,,,,,,,,,,,,,,,,,,,,,,,,,,,,,,,,,,,,,,,,,,,,,,,,,,,688491,001,2024-12-03_21h40.21.996,Test,2024.2.1,59.90700575670635,2024-12-03 21h40.31.989548 +0100,
23,150,120,12,None,3,3,0,,,,,,,,0,3,3,22,,,,,,,,,,,,,98.94025753499591,,,,,,,,,,,,,,,,,,,,,,,98.93056333399727,98.94025753499591,99.12447275999875,99.12447275999875,99.14082488699933,100.82461535999028,100.82461535999028,100.80881379499624,,,,,,,,,,,,,,,,,,,,,,,,,,,,,,,,,,,,,,,,,,,,,,,,,,,,,,,,,,,,688491,001,2024-12-03_21h40.21.996,Test,2024.2.1,59.90700575670635,2024-12-03 21h40.31.989548 +0100,
29,150,150,21,None,4,4,0,,,,,,,,0,4,4,28,,,,,,,,,,,,,100.82461535999028,,,,,,,,,,,,,,,,,,,,,,,100.81489512400003,100.82461535999028,101.02378751798824,101.02378751798824,101.02378751798824,102.72414696100168,102.72414696100168,102.70857489599439,,,,,,,,,,,,,,,,,,,,,,,,,,,,,,,,,,,,,,,,,,,,,,,,,,,,,,,,,,,,688491,001,2024-12-03_21h40.21.996,Test,2024.2.1,59.90700575670635,2024-12-03 21h40.31.989548 +0100,
6,150,30,38,None,5,5,0,,,,,,,,0,5,5,5,,,,,,,,,,,,,102.72414696100168,,,,,,,,,,,,,,,,,,,,,,,102.71612019999884,102.72414696100168,102.9242991249921,102.9242991249921,102.9242991249921,104.6241087429953,104.6241087429953,104.60865226399619,,,,,,,,,,,,,,,,,,,,,,,,,,,,,,,,,,,,,,,,,,,,,,,,,,,,,,,,,,,,688491,001,2024-12-03_21h40.21.996,Test,2024.2.1,59.90700575670635,2024-12-03 21h40.31.989548 +0100,
34,150,180,40,None,6,6,0,,,,,,,,0,6,6,33,,,,,,,,,,,,,104.6241087429953,,,,,,,,,,,,,,,,,,,,,,,104.61431654599437,104.6241087429953,104.82448482599284,104.82448482599284,104.82448482599284,106.5247973009973,106.5247973009973,106.50910587600083,,,,,,,,,,,,,,,,,,,,,,,,,,,,,,,,,,,,,,,,,,,,,,,,,,,,,,,,,,,,688491,001,2024-12-03_21h40.21.996,Test,2024.2.1,59.90700575670635,2024-12-03 21h40.31.989548 +0100,
18,150,90,70,None,7,7,0,,,,,,,,0,7,7,17,,,,,,,,,,,,,106.5247973009973,,,,,,,,,,,,,,,,,,,,,,,106.51682309899479,106.5247973009973,106.72544431399729,106.72544431399729,106.72544431399729,108.42483201398863,108.42483201398863,108.40940038899134,,,,,,,,,,,,,,,,,,,,,,,,,,,,,,,,,,,,,,,,,,,,,,,,,,,,,,,,,,,,688491,001,2024-12-03_21h40.21.996,Test,2024.2.1,59.90700575670635,2024-12-03 21h40.31.989548 +0100,
13,150,60,24,None,8,8,0,,,,,,,,0,8,8,12,,,,,,,,,,,,,108.42483201398863,,,,,,,,,,,,,,,,,,,,,,,108.41685344099824,108.42483201398863,108.62500813399674,108.62500813399674,108.62500813399674,110.3248105370003,110.3248105370003,110.30875427499996,,,,,,,,,,,,,,,,,,,,,,,,,,,,,,,,,,,,,,,,,,,,,,,,,,,,,,,,,,,,688491,001,2024-12-03_21h40.21.996,Test,2024.2.1,59.90700575670635,2024-12-03 21h40.31.989548 +0100,
30,150,150,56,None,9,9,0,,,,,,,,0,9,9,29,,,,,,,,,,,,,110.3248105370003,,,,,,,,,,,,,,,,,,,,,,,110.31464520799636,110.3248105370003,110.5253273989947,110.5253273989947,110.5253273989947,112.22548439398815,112.22548439398815,112.20985097398807,,,,,,,,,,,,,,,,,,,,,,,,,,,,,,,,,,,,,,,,,,,,,,,,,,,,,,,,,,,,688491,001,2024-12-03_21h40.21.996,Test,2024.2.1,59.90700575670635,2024-12-03 21h40.31.989548 +0100,
35,150,180,35,None,10,10,0,,,,,,,,0,10,10,34,,,,,,,,,,,,,112.22548439398815,,,,,,,,,,,,,,,,,,,,,,,112.21675538599084,112.22548439398815,112.42564020999998,112.42564020999998,112.42564020999998,114.12942883399955,114.12942883399955,114.11070954699244,,,,,,,,,,,,,,,,,,,,,,,,,,,,,,,,,,,,,,,,,,,,,,,,,,,,,,,,,,,,688491,001,2024-12-03_21h40.21.996,Test,2024.2.1,59.90700575670635,2024-12-03 21h40.31.989548 +0100,
25,150,120,18,None,11,11,0,,,,,,,,0,11,11,24,,,,,,,,,,,,,114.12942883399955,,,,,,,,,,,,,,,,,,,,,,,114.1207429139904,114.12942883399955,114.32604021199222,114.32604021199222,114.34250841899484,116.02859289299522,116.02859289299522,116.0097858270019,,,,,,,,,,,,,,,,,,,,,,,,,,,,,,,,,,,,,,,,,,,,,,,,,,,,,,,,,,,,688491,001,2024-12-03_21h40.21.996,Test,2024.2.1,59.90700575670635,2024-12-03 21h40.31.989548 +0100,
33,150,180,34,None,12,12,0,,,,,,,,0,12,12,32,,,,,,,,,,,,,116.02859289299522,,,,,,,,,,,,,,,,,,,,,,,116.01942461999715,116.02859289299522,116.22527289499703,116.22527289499703,116.24259096199239,117.92564810799377,117.92564810799377,117.90941577999911,,,,,,,,,,,,,,,,,,,,,,,,,,,,,,,,,,,,,,,,,,,,,,,,,,,,,,,,,,,,688491,001,2024-12-03_21h40.21.996,Test,2024.2.1,59.90700575670635,2024-12-03 21h40.31.989548 +0100,
32,150,180,8,None,13,13,0,,,,,,,,0,13,13,31,,,,,,,,,,,,,117.92564810799377,,,,,,,,,,,,,,,,,,,,,,,117.91711879899958,117.92564810799377,118.12586410199583,118.12586410199583,118.12586410199583,119.82510426299996,119.82510426299996,119.80971085499914,,,,,,,,,,,,,,,,,,,,,,,,,,,,,,,,,,,,,,,,,,,,,,,,,,,,,,,,,,,,688491,001,2024-12-03_21h40.21.996,Test,2024.2.1,59.90700575670635,2024-12-03 21h40.31.989548 +0100,
19,150,90,16,None,14,14,0,,,,,,,,0,14,14,18,,,,,,,,,,,,,119.82510426299996,,,,,,,,,,,,,,,,,,,,,,,119.81573361100163,119.82510426299996,120.02674022199062,120.02674022199062,120.02674022199062,,,121.72610886799521,,,,,,,,,,,,,,,,,,,,,,,,,,,,,,,,,,,,,,,,,,,,,,,,,,,,,,,,,,,,688491,001,2024-12-03_21h40.21.996,Test,2024.2.1,59.90700575670635,2024-12-03 21h40.31.989548 +0100,
11,150,60,4,None,15,15,0,,,,,,,,0,15,15,10,,,,,,,,,,,,,121.74371622598846,,,,,,,,,,,,,,,,,,,,,,,121.73384990799241,121.74371622598846,121.92542854799831,121.92542854799831,121.95890428598796,123.62570610598777,123.62570610598777,123.60983047599439,,,,,,,,,,,,,,,,,,,,,,,,,,,,,,,,,,,,,,,,,,,,,,,,,,,,,,,,,,,,688491,001,2024-12-03_21h40.21.996,Test,2024.2.1,59.90700575670635,2024-12-03 21h40.31.989548 +0100,
5,150,0,63,None,16,16,0,,,,,,,,0,16,16,4,,,,,,,,,,,,,123.62570610598777,,,,,,,,,,,,,,,,,,,,,,,123.61588490899885,123.62570610598777,123.82670711199171,123.82670711199171,123.82670711199171,125.52701197599526,125.52701197599526,125.51044874699437,,,,,,,,,,,,,,,,,,,,,,,,,,,,,,,,,,,,,,,,,,,,,,,,,,,,,,,,,,,,688491,001,2024-12-03_21h40.21.996,Test,2024.2.1,59.90700575670635,2024-12-03 21h40.31.989548 +0100,
12,150,60,22,None,17,17,0,,,,,,,,0,17,17,11,,,,,,,,,,,,,125.52701197599526,,,,,,,,,,,,,,,,,,,,,,,125.51832299899252,125.52701197599526,125.72591256399755,125.72591256399755,125.72591256399755,127.42622261599172,127.42622261599172,127.41214683899307,,,,,,,,,,,,,,,,,,,,,,,,,,,,,,,,,,,,,,,,,,,,,,,,,,,,,,,,,,,,688491,001,2024-12-03_21h40.21.996,Test,2024.2.1,59.90700575670635,2024-12-03 21h40.31.989548 +0100,
28,150,150,41,None,18,18,0,,,,,,,,0,18,18,27,,,,,,,,,,,,,127.42622261599172,,,,,,,,,,,,,,,,,,,,,,,127.41831010900205,127.42622261599172,127.62596273899544,127.62596273899544,127.62596273899544,129.32566246399074,129.32566246399074,129.31043150598998,,,,,,,,,,,,,,,,,,,,,,,,,,,,,,,,,,,,,,,,,,,,,,,,,,,,,,,,,,,,688491,001,2024-12-03_21h40.21.996,Test,2024.2.1,59.90700575670635,2024-12-03 21h40.31.989548 +0100,
9,150,30,67,None,19,19,0,,,,,,,,0,19,19,8,,,,,,,,,,,,,129.32566246399074,,,,,,,,,,,,,,,,,,,,,,,129.31576744899212,129.32566246399074,129.52640372898895,129.52640372898895,129.52640372898895,131.22640518899425,131.22640518899425,131.21061271399958,,,,,,,,,,,,,,,,,,,,,,,,,,,,,,,,,,,,,,,,,,,,,,,,,,,,,,,,,,,,688491,001,2024-12-03_21h40.21.996,Test,2024.2.1,59.90700575670635,2024-12-03 21h40.31.989548 +0100,
22,150,120,60,None,20,20,0,,,,,,,,0,20,20,21,,,,,,,,,,,,,131.22640518899425,,,,,,,,,,,,,,,,,,,,,,,131.21640652499627,131.22640518899425,131.42649972900108,131.42649972900108,131.42649972900108,133.12680551799713,133.12680551799713,133.11066833199584,,,,,,,,,,,,,,,,,,,,,,,,,,,,,,,,,,,,,,,,,,,,,,,,,,,,,,,,,,,,688491,001,2024-12-03_21h40.21.996,Test,2024.2.1,59.90700575670635,2024-12-03 21h40.31.989548 +0100,
10,150,30,47,None,21,21,0,,,,,,,,0,21,21,9,,,,,,,,,,,,,133.12680551799713,,,,,,,,,,,,,,,,,,,,,,,133.11634486800176,133.12680551799713,133.326327991992,133.326327991992,133.326327991992,135.02673483800027,135.02673483800027,135.01103702299588,,,,,,,,,,,,,,,,,,,,,,,,,,,,,,,,,,,,,,,,,,,,,,,,,,,,,,,,,,,,688491,001,2024-12-03_21h40.21.996,Test,2024.2.1,59.90700575670635,2024-12-03 21h40.31.989548 +0100,
21,150,120,69,None,22,22,0,,,,,,,,0,22,22,20,,,,,,,,,,,,,135.02673483800027,,,,,,,,,,,,,,,,,,,,,,,135.01872102399648,135.02673483800027,135.2266914919892,135.2266914919892,135.2266914919892,136.92638379299024,136.92638379299024,136.91103862099408,,,,,,,,,,,,,,,,,,,,,,,,,,,,,,,,,,,,,,,,,,,,,,,,,,,,,,,,,,,,688491,001,2024-12-03_21h40.21.996,Test,2024.2.1,59.90700575670635,2024-12-03 21h40.31.989548 +0100,
16,150,90,37,None,23,23,0,,,,,,,,0,23,23,15,,,,,,,,,,,,,136.92638379299024,,,,,,,,,,,,,,,,,,,,,,,136.91739731599228,136.92638379299024,137.12660438499006,137.12660438499006,137.12660438499006,138.82653795499937,138.82653795499937,138.811020551002,,,,,,,,,,,,,,,,,,,,,,,,,,,,,,,,,,,,,,,,,,,,,,,,,,,,,,,,,,,,688491,001,2024-12-03_21h40.21.996,Test,2024.2.1,59.90700575670635,2024-12-03 21h40.31.989548 +0100,
15,150,60,7,None,24,24,0,,,,,,,,0,24,24,14,,,,,,,,,,,,,138.82653795499937,,,,,,,,,,,,,,,,,,,,,,,138.8168733240018,138.82653795499937,139.0274788629904,139.0274788629904,139.0274788629904,140.7273213409935,140.7273213409935,140.71055376000004,,,,,,,,,,,,,,,,,,,,,,,,,,,,,,,,,,,,,,,,,,,,,,,,,,,,,,,,,,,,688491,001,2024-12-03_21h40.21.996,Test,2024.2.1,59.90700575670635,2024-12-03 21h40.31.989548 +0100,
7,150,30,51,None,25,25,0,,,,,,,,0,25,25,6,,,,,,,,,,,,,140.7273213409935,,,,,,,,,,,,,,,,,,,,,,,140.71865277299366,140.7273213409935,140.92693876598787,140.92693876598787,140.92693876598787,142.6307574639941,142.6307574639941,142.61235323100118,,,,,,,,,,,,,,,,,,,,,,,,,,,,,,,,,,,,,,,,,,,,,,,,,,,,,,,,,,,,688491,001,2024-12-03_21h40.21.996,Test,2024.2.1,59.90700575670635,2024-12-03 21h40.31.989548 +0100,
20,150,90,33,None,26,26,0,,,,,,,,0,26,26,19,,,,,,,,,,,,,142.6307574639941,,,,,,,,,,,,,,,,,,,,,,,142.62197238799126,142.6307574639941,142.8270816919976,142.8270816919976,142.84419787899242,144.5278534419922,144.5278534419922,144.5114924919908,,,,,,,,,,,,,,,,,,,,,,,,,,,,,,,,,,,,,,,,,,,,,,,,,,,,,,,,,,,,688491,001,2024-12-03_21h40.21.996,Test,2024.2.1,59.90700575670635,2024-12-03 21h40.31.989548 +0100,
3,150,0,62,None,27,27,0,,,,,,,,0,27,27,2,,,,,,,,,,,,,144.5278534419922,,,,,,,,,,,,,,,,,,,,,,,144.51862757699564,144.5278534419922,144.72782177598856,144.72782177598856,144.72782177598856,146.42792555398773,146.42792555398773,146.41183436599385,,,,,,,,,,,,,,,,,,,,,,,,,,,,,,,,,,,,,,,,,,,,,,,,,,,,,,,,,,,,688491,001,2024-12-03_21h40.21.996,Test,2024.2.1,59.90700575670635,2024-12-03 21h40.31.989548 +0100,
26,150,150,31,None,28,28,0,,,,,,,,0,28,28,25,,,,,,,,,,,,,146.42792555398773,,,,,,,,,,,,,,,,,,,,,,,146.4192889249971,146.42792555398773,146.62753330200212,146.62753330200212,146.62753330200212,148.32826810599363,148.32826810599363,148.3121687899984,,,,,,,,,,,,,,,,,,,,,,,,,,,,,,,,,,,,,,,,,,,,,,,,,,,,,,,,,,,,688491,001,2024-12-03_21h40.21.996,Test,2024.2.1,59.90700575670635,2024-12-03 21h40.31.989548 +0100,
8,150,30,54,None,29,29,0,,,,,,,,0,29,29,7,,,,,,,,,,,,,148.32826810599363,,,,,,,,,,,,,,,,,,,,,,,148.32002808699326,148.32826810599363,148.53987073499593,148.53987073499593,148.53987073499593,,,150.22780063199752,,,,,,,,,,,,,,,,,,,,,,,,,,,,,,,,,,,,,,,,,,,,,,,,,,,,,,,,,,,,688491,001,2024-12-03_21h40.21.996,Test,2024.2.1,59.90700575670635,2024-12-03 21h40.31.989548 +0100,
1,150,0,39,None,30,30,0,,,,,,,,0,30,30,0,,,,,,,,,,,,,150.24394990499422,,,,,,,,,,,,,,,,,,,,,,,150.23288453699206,150.24394990499422,150.42761105399404,150.42761105399404,150.44457312999293,152.12747526999738,152.12747526999738,152.11177613299515,,,,,,,,,,,,,,,,,,,,,,,,,,,,,,,,,,,,,,,,,,,,,,,,,,,,,,,,,,,,688491,001,2024-12-03_21h40.21.996,Test,2024.2.1,59.90700575670635,2024-12-03 21h40.31.989548 +0100,
27,150,150,3,None,31,31,0,,,,,,,,0,31,31,26,,,,,,,,,,,,,152.12747526999738,,,,,,,,,,,,,,,,,,,,,,,152.11902335699415,152.12747526999738,152.32764626199787,152.32764626199787,152.32764626199787,154.02814240199223,154.02814240199223,154.0122144969937,,,,,,,,,,,,,,,,,,,,,,,,,,,,,,,,,,,,,,,,,,,,,,,,,,,,,,,,,,,,688491,001,2024-12-03_21h40.21.996,Test,2024.2.1,59.90700575670635,2024-12-03 21h40.31.989548 +0100,
14,150,60,42,None,32,32,0,,,,,,,,0,32,32,13,,,,,,,,,,,,,154.02814240199223,,,,,,,,,,,,,,,,,,,,,,,154.01793367500068,154.02814240199223,154.22817882199888,154.22817882199888,154.22817882199888,155.92810828398797,155.92810828398797,155.91226928099059,,,,,,,,,,,,,,,,,,,,,,,,,,,,,,,,,,,,,,,,,,,,,,,,,,,,,,,,,,,,688491,001,2024-12-03_21h40.21.996,Test,2024.2.1,59.90700575670635,2024-12-03 21h40.31.989548 +0100,
4,150,0,6,None,33,33,0,,,,,,,,0,33,33,3,,,,,,,,,,,,,155.92810828398797,,,,,,,,,,,,,,,,,,,,,,,155.91825880999386,155.92810828398797,156.12834752300114,156.12834752300114,156.12834752300114,157.8280865449924,157.8280865449924,157.81178929099406,,,,,,,,,,,,,,,,,,,,,,,,,,,,,,,,,,,,,,,,,,,,,,,,,,,,,,,,,,,,688491,001,2024-12-03_21h40.21.996,Test,2024.2.1,59.90700575670635,2024-12-03 21h40.31.989548 +0100,
24,150,120,5,None,34,34,0,,,,,,,,0,34,34,23,,,,,,,,,,,,,157.8280865449924,,,,,,,,,,,,,,,,,,,,,,,157.8171849779901,157.8280865449924,158.0281376549974,158.0281376549974,158.0281376549974,159.72927251199144,159.72927251199144,159.71306379399903,,,,,,,,,,,,,,,,,,,,,,,,,,,,,,,,,,,,,,,,,,,,,,,,,,,,,,,,,,,,688491,001,2024-12-03_21h40.21.996,Test,2024.2.1,59.90700575670635,2024-12-03 21h40.31.989548 +0100,
,,,,,,,,,,,,,,,,,,,,,,,,,,,,,,,,,,,,,,,,,,,,,,,,,,,,,,,,,,,,,,159.7132097559952,159.72927251199144,159.72927251199144,173.39669182599755,space,13.6510919680004,None,,,,,,,,,,,,,,,,,,,,,,,,,,,,,,,,,,,,,,,,,,,,,,,,,,,,,688491,001,2024-12-03_21h40.21.996,Test,2024.2.1,59.90700575670635,2024-12-03 21h40.31.989548 +0100,
22,150,120,60,None,0,0,0,False,right,0.932299410997075,None,,,,,,,,0,0,0,0,,,,,,,,,173.42082700500032,,,,,,,,,,,,,,,,,,,,,,,,,,,,,,,,,,,,,,173.41310178500134,173.42082700500032,174.42983686798834,175.39654488499218,175.39654488499218,175.39654488499218,176.33444399198925,right,0.932299410997075,None,,,,,,,,,,,,,,,,,,,,,,,,,,,,,,,,,,,,,,,,,,,688491,001,2024-12-03_21h40.21.996,Test,2024.2.1,59.90700575670635,2024-12-03 21h40.31.989548 +0100,
34,150,180,40,None,1,1,0,False,left,1.0397099149995483,None,,,,,,,,0,1,1,1,,,,,,,,,176.3720002409973,,,,,,,,,,,,,,,,,,,,,,,,,,,,,,,,,,,,,,176.3409842879919,176.3720002409973,177.37968939400162,178.34594651299994,178.34594651299994,178.34594651299994,179.3979926460015,left,1.0397099149995483,None,,,,,,,,,,,,,,,,,,,,,,,,,,,,,,,,,,,,,,,,,,,688491,001,2024-12-03_21h40.21.996,Test,2024.2.1,59.90700575670635,2024-12-03 21h40.31.989548 +0100,
9,150,30,67,None,2,2,0,False,left,1.8880822860082844,None,,,,,,,,0,2,2,2,,,,,,,,,179.41306383999472,,,,,,,,,,,,,,,,,,,,,,,,,,,,,,,,,,,,,,179.40323245000036,179.41306383999472,180.41342876199633,181.41268361698894,181.41268361698894,181.41268361698894,183.31429051299347,left,1.8880822860082844,None,,,,,,,,,,,,,,,,,,,,,,,,,,,,,,,,,,,,,,,,,,,688491,001,2024-12-03_21h40.21.996,Test,2024.2.1,59.90700575670635,2024-12-03 21h40.31.989548 +0100,
20,150,90,33,None,3,3,0,False,right,0.6517413840047084,None,,,,,,,,0,3,3,3,,,,,,,,,183.3293302289967,,,,,,,,,,,,,,,,,,,,,,,,,,,,,,,,,,,,,,183.31866137999168,183.3293302289967,184.32981543899223,185.32963325399032,185.32963325399032,185.32963325399032,185.99863085598918,right,0.6517413840047084,None,,,,,,,,,,,,,,,,,,,,,,,,,,,,,,,,,,,,,,,,,,,688491,001,2024-12-03_21h40.21.996,Test,2024.2.1,59.90700575670635,2024-12-03 21h40.31.989548 +0100,
16,150,90,37,None,4,4,0,False,right,0.9350953120010672,None,,,,,,,,0,4,4,4,,,,,,,,,186.01353689200187,,,,,,,,,,,,,,,,,,,,,,,,,,,,,,,,,,,,,,186.00421730599192,186.01353689200187,187.01349193698843,188.0138101779885,188.0138101779885,188.0138101779885,188.96571101399604,right,0.9350953120010672,None,,,,,,,,,,,,,,,,,,,,,,,,,,,,,,,,,,,,,,,,,,,688491,001,2024-12-03_21h40.21.996,Test,2024.2.1,59.90700575670635,2024-12-03 21h40.31.989548 +0100,
69,150,180,14,None,5,5,0,True,left,0.97430887799419,None,,,,,,,,0,5,5,5,,,,,,,,,188.98879858299915,,,,,,,,,,,,,,,,,,,,,,,,,,,,,,,,,,,,,,188.98128168299445,188.98879858299915,189.99735210200015,190.980376950989,190.980376950989,190.980376950989,191.9670902809885,left,0.97430887799419,None,,,,,,,,,,,,,,,,,,,,,,,,,,,,,,,,,,,,,,,,,,,688491,001,2024-12-03_21h40.21.996,Test,2024.2.1,59.90700575670635,2024-12-03 21h40.31.989548 +0100,
47,150,60,32,None,6,6,0,True,left,0.9926770979946014,None,,,,,,,,0,6,6,6,,,,,,,,,191.99692621600116,,,,,,,,,,,,,,,,,,,,,,,,,,,,,,,,,,,,,,191.9833113969944,191.99692621600116,192.9973470499972,193.98054412398778,193.98054412398778,193.98054412398778,194.981900245999,left,0.9926770979946014,None,,,,,,,,,,,,,,,,,,,,,,,,,,,,,,,,,,,,,,,,,,,688491,001,2024-12-03_21h40.21.996,Test,2024.2.1,59.90700575670635,2024-12-03 21h40.31.989548 +0100,
60,150,120,29,None,7,7,0,True,right,2.403416393994121,None,,,,,,,,0,7,7,7,,,,,,,,,194.99707525299164,,,,,,,,,,,,,,,,,,,,,,,,,,,,,,,,,,,,,,194.98755038299714,194.99707525299164,195.99768359398877,196.98076599299384,196.98076599299384,196.98076599299384,199.39890327698959,right,2.403416393994121,None,,,,,,,,,,,,,,,,,,,,,,,,,,,,,,,,,,,,,,,,,,,688491,001,2024-12-03_21h40.21.996,Test,2024.2.1,59.90700575670635,2024-12-03 21h40.31.989548 +0100,
30,150,150,56,None,8,8,0,False,right,1.0513296660064952,None,,,,,,,,0,8,8,8,,,,,,,,,199.41601343698858,,,,,,,,,,,,,,,,,,,,,,,,,,,,,,,,,,,,,,199.40642293498968,199.41601343698858,200.41385463099869,201.41461940399313,201.41461940399313,201.41461940399313,202.48234340299678,right,1.0513296660064952,None,,,,,,,,,,,,,,,,,,,,,,,,,,,,,,,,,,,,,,,,,,,688491,001,2024-12-03_21h40.21.996,Test,2024.2.1,59.90700575670635,2024-12-03 21h40.31.989548 +0100,
7,150,30,51,None,9,9,0,False,right,1.116292519000126,None,,,,,,,,0,9,9,9,,,,,,,,,202.497753491989,,,,,,,,,,,,,,,,,,,,,,,,,,,,,,,,,,,,,,202.48792392900214,202.497753491989,203.49764550899272,204.48179448999872,204.48179448999872,204.48179448999872,205.6004502220021,right,1.116292519000126,None,,,,,,,,,,,,,,,,,,,,,,,,,,,,,,,,,,,,,,,,,,,688491,001,2024-12-03_21h40.21.996,Test,2024.2.1,59.90700575670635,2024-12-03 21h40.31.989548 +0100,
66,150,180,27,None,10,10,0,True,left,1.3647229880007217,None,,,,,,,,0,10,10,10,,,,,,,,,205.61501487799978,,,,,,,,,,,,,,,,,,,,,,,,,,,,,,,,,,,,,,205.60579335399962,205.61501487799978,206.61915657999634,207.61454914699425,207.61454914699425,207.61454914699425,208.984482793996,left,1.3647229880007217,None,,,,,,,,,,,,,,,,,,,,,,,,,,,,,,,,,,,,,,,,,,,688491,001,2024-12-03_21h40.21.996,Test,2024.2.1,59.90700575670635,2024-12-03 21h40.31.989548 +0100,
65,150,150,65,None,11,11,0,True,left,1.5175955790036824,None,,,,,,,,0,11,11,11,,,,,,,,,208.9991963749926,,,,,,,,,,,,,,,,,,,,,,,,,,,,,,,,,,,,,,208.989631902994,208.9991963749926,210.01475724000193,210.99841188099526,210.99841188099526,210.99841188099526,212.53230877999158,left,1.5175955790036824,None,,,,,,,,,,,,,,,,,,,,,,,,,,,,,,,,,,,,,,,,,,,688491,001,2024-12-03_21h40.21.996,Test,2024.2.1,59.90700575670635,2024-12-03 21h40.31.989548 +0100,
31,150,180,30,None,12,12,0,False,left,1.5402093149896245,None,,,,,,,,0,12,12,12,,,,,,,,,212.54847515599977,,,,,,,,,,,,,,,,,,,,,,,,,,,,,,,,,,,,,,212.53776354099682,212.54847515599977,213.54825836799864,214.53242349799257,214.53242349799257,214.53242349799257,216.08322291099466,left,1.5402093149896245,None,,,,,,,,,,,,,,,,,,,,,,,,,,,,,,,,,,,,,,,,,,,688491,001,2024-12-03_21h40.21.996,Test,2024.2.1,59.90700575670635,2024-12-03 21h40.31.989548 +0100,
19,150,90,16,None,13,13,0,False,right,1.5305557909887284,None,,,,,,,,0,13,13,13,,,,,,,,,216.09830783499638,,,,,,,,,,,,,,,,,,,,,,,,,,,,,,,,,,,,,,216.0888812649937,216.09830783499638,217.0988249869988,218.09886731099687,218.09886731099687,218.09886731099687,219.63430000199878,right,1.5305557909887284,None,,,,,,,,,,,,,,,,,,,,,,,,,,,,,,,,,,,,,,,,,,,688491,001,2024-12-03_21h40.21.996,Test,2024.2.1,59.90700575670635,2024-12-03 21h40.31.989548 +0100,
1,150,0,39,None,14,14,0,False,right,1.416694555999129,None,,,,,,,,0,14,14,14,,,,,,,,,219.64992844499648,,,,,,,,,,,,,,,,,,,,,,,,,,,,,,,,,,,,,,219.64032132799912,219.64992844499648,220.6500590700016,221.65036299198982,221.65036299198982,221.65036299198982,223.08387928699085,right,1.416694555999129,None,,,,,,,,,,,,,,,,,,,,,,,,,,,,,,,,,,,,,,,,,,,688491,001,2024-12-03_21h40.21.996,Test,2024.2.1,59.90700575670635,2024-12-03 21h40.31.989548 +0100,
38,150,0,25,None,15,15,0,True,left,0.941423454991309,None,,,,,,,,0,15,15,15,,,,,,,,,223.0990630919987,,,,,,,,,,,,,,,,,,,,,,,,,,,,,,,,,,,,,,223.08913276599196,223.0990630919987,224.09946834298898,225.0836727220012,225.0836727220012,225.0836727220012,226.03485886199633,left,0.941423454991309,None,,,,,,,,,,,,,,,,,,,,,,,,,,,,,,,,,,,,,,,,,,,688491,001,2024-12-03_21h40.21.996,Test,2024.2.1,59.90700575670635,2024-12-03 21h40.31.989548 +0100,
68,150,180,11,None,16,16,0,True,right,1.0347798639995744,None,,,,,,,,0,16,16,16,,,,,,,,,226.0500439479947,,,,,,,,,,,,,,,,,,,,,,,,,,,,,,,,,,,,,,226.0407467240002,226.0500439479947,227.0490884299943,228.04968862999522,228.04968862999522,228.04968862999522,229.1017225599935,right,1.0347798639995744,None,,,,,,,,,,,,,,,,,,,,,,,,,,,,,,,,,,,,,,,,,,,688491,001,2024-12-03_21h40.21.996,Test,2024.2.1,59.90700575670635,2024-12-03 21h40.31.989548 +0100,
70,150,180,64,None,17,17,0,True,right,1.2317730589857092,None,,,,,,,,0,17,17,17,,,,,,,,,229.11675561100128,,,,,,,,,,,,,,,,,,,,,,,,,,,,,,,,,,,,,,229.10773362999316,229.11675561100128,230.11749864199373,231.10101511399262,231.10101511399262,231.10101511399262,232.33740299798956,right,1.2317730589857092,None,,,,,,,,,,,,,,,,,,,,,,,,,,,,,,,,,,,,,,,,,,,688491,001,2024-12-03_21h40.21.996,Test,2024.2.1,59.90700575670635,2024-12-03 21h40.31.989548 +0100,
37,150,0,46,None,18,18,0,True,left,0.758499005009071,None,,,,,,,,0,18,18,18,,,,,,,,,232.35172266999143,,,,,,,,,,,,,,,,,,,,,,,,,,,,,,,,,,,,,,232.3431010459899,232.35172266999143,233.36710892699193,234.35003926699574,234.35003926699574,234.35003926699574,235.1178649020003,left,0.758499005009071,None,,,,,,,,,,,,,,,,,,,,,,,,,,,,,,,,,,,,,,,,,,,688491,001,2024-12-03_21h40.21.996,Test,2024.2.1,59.90700575670635,2024-12-03 21h40.31.989548 +0100,
3,150,0,62,None,19,19,0,False,right,0.8077004049991956,None,,,,,,,,0,19,19,19,,,,,,,,,235.1335229279939,,,,,,,,,,,,,,,,,,,,,,,,,,,,,,,,,,,,,,235.12443762799376,235.1335229279939,236.13430586799223,237.11760603899893,237.11760603899893,237.11760603899893,237.93582888400124,right,0.8077004049991956,None,,,,,,,,,,,,,,,,,,,,,,,,,,,,,,,,,,,,,,,,,,,688491,001,2024-12-03_21h40.21.996,Test,2024.2.1,59.90700575670635,2024-12-03 21h40.31.989548 +0100,
58,150,120,61,None,20,20,0,True,left,1.169323214009637,None,,,,,,,,0,20,20,20,,,,,,,,,237.95122916199034,,,,,,,,,,,,,,,,,,,,,,,,,,,,,,,,,,,,,,237.94215400899702,237.95122916199034,238.9507600569923,239.95064239199564,239.95064239199564,239.95064239199564,241.1358723329904,left,1.169323214009637,None,,,,,,,,,,,,,,,,,,,,,,,,,,,,,,,,,,,,,,,,,,,688491,001,2024-12-03_21h40.21.996,Test,2024.2.1,59.90700575670635,2024-12-03 21h40.31.989548 +0100,
40,150,0,23,None,21,21,0,True,left,1.2721328259940492,None,,,,,,,,0,21,21,21,,,,,,,,,241.15139071299927,,,,,,,,,,,,,,,,,,,,,,,,,,,,,,,,,,,,,,241.14214051199087,241.15139071299927,242.1502980410005,243.1517054369906,243.1517054369906,243.1517054369906,244.43595938099315,left,1.2721328259940492,None,,,,,,,,,,,,,,,,,,,,,,,,,,,,,,,,,,,,,,,,,,,688491,001,2024-12-03_21h40.21.996,Test,2024.2.1,59.90700575670635,2024-12-03 21h40.31.989548 +0100,
17,150,90,45,None,22,22,0,False,right,0.6783352899947204,None,,,,,,,,0,22,22,22,,,,,,,,,244.45158435999474,,,,,,,,,,,,,,,,,,,,,,,,,,,,,,,,,,,,,,244.44192264998856,244.45158435999474,245.4516856729897,246.45074432800175,246.45074432800175,246.45074432800175,247.13601632000064,right,0.6783352899947204,None,,,,,,,,,,,,,,,,,,,,,,,,,,,,,,,,,,,,,,,,,,,688491,001,2024-12-03_21h40.21.996,Test,2024.2.1,59.90700575670635,2024-12-03 21h40.31.989548 +0100,
53,150,90,26,None,23,23,0,True,left,0.9467378099943744,None,,,,,,,,0,23,23,23,,,,,,,,,247.1514521529898,,,,,,,,,,,,,,,,,,,,,,,,,,,,,,,,,,,,,,247.1415577949956,247.1514521529898,248.1515048759902,249.15145435900195,249.15145435900195,249.15145435900195,250.1031469110021,left,0.9467378099943744,None,,,,,,,,,,,,,,,,,,,,,,,,,,,,,,,,,,,,,,,,,,,688491,001,2024-12-03_21h40.21.996,Test,2024.2.1,59.90700575670635,2024-12-03 21h40.31.989548 +0100,
36,150,0,66,None,24,24,0,True,left,1.2022859069984406,None,,,,,,,,0,24,24,24,,,,,,,,,250.11820688899024,,,,,,,,,,,,,,,,,,,,,,,,,,,,,,,,,,,,,,250.10908623399155,250.11820688899024,251.11903218299267,252.11801312299212,252.11801312299212,252.11801312299212,253.33713651599828,left,1.2022859069984406,None,,,,,,,,,,,,,,,,,,,,,,,,,,,,,,,,,,,,,,,,,,,688491,001,2024-12-03_21h40.21.996,Test,2024.2.1,59.90700575670635,2024-12-03 21h40.31.989548 +0100,
52,150,90,43,None,25,25,0,True,left,2.3115820910024922,None,,,,,,,,0,25,25,25,,,,,,,,,253.35180447199673,,,,,,,,,,,,,,,,,,,,,,,,,,,,,,,,,,,,,,253.342988917997,253.35180447199673,254.35232589799853,255.3519334820012,255.3519334820012,255.3519334820012,257.67015081499994,left,2.3115820910024922,None,,,,,,,,,,,,,,,,,,,,,,,,,,,,,,,,,,,,,,,,,,,688491,001,2024-12-03_21h40.21.996,Test,2024.2.1,59.90700575670635,2024-12-03 21h40.31.989548 +0100,
48,150,60,17,None,26,26,0,True,right,0.9383518200047547,None,,,,,,,,0,26,26,26,,,,,,,,,257.68689488199016,,,,,,,,,,,,,,,,,,,,,,,,,,,,,,,,,,,,,,257.6777840470022,257.68689488199016,258.6863018939912,259.66981484099233,259.66981484099233,259.66981484099233,260.62002572999336,right,0.9383518200047547,None,,,,,,,,,,,,,,,,,,,,,,,,,,,,,,,,,,,,,,,,,,,688491,001,2024-12-03_21h40.21.996,Test,2024.2.1,59.90700575670635,2024-12-03 21h40.31.989548 +0100,
25,150,120,18,None,27,27,0,False,right,1.2871590310096508,None,,,,,,,,0,27,27,27,,,,,,,,,260.63567889199476,,,,,,,,,,,,,,,,,,,,,,,,,,,,,,,,,,,,,,260.62552203999076,260.63567889199476,261.6363502089953,262.6360266739939,262.6360266739939,262.6360266739939,263.9372994439909,right,1.2871590310096508,None,,,,,,,,,,,,,,,,,,,,,,,,,,,,,,,,,,,,,,,,,,,688491,001,2024-12-03_21h40.21.996,Test,2024.2.1,59.90700575670635,2024-12-03 21h40.31.989548 +0100,
50,150,60,19,None,28,28,0,True,left,1.5940621650079265,None,,,,,,,,0,28,28,28,,,,,,,,,263.95335731998784,,,,,,,,,,,,,,,,,,,,,,,,,,,,,,,,,,,,,,263.94394220400136,263.95335731998784,264.9521539629932,265.93681773298886,265.93681773298886,265.93681773298886,267.537174846002,left,1.5940621650079265,None,,,,,,,,,,,,,,,,,,,,,,,,,,,,,,,,,,,,,,,,,,,688491,001,2024-12-03_21h40.21.996,Test,2024.2.1,59.90700575670635,2024-12-03 21h40.31.989548 +0100,
59,150,120,58,None,29,29,0,True,left,1.024188060007873,None,,,,,,,,0,29,29,29,,,,,,,,,267.5527225459955,,,,,,,,,,,,,,,,,,,,,,,,,,,,,,,,,,,,,,267.543172819991,267.5527225459955,268.5687743759918,269.5876688040007,269.5876688040007,269.5876688040007,270.6211779729929,left,1.024188060007873,None,,,,,,,,,,,,,,,,,,,,,,,,,,,,,,,,,,,,,,,,,,,688491,001,2024-12-03_21h40.21.996,Test,2024.2.1,59.90700575670635,2024-12-03 21h40.31.989548 +0100,
55,150,90,1,None,30,30,0,True,right,0.8716205749951769,None,,,,,,,,0,30,30,30,,,,,,,,,270.63765974399575,,,,,,,,,,,,,,,,,,,,,,,,,,,,,,,,,,,,,,270.6286336089979,270.63765974399575,271.653109011997,272.63634861398896,272.63634861398896,272.63634861398896,273.52073528298934,right,0.8716205749951769,None,,,,,,,,,,,,,,,,,,,,,,,,,,,,,,,,,,,,,,,,,,,688491,001,2024-12-03_21h40.21.996,Test,2024.2.1,59.90700575670635,2024-12-03 21h40.31.989548 +0100,
8,150,30,54,None,31,31,0,False,right,2.995366904011462,None,,,,,,,,0,31,31,31,,,,,,,,,273.535458407001,,,,,,,,,,,,,,,,,,,,,,,,,,,,,,,,,,,,,,273.5257810329931,273.535458407001,274.5364177189913,275.5363309289969,275.5363309289969,275.5363309289969,278.5382819689985,right,2.995366904011462,None,278.5196929599915,278.53643496400036,278.53643496400036,,,,,,,,,,,,,,,,,,,,,,,,,,,,,,,,,,,,,,,,688491,001,2024-12-03_21h40.21.996,Test,2024.2.1,59.90700575670635,2024-12-03 21h40.31.989548 +0100,
54,150,90,2,None,32,32,0,True,right,10.335755524007254,None,,,,,,,,0,32,32,32,,,,,,,,,278.5527980429906,,,,,,,,,,,,,,,,,,,,,,,,,,,,,,,,,,,,,,278.54332410400093,278.5527980429906,279.55362215799687,280.5530452129897,280.5530452129897,280.5530452129897,290.9064489099983,right,10.335755524007254,None,283.5375278309948,283.5542034629907,283.5542034629907,,,,,,,,,,,,,,,,,,,,,,,,,,,,,,,,,,,,,,,,688491,001,2024-12-03_21h40.21.996,Test,2024.2.1,59.90700575670635,2024-12-03 21h40.31.989548 +0100,
28,150,150,41,None,33,33,0,False,right,1.2604378730029566,None,,,,,,,,0,33,33,33,,,,,,,,,290.9218682599894,,,,,,,,,,,,,,,,,,,,,,,,,,,,,,,,,,,,,,290.9127599469939,290.9218682599894,291.92189845300163,292.9218381690007,292.9218381690007,292.9218381690007,294.18927336898923,right,1.2604378730029566,None,,,,,,,,,,,,,,,,,,,,,,,,,,,,,,,,,,,,,,,,,,,688491,001,2024-12-03_21h40.21.996,Test,2024.2.1,59.90700575670635,2024-12-03 21h40.31.989548 +0100,
42,150,30,49,None,34,34,0,True,left,1.0995225249935174,None,,,,,,,,0,34,34,34,,,,,,,,,294.20487815699016,,,,,,,,,,,,,,,,,,,,,,,,,,,,,,,,,,,,,,294.19535211799666,294.20487815699016,295.2049039609992,296.1884754149942,296.1884754149942,296.1884754149942,297.2905204970011,left,1.0995225249935174,None,,,,,,,,,,,,,,,,,,,,,,,,,,,,,,,,,,,,,,,,,,,688491,001,2024-12-03_21h40.21.996,Test,2024.2.1,59.90700575670635,2024-12-03 21h40.31.989548 +0100,
33,150,180,34,None,35,35,0,False,right,1.0763758579996647,None,,,,,,,,0,35,35,35,,,,,,,,,297.30893353698775,,,,,,,,,,,,,,,,,,,,,,,,,,,,,,,,,,,,,,297.2987235769979,297.30893353698775,298.321249635992,299.3053363289946,299.3053363289946,299.3053363289946,300.3896380669903,right,1.0763758579996647,None,,,,,,,,,,,,,,,,,,,,,,,,,,,,,,,,,,,,,,,,,,,688491,001,2024-12-03_21h40.21.996,Test,2024.2.1,59.90700575670635,2024-12-03 21h40.31.989548 +0100,
32,150,180,8,None,36,36,0,False,left,2.234797131997766,None,,,,,,,,0,36,36,36,,,,,,,,,300.4080357479979,,,,,,,,,,,,,,,,,,,,,,,,,,,,,,,,,,,,,,300.39848909698776,300.4080357479979,301.4216697160009,302.40466588900017,302.40466588900017,302.40466588900017,304.65606688799744,left,2.234797131997766,None,,,,,,,,,,,,,,,,,,,,,,,,,,,,,,,,,,,,,,,,,,,688491,001,2024-12-03_21h40.21.996,Test,2024.2.1,59.90700575670635,2024-12-03 21h40.31.989548 +0100,
41,150,30,52,None,37,37,0,True,left,1.0047526910057059,None,,,,,,,,0,37,37,37,,,,,,,,,304.67168518899416,,,,,,,,,,,,,,,,,,,,,,,,,,,,,,,,,,,,,,304.66198465299385,304.67168518899416,305.6722063490015,306.65561639599036,306.65561639599036,306.65561639599036,307.67345596000087,left,1.0047526910057059,None,,,,,,,,,,,,,,,,,,,,,,,,,,,,,,,,,,,,,,,,,,,688491,001,2024-12-03_21h40.21.996,Test,2024.2.1,59.90700575670635,2024-12-03 21h40.31.989548 +0100,
12,150,60,22,None,38,38,0,False,right,1.2060764890047722,None,,,,,,,,0,38,38,38,,,,,,,,,307.6898070469906,,,,,,,,,,,,,,,,,,,,,,,,,,,,,,,,,,,,,,307.68125604199304,307.6898070469906,308.68901527900016,309.68860345899884,309.68860345899884,309.68860345899884,310.9066670829925,right,1.2060764890047722,None,,,,,,,,,,,,,,,,,,,,,,,,,,,,,,,,,,,,,,,,,,,688491,001,2024-12-03_21h40.21.996,Test,2024.2.1,59.90700575670635,2024-12-03 21h40.31.989548 +0100,
14,150,60,42,None,39,39,0,False,left,2.421898131011403,None,,,,,,,,0,39,39,39,,,,,,,,,310.92185364199395,,,,,,,,,,,,,,,,,,,,,,,,,,,,,,,,,,,,,,310.91230167199683,310.92185364199395,311.9220165549923,312.90582874498796,312.90582874498796,312.90582874498796,315.3402446179971,left,2.421898131011403,None,,,,,,,,,,,,,,,,,,,,,,,,,,,,,,,,,,,,,,,,,,,688491,001,2024-12-03_21h40.21.996,Test,2024.2.1,59.90700575670635,2024-12-03 21h40.31.989548 +0100,
45,150,30,20,None,40,40,0,True,left,1.0374323169962736,None,,,,,,,,0,40,40,40,,,,,,,,,315.3571390839934,,,,,,,,,,,,,,,,,,,,,,,,,,,,,,,,,,,,,,315.3469115199987,315.3571390839934,316.37293774599675,317.3558390609978,317.3558390609978,317.3558390609978,318.4069835119881,left,1.0374323169962736,None,,,,,,,,,,,,,,,,,,,,,,,,,,,,,,,,,,,,,,,,,,,688491,001,2024-12-03_21h40.21.996,Test,2024.2.1,59.90700575670635,2024-12-03 21h40.31.989548 +0100,
62,150,150,68,None,41,41,0,True,right,2.385018196000601,None,,,,,,,,0,41,41,41,,,,,,,,,318.42250310799864,,,,,,,,,,,,,,,,,,,,,,,,,,,,,,,,,,,,,,318.41287930599356,318.42250310799864,319.4232008839899,320.42310647299746,320.42310647299746,320.42310647299746,322.8243055209896,right,2.385018196000601,None,,,,,,,,,,,,,,,,,,,,,,,,,,,,,,,,,,,,,,,,,,,688491,001,2024-12-03_21h40.21.996,Test,2024.2.1,59.90700575670635,2024-12-03 21h40.31.989548 +0100,
2,150,0,53,None,42,42,0,False,right,0.7587465389951831,None,,,,,,,,0,42,42,42,,,,,,,,,322.839854328995,,,,,,,,,,,,,,,,,,,,,,,,,,,,,,,,,,,,,,322.8297971919965,322.839854328995,323.83925395298866,324.82407196199347,324.82407196199347,324.82407196199347,325.5911788789963,right,0.7587465389951831,None,,,,,,,,,,,,,,,,,,,,,,,,,,,,,,,,,,,,,,,,,,,688491,001,2024-12-03_21h40.21.996,Test,2024.2.1,59.90700575670635,2024-12-03 21h40.31.989548 +0100,
49,150,60,36,None,43,43,0,True,left,0.8412047390011139,None,,,,,,,,0,43,43,43,,,,,,,,,325.6062985789904,,,,,,,,,,,,,,,,,,,,,,,,,,,,,,,,,,,,,,325.5963318229915,325.6062985789904,326.6067940789944,327.60731564299203,327.60731564299203,327.60731564299203,328.5955212879926,left,0.8412047390011139,None,,,,,,,,,,,,,,,,,,,,,,,,,,,,,,,,,,,,,,,,,,,688491,001,2024-12-03_21h40.21.996,Test,2024.2.1,59.90700575670635,2024-12-03 21h40.31.989548 +0100,
26,150,150,31,None,44,44,0,False,right,1.3392744110024069,None,,,,,,,,0,44,44,44,,,,,,,,,328.61277235500165,,,,,,,,,,,,,,,,,,,,,,,,,,,,,,,,,,,,,,328.6026560409955,328.61277235500165,329.62351472699083,330.60661138698924,330.60661138698924,330.60661138698924,331.9578482499928,right,1.3392744110024069,None,,,,,,,,,,,,,,,,,,,,,,,,,,,,,,,,,,,,,,,,,,,688491,001,2024-12-03_21h40.21.996,Test,2024.2.1,59.90700575670635,2024-12-03 21h40.31.989548 +0100,
56,150,120,50,None,45,45,0,True,left,1.1683373069972731,None,,,,,,,,0,45,45,45,,,,,,,,,331.9732321469928,,,,,,,,,,,,,,,,,,,,,,,,,,,,,,,,,,,,,,331.96387918599066,331.9732321469928,332.97356012299133,333.956714052998,333.956714052998,333.956714052998,335.14223014099116,left,1.1683373069972731,None,,,,,,,,,,,,,,,,,,,,,,,,,,,,,,,,,,,,,,,,,,,688491,001,2024-12-03_21h40.21.996,Test,2024.2.1,59.90700575670635,2024-12-03 21h40.31.989548 +0100,
15,150,60,7,None,46,46,0,False,right,1.2498539730004268,None,,,,,,,,0,46,46,46,,,,,,,,,335.157528412994,,,,,,,,,,,,,,,,,,,,,,,,,,,,,,,,,,,,,,335.14816933398833,335.157528412994,336.1580708769907,337.15738492799574,337.15738492799574,337.15738492799574,338.41018336699926,right,1.2498539730004268,None,,,,,,,,,,,,,,,,,,,,,,,,,,,,,,,,,,,,,,,,,,,688491,001,2024-12-03_21h40.21.996,Test,2024.2.1,59.90700575670635,2024-12-03 21h40.31.989548 +0100,
67,150,180,59,None,47,47,0,True,right,0.9250641649996396,None,,,,,,,,0,47,47,47,,,,,,,,,338.42449442399084,,,,,,,,,,,,,,,,,,,,,,,,,,,,,,,,,,,,,,338.41595600999426,338.42449442399084,339.42436918299063,340.4252367759909,340.4252367759909,340.4252367759909,341.3595609609911,right,0.9250641649996396,None,,,,,,,,,,,,,,,,,,,,,,,,,,,,,,,,,,,,,,,,,,,688491,001,2024-12-03_21h40.21.996,Test,2024.2.1,59.90700575670635,2024-12-03 21h40.31.989548 +0100,
13,150,60,24,None,48,48,0,False,right,1.5408718780090567,None,,,,,,,,0,48,48,48,,,,,,,,,341.37578027899144,,,,,,,,,,,,,,,,,,,,,,,,,,,,,,,,,,,,,,341.3660905149882,341.37578027899144,342.39125260699075,343.37420076200215,343.37420076200215,343.37420076200215,344.9253322809964,right,1.5408718780090567,None,,,,,,,,,,,,,,,,,,,,,,,,,,,,,,,,,,,,,,,,,,,688491,001,2024-12-03_21h40.21.996,Test,2024.2.1,59.90700575670635,2024-12-03 21h40.31.989548 +0100,
23,150,120,12,None,49,49,0,False,left,1.741035262006335,None,,,,,,,,0,49,49,49,,,,,,,,,344.94231210899306,,,,,,,,,,,,,,,,,,,,,,,,,,,,,,,,,,,,,,344.9324218690017,344.94231210899306,345.95789410200086,346.9244109150022,346.9244109150022,346.9244109150022,348.6771014039987,left,1.741035262006335,None,,,,,,,,,,,,,,,,,,,,,,,,,,,,,,,,,,,,,,,,,,,688491,001,2024-12-03_21h40.21.996,Test,2024.2.1,59.90700575670635,2024-12-03 21h40.31.989548 +0100,
43,150,30,9,None,50,50,0,True,right,2.004422368001542,None,,,,,,,,0,50,50,50,,,,,,,,,348.6933321469987,,,,,,,,,,,,,,,,,,,,,,,,,,,,,,,,,,,,,,348.68406180199236,348.6933321469987,349.70839497999987,350.691980648,350.691980648,350.691980648,352.7101890109916,right,2.004422368001542,None,,,,,,,,,,,,,,,,,,,,,,,,,,,,,,,,,,,,,,,,,,,688491,001,2024-12-03_21h40.21.996,Test,2024.2.1,59.90700575670635,2024-12-03 21h40.31.989548 +0100,
51,150,90,15,None,51,51,0,True,left,1.9020881910109892,None,,,,,,,,0,51,51,51,,,,,,,,,352.7253157269879,,,,,,,,,,,,,,,,,,,,,,,,,,,,,,,,,,,,,,352.7162087850011,352.7253157269879,353.7249533649883,354.7251003150013,354.7251003150013,354.7251003150013,356.64475347599364,left,1.9020881910109892,None,,,,,,,,,,,,,,,,,,,,,,,,,,,,,,,,,,,,,,,,,,,688491,001,2024-12-03_21h40.21.996,Test,2024.2.1,59.90700575670635,2024-12-03 21h40.31.989548 +0100,
57,150,120,55,None,52,52,0,True,right,0.6216984310012776,None,,,,,,,,0,52,52,52,,,,,,,,,356.6599033209932,,,,,,,,,,,,,,,,,,,,,,,,,,,,,,,,,,,,,,356.65060161099245,356.6599033209932,357.6594626259903,358.65854224699433,358.65854224699433,358.65854224699433,359.29372907099605,right,0.6216984310012776,None,,,,,,,,,,,,,,,,,,,,,,,,,,,,,,,,,,,,,,,,,,,688491,001,2024-12-03_21h40.21.996,Test,2024.2.1,59.90700575670635,2024-12-03 21h40.31.989548 +0100,
24,150,120,5,None,53,53,0,False,left,1.0191850510018412,None,,,,,,,,0,53,53,53,,,,,,,,,359.30935230699833,,,,,,,,,,,,,,,,,,,,,,,,,,,,,,,,,,,,,,359.29964251999627,359.30935230699833,360.3087875259953,361.30946018599207,361.30946018599207,361.30946018599207,362.34581728299963,left,1.0191850510018412,None,,,,,,,,,,,,,,,,,,,,,,,,,,,,,,,,,,,,,,,,,,,688491,001,2024-12-03_21h40.21.996,Test,2024.2.1,59.90700575670635,2024-12-03 21h40.31.989548 +0100,
5,150,0,63,None,54,54,0,False,right,0.9426311620045453,None,,,,,,,,0,54,54,54,,,,,,,,,362.3677547589905,,,,,,,,,,,,,,,,,,,,,,,,,,,,,,,,,,,,,,362.36075289399014,362.3677547589905,363.37558950499806,364.35908536199713,364.35908536199713,364.35908536199713,365.3117325499916,right,0.9426311620045453,None,,,,,,,,,,,,,,,,,,,,,,,,,,,,,,,,,,,,,,,,,,,688491,001,2024-12-03_21h40.21.996,Test,2024.2.1,59.90700575670635,2024-12-03 21h40.31.989548 +0100,
61,150,150,10,None,55,55,0,True,left,0.8726845859928289,None,,,,,,,,0,55,55,55,,,,,,,,,365.3263680119999,,,,,,,,,,,,,,,,,,,,,,,,,,,,,,,,,,,,,,365.3176464069984,365.3263680119999,366.3262864129938,367.32568507599353,367.32568507599353,367.32568507599353,368.21142829999735,left,0.8726845859928289,None,,,,,,,,,,,,,,,,,,,,,,,,,,,,,,,,,,,,,,,,,,,688491,001,2024-12-03_21h40.21.996,Test,2024.2.1,59.90700575670635,2024-12-03 21h40.31.989548 +0100,
64,150,150,13,None,56,56,0,True,right,0.9508517190115526,None,,,,,,,,0,56,56,56,,,,,,,,,368.2261783099966,,,,,,,,,,,,,,,,,,,,,,,,,,,,,,,,,,,,,,368.21717681099835,368.2261783099966,369.2267087099899,370.22645289599313,370.22645289599313,370.22645289599313,371.19506102000014,right,0.9508517190115526,None,,,,,,,,,,,,,,,,,,,,,,,,,,,,,,,,,,,,,,,,,,,688491,001,2024-12-03_21h40.21.996,Test,2024.2.1,59.90700575670635,2024-12-03 21h40.31.989548 +0100,
44,150,30,57,None,57,57,0,True,right,1.4239392500021495,None,,,,,,,,0,57,57,57,,,,,,,,,371.2101805729908,,,,,,,,,,,,,,,,,,,,,,,,,,,,,,,,,,,,,,371.2004193419998,371.2101805729908,372.21007086099416,373.2096073540015,373.2096073540015,373.2096073540015,374.64996528498887,right,1.4239392500021495,None,,,,,,,,,,,,,,,,,,,,,,,,,,,,,,,,,,,,,,,,,,,688491,001,2024-12-03_21h40.21.996,Test,2024.2.1,59.90700575670635,2024-12-03 21h40.31.989548 +0100,
29,150,150,21,None,58,58,0,False,right,1.5137608180084499,None,,,,,,,,0,58,58,58,,,,,,,,,374.6658466929948,,,,,,,,,,,,,,,,,,,,,,,,,,,,,,,,,,,,,,374.6580785690021,374.6658466929948,375.6764181309991,376.66002531099366,376.66002531099366,376.66002531099366,378.17898509299266,right,1.5137608180084499,None,,,,,,,,,,,,,,,,,,,,,,,,,,,,,,,,,,,,,,,,,,,688491,001,2024-12-03_21h40.21.996,Test,2024.2.1,59.90700575670635,2024-12-03 21h40.31.989548 +0100,
10,150,30,47,None,59,59,0,False,left,0.8938134380005067,None,,,,,,,,0,59,59,59,,,,,,,,,378.1954705659882,,,,,,,,,,,,,,,,,,,,,,,,,,,,,,,,,,,,,,378.1864428789995,378.1954705659882,379.2104230339901,380.1935273220006,380.1935273220006,380.1935273220006,381.097111939991,left,0.8938134380005067,None,,,,,,,,,,,,,,,,,,,,,,,,,,,,,,,,,,,,,,,,,,,688491,001,2024-12-03_21h40.21.996,Test,2024.2.1,59.90700575670635,2024-12-03 21h40.31.989548 +0100,
21,150,120,69,None,60,60,0,False,right,0.88378020998789,None,,,,,,,,0,60,60,60,,,,,,,,,381.1122656069929,,,,,,,,,,,,,,,,,,,,,,,,,,,,,,,,,,,,,,381.1030364170001,381.1122656069929,382.1269559200009,383.1104963789985,383.1104963789985,383.1104963789985,383.99651806599286,right,0.88378020998789,None,,,,,,,,,,,,,,,,,,,,,,,,,,,,,,,,,,,,,,,,,,,688491,001,2024-12-03_21h40.21.996,Test,2024.2.1,59.90700575670635,2024-12-03 21h40.31.989548 +0100,
39,150,0,28,None,61,61,0,True,left,0.8578999399906024,None,,,,,,,,0,61,61,61,,,,,,,,,384.0129716849915,,,,,,,,,,,,,,,,,,,,,,,,,,,,,,,,,,,,,,384.00388966000173,384.0129716849915,385.02730168298876,386.01066297299985,386.01066297299985,386.01066297299985,386.8789613919944,left,0.8578999399906024,None,,,,,,,,,,,,,,,,,,,,,,,,,,,,,,,,,,,,,,,,,,,688491,001,2024-12-03_21h40.21.996,Test,2024.2.1,59.90700575670635,2024-12-03 21h40.31.989548 +0100,
27,150,150,3,None,62,62,0,False,right,0.7761005049978849,None,,,,,,,,0,62,62,62,,,,,,,,,386.89429080398986,,,,,,,,,,,,,,,,,,,,,,,,,,,,,,,,,,,,,,386.88501750599244,386.89429080398986,387.8943297829974,388.89441496999643,388.89441496999643,388.89441496999643,389.679082128001,right,0.7761005049978849,None,,,,,,,,,,,,,,,,,,,,,,,,,,,,,,,,,,,,,,,,,,,688491,001,2024-12-03_21h40.21.996,Test,2024.2.1,59.90700575670635,2024-12-03 21h40.31.989548 +0100,
63,150,150,44,None,63,63,0,True,right,1.0728960030101007,None,,,,,,,,0,63,63,63,,,,,,,,,389.69454621999466,,,,,,,,,,,,,,,,,,,,,,,,,,,,,,,,,,,,,,389.68433109199395,389.69454621999466,390.69421695100027,391.67760658399493,391.67760658399493,391.67760658399493,392.7628947409976,right,1.0728960030101007,None,,,,,,,,,,,,,,,,,,,,,,,,,,,,,,,,,,,,,,,,,,,688491,001,2024-12-03_21h40.21.996,Test,2024.2.1,59.90700575670635,2024-12-03 21h40.31.989548 +0100,
4,150,0,6,None,64,64,0,False,left,0.7498341749887913,None,,,,,,,,0,64,64,64,,,,,,,,,392.7776543919899,,,,,,,,,,,,,,,,,,,,,,,,,,,,,,,,,,,,,,392.7684088249953,392.7776543919899,393.77890004099754,394.7777700239967,394.7777700239967,394.7777700239967,395.5304380019952,left,0.7498341749887913,None,,,,,,,,,,,,,,,,,,,,,,,,,,,,,,,,,,,,,,,,,,,688491,001,2024-12-03_21h40.21.996,Test,2024.2.1,59.90700575670635,2024-12-03 21h40.31.989548 +0100,
35,150,180,35,None,65,65,0,False,right,1.1171689010079717,None,,,,,,,,0,65,65,65,,,,,,,,,395.5454426249926,,,,,,,,,,,,,,,,,,,,,,,,,,,,,,,,,,,,,,395.5366170579946,395.5454426249926,396.54472050399636,397.5447372139897,397.5447372139897,397.5447372139897,398.66424015999655,right,1.1171689010079717,None,,,,,,,,,,,,,,,,,,,,,,,,,,,,,,,,,,,,,,,,,,,688491,001,2024-12-03_21h40.21.996,Test,2024.2.1,59.90700575670635,2024-12-03 21h40.31.989548 +0100,
18,150,90,70,None,66,66,0,False,left,0.8475173939950764,None,,,,,,,,0,66,66,66,,,,,,,,,398.6785191499948,,,,,,,,,,,,,,,,,,,,,,,,,,,,,,,,,,,,,,398.6694338419911,398.6785191499948,399.67877901099564,400.67815931499354,400.67815931499354,400.67815931499354,401.5305684969935,left,0.8475173939950764,None,,,,,,,,,,,,,,,,,,,,,,,,,,,,,,,,,,,,,,,,,,,688491,001,2024-12-03_21h40.21.996,Test,2024.2.1,59.90700575670635,2024-12-03 21h40.31.989548 +0100,
11,150,60,4,None,67,67,0,False,right,1.0938590550067602,None,,,,,,,,0,67,67,67,,,,,,,,,401.54478431299503,,,,,,,,,,,,,,,,,,,,,,,,,,,,,,,,,,,,,,401.5355528749933,401.54478431299503,402.5451888499956,403.545171396996,403.545171396996,403.545171396996,404.64681775799545,right,1.0938590550067602,None,,,,,,,,,,,,,,,,,,,,,,,,,,,,,,,,,,,,,,,,,,,688491,001,2024-12-03_21h40.21.996,Test,2024.2.1,59.90700575670635,2024-12-03 21h40.31.989548 +0100,
46,150,60,48,None,68,68,0,True,left,1.1029111489915522,None,,,,,,,,0,68,68,68,,,,,,,,,404.66174531399156,,,,,,,,,,,,,,,,,,,,,,,,,,,,,,,,,,,,,,404.65210487900185,404.66174531399156,405.6622721829917,406.64617406499747,406.64617406499747,406.64617406499747,407.76352669499465,left,1.1029111489915522,None,,,,,,,,,,,,,,,,,,,,,,,,,,,,,,,,,,,,,,,,,,,688491,001,2024-12-03_21h40.21.996,Test,2024.2.1,59.90700575670635,2024-12-03 21h40.31.989548 +0100,
6,150,30,38,None,69,69,0,False,right,1.0076295450126054,None,,,,,,,,0,69,69,69,,,,,,,,,407.77864327999123,,,,,,,,,,,,,,,,,,,,,,,,,,,,,,,,,,,,,,407.7695265729999,407.77864327999123,408.7791970010003,409.7788756779919,409.7788756779919,409.7788756779919,410.7972056849976,right,1.0076295450126054,None,,,,,,,,,,,,,,,,,,,,,,,,,,,,,,,,,,,,,,,,,,,688491,001,2024-12-03_21h40.21.996,Test,2024.2.1,59.90700575670635,2024-12-03 21h40.31.989548 +0100,
,,,,,,,,,,,,,,,,,,,,,,,,,,,,,,,,,,,,,,,,,,,,,,,,,,,,,,,,,,,,,,,,,,,,,,,,,,,,,,,,,,410.7973785929935,410.8121723259974,410.8121723259974,417.86491225200007,space,7.037063117997604,None,,,,,,,,,,,,,,,,,,,,,,,,,,,,,,,,,688491,001,2024-12-03_21h40.21.996,Test,2024.2.1,59.90700575670635,2024-12-03 21h40.31.989548 +0100,
21,150,120,69,None,0,0,0,,,,,,,,,,,,,,,,0,0,0,20,,,,,417.8884599449957,,,,,,,,,,,,,,,,,,,,,,,,,,,,,,,,,,,,,,,,,,,,,,,,,,,,,,,,,,417.8796805019956,417.8884599449957,418.079962304997,418.079962304997,418.0960594719945,419.77951191499596,419.77951191499596,419.7641771679919,,,,,,,,,,,,,,,,,,,,,,,,,688491,001,2024-12-03_21h40.21.996,Test,2024.2.1,59.90700575670635,2024-12-03 21h40.31.989548 +0100,
29,150,150,21,None,1,1,0,,,,,,,,,,,,,,,,0,1,1,28,,,,,419.77951191499596,,,,,,,,,,,,,,,,,,,,,,,,,,,,,,,,,,,,,,,,,,,,,,,,,,,,,,,,,,419.77029108699935,419.77951191499596,419.97950553499686,419.97950553499686,419.97950553499686,421.6792257509951,421.6792257509951,421.66396376199555,,,,,,,,,,,,,,,,,,,,,,,,,688491,001,2024-12-03_21h40.21.996,Test,2024.2.1,59.90700575670635,2024-12-03 21h40.31.989548 +0100,
18,150,90,70,None,2,2,0,,,,,,,,,,,,,,,,0,2,2,17,,,,,421.6792257509951,,,,,,,,,,,,,,,,,,,,,,,,,,,,,,,,,,,,,,,,,,,,,,,,,,,,,,,,,,421.66976256699127,421.6792257509951,421.8796309850004,421.8796309850004,421.8796309850004,423.57928381599777,423.57928381599777,423.56401861998893,,,,,,,,,,,,,,,,,,,,,,,,,688491,001,2024-12-03_21h40.21.996,Test,2024.2.1,59.90700575670635,2024-12-03 21h40.31.989548 +0100,
12,150,60,22,None,3,3,0,,,,,,,,,,,,,,,,0,3,3,11,,,,,423.57928381599777,,,,,,,,,,,,,,,,,,,,,,,,,,,,,,,,,,,,,,,,,,,,,,,,,,,,,,,,,,423.57064629299566,423.57928381599777,423.7798375449929,423.7798375449929,423.7798375449929,425.484416487001,425.484416487001,425.46579251599906,,,,,,,,,,,,,,,,,,,,,,,,,688491,001,2024-12-03_21h40.21.996,Test,2024.2.1,59.90700575670635,2024-12-03 21h40.31.989548 +0100,
1,150,0,39,None,4,4,0,,,,,,,,,,,,,,,,0,4,4,0,,,,,425.484416487001,,,,,,,,,,,,,,,,,,,,,,,,,,,,,,,,,,,,,,,,,,,,,,,,,,,,,,,,,,425.4757585789921,425.484416487001,425.6801304999972,425.6801304999972,425.6970732949994,427.3797613009956,427.3797613009956,427.36447142799443,,,,,,,,,,,,,,,,,,,,,,,,,688491,001,2024-12-03_21h40.21.996,Test,2024.2.1,59.90700575670635,2024-12-03 21h40.31.989548 +0100,
24,150,120,5,None,5,5,0,,,,,,,,,,,,,,,,0,5,5,23,,,,,427.3797613009956,,,,,,,,,,,,,,,,,,,,,,,,,,,,,,,,,,,,,,,,,,,,,,,,,,,,,,,,,,427.3702745769988,427.3797613009956,427.5800332660001,427.5800332660001,427.5800332660001,429.28008145900094,429.28008145900094,429.2642317790014,,,,,,,,,,,,,,,,,,,,,,,,,688491,001,2024-12-03_21h40.21.996,Test,2024.2.1,59.90700575670635,2024-12-03 21h40.31.989548 +0100,
34,150,180,40,None,6,6,0,,,,,,,,,,,,,,,,0,6,6,33,,,,,429.28008145900094,,,,,,,,,,,,,,,,,,,,,,,,,,,,,,,,,,,,,,,,,,,,,,,,,,,,,,,,,,429.27193814599013,429.28008145900094,429.46350403199904,429.46350403199904,429.4807843009912,431.16365446599957,431.16365446599957,431.1481357099983,,,,,,,,,,,,,,,,,,,,,,,,,688491,001,2024-12-03_21h40.21.996,Test,2024.2.1,59.90700575670635,2024-12-03 21h40.31.989548 +0100,
26,150,150,31,None,7,7,0,,,,,,,,,,,,,,,,0,7,7,25,,,,,431.16365446599957,,,,,,,,,,,,,,,,,,,,,,,,,,,,,,,,,,,,,,,,,,,,,,,,,,,,,,,,,,431.15342058399983,431.18068069899164,431.3808882059966,431.3808882059966,431.3808882059966,433.08048712699383,433.08048712699383,433.0650911039993,,,,,,,,,,,,,,,,,,,,,,,,,688491,001,2024-12-03_21h40.21.996,Test,2024.2.1,59.90700575670635,2024-12-03 21h40.31.989548 +0100,
35,150,180,35,None,8,8,0,,,,,,,,,,,,,,,,0,8,8,34,,,,,433.08048712699383,,,,,,,,,,,,,,,,,,,,,,,,,,,,,,,,,,,,,,,,,,,,,,,,,,,,,,,,,,433.0710574669938,433.08048712699383,433.2645630170009,433.2645630170009,433.28124138400017,434.9673965349939,434.9673965349939,434.9491790989996,,,,,,,,,,,,,,,,,,,,,,,,,688491,001,2024-12-03_21h40.21.996,Test,2024.2.1,59.90700575670635,2024-12-03 21h40.31.989548 +0100,
23,150,120,12,None,9,9,0,,,,,,,,,,,,,,,,0,9,9,22,,,,,434.9673965349939,,,,,,,,,,,,,,,,,,,,,,,,,,,,,,,,,,,,,,,,,,,,,,,,,,,,,,,,,,434.9589182839991,434.9673965349939,435.16482098499546,435.16482098499546,435.18190529500134,436.8652537739981,436.8652537739981,436.8488165369927,,,,,,,,,,,,,,,,,,,,,,,,,688491,001,2024-12-03_21h40.21.996,Test,2024.2.1,59.90700575670635,2024-12-03 21h40.31.989548 +0100,
10,150,30,47,None,10,10,0,,,,,,,,,,,,,,,,0,10,10,9,,,,,436.8652537739981,,,,,,,,,,,,,,,,,,,,,,,,,,,,,,,,,,,,,,,,,,,,,,,,,,,,,,,,,,436.8566786349984,436.8652537739981,437.0640185599914,437.0640185599914,437.0640185599914,438.7674733969907,438.7674733969907,438.7494272319891,,,,,,,,,,,,,,,,,,,,,,,,,688491,001,2024-12-03_21h40.21.996,Test,2024.2.1,59.90700575670635,2024-12-03 21h40.31.989548 +0100,
6,150,30,38,None,11,11,0,,,,,,,,,,,,,,,,0,11,11,5,,,,,438.7674733969907,,,,,,,,,,,,,,,,,,,,,,,,,,,,,,,,,,,,,,,,,,,,,,,,,,,,,,,,,,438.75898877299915,438.7674733969907,438.9655806189985,438.9655806189985,438.98210836198996,440.68095354299294,440.68095354299294,440.6650716199947,,,,,,,,,,,,,,,,,,,,,,,,,688491,001,2024-12-03_21h40.21.996,Test,2024.2.1,59.90700575670635,2024-12-03 21h40.31.989548 +0100,
8,150,30,54,None,12,12,0,,,,,,,,,,,,,,,,0,12,12,7,,,,,440.68095354299294,,,,,,,,,,,,,,,,,,,,,,,,,,,,,,,,,,,,,,,,,,,,,,,,,,,,,,,,,,440.67076561698923,440.68095354299294,440.8644573049969,440.8644573049969,440.88144902799104,442.5648519649985,442.5648519649985,442.5489380299987,,,,,,,,,,,,,,,,,,,,,,,,,688491,001,2024-12-03_21h40.21.996,Test,2024.2.1,59.90700575670635,2024-12-03 21h40.31.989548 +0100,
33,150,180,34,None,13,13,0,,,,,,,,,,,,,,,,0,13,13,32,,,,,442.5648519649985,,,,,,,,,,,,,,,,,,,,,,,,,,,,,,,,,,,,,,,,,,,,,,,,,,,,,,,,,,442.5547151419887,442.5648519649985,442.7643009759922,442.7643009759922,442.7643009759922,444.4864221559983,444.4864221559983,444.4485500629962,,,,,,,,,,,,,,,,,,,,,,,,,688491,001,2024-12-03_21h40.21.996,Test,2024.2.1,59.90700575670635,2024-12-03 21h40.31.989548 +0100,
3,150,0,62,None,14,14,0,,,,,,,,,,,,,,,,0,14,14,2,,,,,444.4864221559983,,,,,,,,,,,,,,,,,,,,,,,,,,,,,,,,,,,,,,,,,,,,,,,,,,,,,,,,,,444.4778244929912,444.4864221559983,444.6644575329992,444.6644575329992,444.6984191329975,446.3665539939975,446.3665539939975,446.34933179299696,,,,,,,,,,,,,,,,,,,,,,,,,688491,001,2024-12-03_21h40.21.996,Test,2024.2.1,59.90700575670635,2024-12-03 21h40.31.989548 +0100,
13,150,60,24,None,15,15,0,,,,,,,,,,,,,,,,0,15,15,12,,,,,446.3665539939975,,,,,,,,,,,,,,,,,,,,,,,,,,,,,,,,,,,,,,,,,,,,,,,,,,,,,,,,,,446.3576777679991,446.3665539939975,446.5652651339915,446.5652651339915,446.58130891399924,448.26441552898905,448.26441552898905,448.2493465689913,,,,,,,,,,,,,,,,,,,,,,,,,688491,001,2024-12-03_21h40.21.996,Test,2024.2.1,59.90700575670635,2024-12-03 21h40.31.989548 +0100,
5,150,0,63,None,16,16,0,,,,,,,,,,,,,,,,0,16,16,4,,,,,448.26441552898905,,,,,,,,,,,,,,,,,,,,,,,,,,,,,,,,,,,,,,,,,,,,,,,,,,,,,,,,,,448.25508305898984,448.26441552898905,448.4904559879942,448.4904559879942,448.4904559879942,,,450.181896982991,,,,,,,,,,,,,,,,,,,,,,,,,688491,001,2024-12-03_21h40.21.996,Test,2024.2.1,59.90700575670635,2024-12-03 21h40.31.989548 +0100,
22,150,120,60,None,17,17,0,,,,,,,,,,,,,,,,0,17,17,21,,,,,450.19811772699177,,,,,,,,,,,,,,,,,,,,,,,,,,,,,,,,,,,,,,,,,,,,,,,,,,,,,,,,,,450.1889375460014,450.19811772699177,450.3654631469981,450.3654631469981,450.398114798998,452.06505632499466,452.06505632499466,452.0491083169909,,,,,,,,,,,,,,,,,,,,,,,,,688491,001,2024-12-03_21h40.21.996,Test,2024.2.1,59.90700575670635,2024-12-03 21h40.31.989548 +0100,
7,150,30,51,None,18,18,0,,,,,,,,,,,,,,,,0,18,18,6,,,,,452.06505632499466,,,,,,,,,,,,,,,,,,,,,,,,,,,,,,,,,,,,,,,,,,,,,,,,,,,,,,,,,,452.0550707499933,452.06505632499466,452.2649350819993,452.2649350819993,452.2649350819993,453.96624716199585,453.96624716199585,453.94960478998837,,,,,,,,,,,,,,,,,,,,,,,,,688491,001,2024-12-03_21h40.21.996,Test,2024.2.1,59.90700575670635,2024-12-03 21h40.31.989548 +0100,
9,150,30,67,None,19,19,0,,,,,,,,,,,,,,,,0,19,19,8,,,,,453.96624716199585,,,,,,,,,,,,,,,,,,,,,,,,,,,,,,,,,,,,,,,,,,,,,,,,,,,,,,,,,,453.9572770889936,453.96624716199585,454.1651498019928,454.1651498019928,454.1819212720002,455.8652658869978,455.8652658869978,455.8496795169922,,,,,,,,,,,,,,,,,,,,,,,,,688491,001,2024-12-03_21h40.21.996,Test,2024.2.1,59.90700575670635,2024-12-03 21h40.31.989548 +0100,
31,150,180,30,None,20,20,0,,,,,,,,,,,,,,,,0,20,20,30,,,,,455.8652658869978,,,,,,,,,,,,,,,,,,,,,,,,,,,,,,,,,,,,,,,,,,,,,,,,,,,,,,,,,,455.8555993219925,455.8652658869978,456.06468839199806,456.06468839199806,456.06468839199806,457.7660413029953,457.7660413029953,457.75035193399526,,,,,,,,,,,,,,,,,,,,,,,,,688491,001,2024-12-03_21h40.21.996,Test,2024.2.1,59.90700575670635,2024-12-03 21h40.31.989548 +0100,
4,150,0,6,None,21,21,0,,,,,,,,,,,,,,,,0,21,21,3,,,,,457.7660413029953,,,,,,,,,,,,,,,,,,,,,,,,,,,,,,,,,,,,,,,,,,,,,,,,,,,,,,,,,,457.75812247498834,457.7660413029953,457.96554143200046,457.96554143200046,457.96554143200046,459.6651352959889,459.6651352959889,459.64982231799513,,,,,,,,,,,,,,,,,,,,,,,,,688491,001,2024-12-03_21h40.21.996,Test,2024.2.1,59.90700575670635,2024-12-03 21h40.31.989548 +0100,
20,150,90,33,None,22,22,0,,,,,,,,,,,,,,,,0,22,22,19,,,,,459.6651352959889,,,,,,,,,,,,,,,,,,,,,,,,,,,,,,,,,,,,,,,,,,,,,,,,,,,,,,,,,,459.655505207993,459.6651352959889,459.86590172299475,459.86590172299475,459.86590172299475,461.56533155099896,461.56533155099896,461.55026958099916,,,,,,,,,,,,,,,,,,,,,,,,,688491,001,2024-12-03_21h40.21.996,Test,2024.2.1,59.90700575670635,2024-12-03 21h40.31.989548 +0100,
28,150,150,41,None,23,23,0,,,,,,,,,,,,,,,,0,23,23,27,,,,,461.56533155099896,,,,,,,,,,,,,,,,,,,,,,,,,,,,,,,,,,,,,,,,,,,,,,,,,,,,,,,,,,461.55612382199615,461.56533155099896,461.76672937998956,461.76672937998956,461.76672937998956,463.4657096430019,463.4657096430019,463.44997234799666,,,,,,,,,,,,,,,,,,,,,,,,,688491,001,2024-12-03_21h40.21.996,Test,2024.2.1,59.90700575670635,2024-12-03 21h40.31.989548 +0100,
15,150,60,7,None,24,24,0,,,,,,,,,,,,,,,,0,24,24,14,,,,,463.4657096430019,,,,,,,,,,,,,,,,,,,,,,,,,,,,,,,,,,,,,,,,,,,,,,,,,,,,,,,,,,463.45531859999755,463.4657096430019,463.6652835529967,463.6652835529967,463.6652835529967,465.36568252398865,465.36568252398865,465.3499709320022,,,,,,,,,,,,,,,,,,,,,,,,,688491,001,2024-12-03_21h40.21.996,Test,2024.2.1,59.90700575670635,2024-12-03 21h40.31.989548 +0100,
16,150,90,37,None,25,25,0,,,,,,,,,,,,,,,,0,25,25,15,,,,,465.36568252398865,,,,,,,,,,,,,,,,,,,,,,,,,,,,,,,,,,,,,,,,,,,,,,,,,,,,,,,,,,465.3559701329941,465.36568252398865,465.5659667729924,465.5659667729924,465.5659667729924,467.2696909829974,467.2696909829974,467.2514902679977,,,,,,,,,,,,,,,,,,,,,,,,,688491,001,2024-12-03_21h40.21.996,Test,2024.2.1,59.90700575670635,2024-12-03 21h40.31.989548 +0100,
19,150,90,16,None,26,26,0,,,,,,,,,,,,,,,,0,26,26,18,,,,,467.2696909829974,,,,,,,,,,,,,,,,,,,,,,,,,,,,,,,,,,,,,,,,,,,,,,,,,,,,,,,,,,467.26144110299356,467.2696909829974,467.46601190300134,467.46601190300134,467.4827971049963,469.1665056619968,469.1665056619968,469.15073521700106,,,,,,,,,,,,,,,,,,,,,,,,,688491,001,2024-12-03_21h40.21.996,Test,2024.2.1,59.90700575670635,2024-12-03 21h40.31.989548 +0100,
11,150,60,4,None,27,27,0,,,,,,,,,,,,,,,,0,27,27,10,,,,,469.1665056619968,,,,,,,,,,,,,,,,,,,,,,,,,,,,,,,,,,,,,,,,,,,,,,,,,,,,,,,,,,469.1577581070014,469.1665056619968,469.36680688099295,469.36680688099295,469.36680688099295,471.06603362900205,471.06603362900205,471.050984704998,,,,,,,,,,,,,,,,,,,,,,,,,688491,001,2024-12-03_21h40.21.996,Test,2024.2.1,59.90700575670635,2024-12-03 21h40.31.989548 +0100,
17,150,90,45,None,28,28,0,,,,,,,,,,,,,,,,0,28,28,16,,,,,471.06603362900205,,,,,,,,,,,,,,,,,,,,,,,,,,,,,,,,,,,,,,,,,,,,,,,,,,,,,,,,,,471.05637354799546,471.06603362900205,471.2670289939997,471.2670289939997,471.2670289939997,472.96655683399877,472.96655683399877,472.9510105619993,,,,,,,,,,,,,,,,,,,,,,,,,688491,001,2024-12-03_21h40.21.996,Test,2024.2.1,59.90700575670635,2024-12-03 21h40.31.989548 +0100,
32,150,180,8,None,29,29,0,,,,,,,,,,,,,,,,0,29,29,31,,,,,472.96655683399877,,,,,,,,,,,,,,,,,,,,,,,,,,,,,,,,,,,,,,,,,,,,,,,,,,,,,,,,,,472.9566289239883,472.96655683399877,473.16651078998984,473.16651078998984,473.16651078998984,474.8695903899934,474.8695903899934,474.8519497800007,,,,,,,,,,,,,,,,,,,,,,,,,688491,001,2024-12-03_21h40.21.996,Test,2024.2.1,59.90700575670635,2024-12-03 21h40.31.989548 +0100,
25,150,120,18,None,30,30,0,,,,,,,,,,,,,,,,0,30,30,24,,,,,474.8695903899934,,,,,,,,,,,,,,,,,,,,,,,,,,,,,,,,,,,,,,,,,,,,,,,,,,,,,,,,,,474.861575611998,474.8695903899934,475.06731958698947,475.06731958698947,475.0834451330011,476.7666691810009,476.7666691810009,476.7514528539905,,,,,,,,,,,,,,,,,,,,,,,,,688491,001,2024-12-03_21h40.21.996,Test,2024.2.1,59.90700575670635,2024-12-03 21h40.31.989548 +0100,
27,150,150,3,None,31,31,0,,,,,,,,,,,,,,,,0,31,31,26,,,,,476.7666691810009,,,,,,,,,,,,,,,,,,,,,,,,,,,,,,,,,,,,,,,,,,,,,,,,,,,,,,,,,,476.75767231600184,476.7666691810009,476.9673279150011,476.9673279150011,476.9673279150011,478.66649666598823,478.66649666598823,478.6515400779899,,,,,,,,,,,,,,,,,,,,,,,,,688491,001,2024-12-03_21h40.21.996,Test,2024.2.1,59.90700575670635,2024-12-03 21h40.31.989548 +0100,
14,150,60,42,None,32,32,0,,,,,,,,,,,,,,,,0,32,32,13,,,,,478.66649666598823,,,,,,,,,,,,,,,,,,,,,,,,,,,,,,,,,,,,,,,,,,,,,,,,,,,,,,,,,,478.6569167129928,478.66649666598823,478.8681192660006,478.8681192660006,478.8681192660006,,,480.56740072299726,,,,,,,,,,,,,,,,,,,,,,,,,688491,001,2024-12-03_21h40.21.996,Test,2024.2.1,59.90700575670635,2024-12-03 21h40.31.989548 +0100,
30,150,150,56,None,33,33,0,,,,,,,,,,,,,,,,0,33,33,29,,,,,480.5834609589947,,,,,,,,,,,,,,,,,,,,,,,,,,,,,,,,,,,,,,,,,,,,,,,,,,,,,,,,,,480.5730972659949,480.5834609589947,480.7676710139931,480.7676710139931,480.78367799599073,482.48497512399626,482.48497512399626,482.4526542550011,,,,,,,,,,,,,,,,,,,,,,,,,688491,001,2024-12-03_21h40.21.996,Test,2024.2.1,59.90700575670635,2024-12-03 21h40.31.989548 +0100,
2,150,0,53,None,34,34,0,,,,,,,,,,,,,,,,0,34,34,1,,,,,482.48497512399626,,,,,,,,,,,,,,,,,,,,,,,,,,,,,,,,,,,,,,,,,,,,,,,,,,,,,,,,,,482.4611660800001,482.48497512399626,482.6671742579929,482.6671742579929,482.70065653399797,484.36728885599587,484.36728885599587,484.35182476599584,,,,,,,,,,,,,,,,,,,,,,,,,688491,001,2024-12-03_21h40.21.996,Test,2024.2.1,59.90700575670635,2024-12-03 21h40.31.989548 +0100,
,,,,,,,,,,,,,,,,,,,,,,,,,,,,,,,,,,,,,,,,,,,,,,,,,,,,,,,,,,,,,,,,,,,,,,,,,,,,,,,,,,,,,,,,,,,,,,,,,484.35197698099364,484.36728885599587,484.36728885599587,497.8240333399881,space,13.453093231000821,None,,,,,,,,,,,,,,,,,,688491,001,2024-12-03_21h40.21.996,Test,2024.2.1,59.90700575670635,2024-12-03 21h40.31.989548 +0100,
22,150,120,60,None,0,0,0,False,,,,left,1.709414309996646,None,,,,,,,,,,,,,0,0,0,0,497.85014651800157,,,,,,,,,,,,,,,,,,,,,,,,,,,,,,,,,,,,,,,,,,,,,,,,,,,,,,,,,,,,,,,,,,,,,,,,,497.84071976999985,497.85014651800157,498.8530504759983,499.83633658300096,499.83633658300096,499.83633658300096,501.5537461240019,left,1.709414309996646,None,,,,,,,,688491,001,2024-12-03_21h40.21.996,Test,2024.2.1,59.90700575670635,2024-12-03 21h40.31.989548 +0100,
34,150,180,40,None,1,1,0,False,,,,right,0.892256905004615,None,,,,,,,,,,,,,0,1,1,1,501.569010842999,,,,,,,,,,,,,,,,,,,,,,,,,,,,,,,,,,,,,,,,,,,,,,,,,,,,,,,,,,,,,,,,,,,,,,,,,501.5595415329881,501.569010842999,502.5697102089907,503.5692620139889,503.5692620139889,503.5692620139889,504.4770493059914,right,0.892256905004615,None,,,,,,,,688491,001,2024-12-03_21h40.21.996,Test,2024.2.1,59.90700575670635,2024-12-03 21h40.31.989548 +0100,
9,150,30,67,None,2,2,0,False,,,,left,0.9496131030027755,None,,,,,,,,,,,,,0,2,2,2,504.4918342070014,,,,,,,,,,,,,,,,,,,,,,,,,,,,,,,,,,,,,,,,,,,,,,,,,,,,,,,,,,,,,,,,,,,,,,,,,504.48391312699823,504.4918342070014,505.50210656599666,506.48601896999753,506.48601896999753,506.48601896999753,507.4384669049905,left,0.9496131030027755,None,,,,,,,,688491,001,2024-12-03_21h40.21.996,Test,2024.2.1,59.90700575670635,2024-12-03 21h40.31.989548 +0100,
20,150,90,33,None,3,3,0,False,,,,right,0.7672030649991939,None,,,,,,,,,,,,,0,3,3,3,507.45324491699284,,,,,,,,,,,,,,,,,,,,,,,,,,,,,,,,,,,,,,,,,,,,,,,,,,,,,,,,,,,,,,,,,,,,,,,,,507.4444779589976,507.45324491699284,508.45274745699135,509.4527243929915,509.4527243929915,509.4527243929915,510.2227074659895,right,0.7672030649991939,None,,,,,,,,688491,001,2024-12-03_21h40.21.996,Test,2024.2.1,59.90700575670635,2024-12-03 21h40.31.989548 +0100,
16,150,90,37,None,4,4,0,False,,,,left,0.8370159740006784,None,,,,,,,,,,,,,0,4,4,4,510.23777350199816,,,,,,,,,,,,,,,,,,,,,,,,,,,,,,,,,,,,,,,,,,,,,,,,,,,,,,,,,,,,,,,,,,,,,,,,,510.22877362299187,510.23777350199816,511.25243126798887,512.2366763530008,512.2366763530008,512.2366763530008,513.0877115299954,left,0.8370159740006784,None,,,,,,,,688491,001,2024-12-03_21h40.21.996,Test,2024.2.1,59.90700575670635,2024-12-03 21h40.31.989548 +0100,
69,150,180,14,None,5,5,0,True,,,,right,0.6361707530013518,None,,,,,,,,,,,,,0,5,5,5,513.1040531179897,,,,,,,,,,,,,,,,,,,,,,,,,,,,,,,,,,,,,,,,,,,,,,,,,,,,,,,,,,,,,,,,,,,,,,,,,513.0940383429988,513.1040531179897,514.1196958159999,515.1026501329907,515.1026501329907,515.1026501329907,515.755036757997,right,0.6361707530013518,None,,,,,,,,688491,001,2024-12-03_21h40.21.996,Test,2024.2.1,59.90700575670635,2024-12-03 21h40.31.989548 +0100,
47,150,60,32,None,6,6,0,True,,,,left,1.7193491110083414,None,,,,,,,,,,,,,0,6,6,6,515.7702640380012,,,,,,,,,,,,,,,,,,,,,,,,,,,,,,,,,,,,,,,,,,,,,,,,,,,,,,,,,,,,,,,,,,,,,,,,,515.7607614640001,515.7702640380012,516.7708170609985,517.7690362639987,517.7690362639987,517.7690362639987,519.5047044179955,left,1.7193491110083414,None,,,,,,,,688491,001,2024-12-03_21h40.21.996,Test,2024.2.1,59.90700575670635,2024-12-03 21h40.31.989548 +0100,
60,150,120,29,None,7,7,0,True,,,,left,1.7494250210002065,None,,,,,,,,,,,,,0,7,7,7,519.5195763259981,,,,,,,,,,,,,,,,,,,,,,,,,,,,,,,,,,,,,,,,,,,,,,,,,,,,,,,,,,,,,,,,,,,,,,,,,519.5103908649908,519.5195763259981,520.5211379539978,521.5228605059965,521.5228605059965,521.5228605059965,523.2881153439957,left,1.7494250210002065,None,,,,,,,,688491,001,2024-12-03_21h40.21.996,Test,2024.2.1,59.90700575670635,2024-12-03 21h40.31.989548 +0100,
30,150,150,56,None,8,8,0,False,,,,right,1.0183129499928327,None,,,,,,,,,,,,,0,8,8,8,523.3030055150011,,,,,,,,,,,,,,,,,,,,,,,,,,,,,,,,,,,,,,,,,,,,,,,,,,,,,,,,,,,,,,,,,,,,,,,,,523.2933903550002,523.3030055150011,524.3033002909942,525.3035374379979,525.3035374379979,525.3035374379979,526.3393979249959,right,1.0183129499928327,None,,,,,,,,688491,001,2024-12-03_21h40.21.996,Test,2024.2.1,59.90700575670635,2024-12-03 21h40.31.989548 +0100,
7,150,30,51,None,9,9,0,False,,,,left,0.9896080680045998,None,,,,,,,,,,,,,0,9,9,9,526.3536529559933,,,,,,,,,,,,,,,,,,,,,,,,,,,,,,,,,,,,,,,,,,,,,,,,,,,,,,,,,,,,,,,,,,,,,,,,,526.3443112419918,526.3536529559933,527.3533823579928,528.353749034999,528.353749034999,528.353749034999,529.356011521988,left,0.9896080680045998,None,,,,,,,,688491,001,2024-12-03_21h40.21.996,Test,2024.2.1,59.90700575670635,2024-12-03 21h40.31.989548 +0100,
66,150,180,27,None,10,10,0,True,,,,right,1.5519558700034395,None,,,,,,,,,,,,,0,10,10,10,529.3714328149945,,,,,,,,,,,,,,,,,,,,,,,,,,,,,,,,,,,,,,,,,,,,,,,,,,,,,,,,,,,,,,,,,,,,,,,,,529.3621156689915,529.3714328149945,530.3707041449961,531.3708831809927,531.3708831809927,531.3708831809927,532.9392765579978,right,1.5519558700034395,None,,,,,,,,688491,001,2024-12-03_21h40.21.996,Test,2024.2.1,59.90700575670635,2024-12-03 21h40.31.989548 +0100,
65,150,150,65,None,11,11,0,True,,,,left,1.000864369008923,None,,,,,,,,,,,,,0,11,11,11,532.9617564509972,,,,,,,,,,,,,,,,,,,,,,,,,,,,,,,,,,,,,,,,,,,,,,,,,,,,,,,,,,,,,,,,,,,,,,,,,532.953591019992,532.9617564509972,533.9712857169943,534.9541342390003,534.9541342390003,534.9541342390003,535.971537364996,left,1.000864369008923,None,,,,,,,,688491,001,2024-12-03_21h40.21.996,Test,2024.2.1,59.90700575670635,2024-12-03 21h40.31.989548 +0100,
31,150,180,30,None,12,12,0,False,,,,right,1.3350975659996038,None,,,,,,,,,,,,,0,12,12,12,535.9872354099934,,,,,,,,,,,,,,,,,,,,,,,,,,,,,,,,,,,,,,,,,,,,,,,,,,,,,,,,,,,,,,,,,,,,,,,,,535.9771244579897,535.9872354099934,536.9878194889898,537.9705900869885,537.9705900869885,537.9705900869885,539.3223340569966,right,1.3350975659996038,None,,,,,,,,688491,001,2024-12-03_21h40.21.996,Test,2024.2.1,59.90700575670635,2024-12-03 21h40.31.989548 +0100,
19,150,90,16,None,13,13,0,False,,,,right,1.1407953189918771,None,,,,,,,,,,,,,0,13,13,13,539.3372579689894,,,,,,,,,,,,,,,,,,,,,,,,,,,,,,,,,,,,,,,,,,,,,,,,,,,,,,,,,,,,,,,,,,,,,,,,,539.3277100010018,539.3372579689894,540.3378146609903,541.3379396899982,541.3379396899982,541.3379396899982,542.4884017599979,right,1.1407953189918771,None,,,,,,,,688491,001,2024-12-03_21h40.21.996,Test,2024.2.1,59.90700575670635,2024-12-03 21h40.31.989548 +0100,
1,150,0,39,None,14,14,0,False,,,,left,0.9251442550012143,None,,,,,,,,,,,,,0,14,14,14,542.5022314879898,,,,,,,,,,,,,,,,,,,,,,,,,,,,,,,,,,,,,,,,,,,,,,,,,,,,,,,,,,,,,,,,,,,,,,,,,542.4943386269879,542.5022314879898,543.5048719039914,544.4877473219967,544.4877473219967,544.4877473219967,545.4234677669883,left,0.9251442550012143,None,,,,,,,,688491,001,2024-12-03_21h40.21.996,Test,2024.2.1,59.90700575670635,2024-12-03 21h40.31.989548 +0100,
38,150,0,25,None,15,15,0,True,,,,left,0.9078669309965335,None,,,,,,,,,,,,,0,15,15,15,545.4390273669997,,,,,,,,,,,,,,,,,,,,,,,,,,,,,,,,,,,,,,,,,,,,,,,,,,,,,,,,,,,,,,,,,,,,,,,,,545.4297779699991,545.4390273669997,546.454576277989,547.4378056229907,547.4378056229907,547.4378056229907,548.356490471997,left,0.9078669309965335,None,,,,,,,,688491,001,2024-12-03_21h40.21.996,Test,2024.2.1,59.90700575670635,2024-12-03 21h40.31.989548 +0100,
68,150,180,11,None,16,16,0,True,,,,left,1.2885907120071352,None,,,,,,,,,,,,,0,16,16,16,548.3740242349886,,,,,,,,,,,,,,,,,,,,,,,,,,,,,,,,,,,,,,,,,,,,,,,,,,,,,,,,,,,,,,,,,,,,,,,,,548.3636355909985,548.3740242349886,549.3884954459936,550.3718191349908,550.3718191349908,550.3718191349908,551.6731990909902,left,1.2885907120071352,None,,,,,,,,688491,001,2024-12-03_21h40.21.996,Test,2024.2.1,59.90700575670635,2024-12-03 21h40.31.989548 +0100,
70,150,180,64,None,17,17,0,True,,,,right,1.156294551998144,None,,,,,,,,,,,,,0,17,17,17,551.6973284029955,,,,,,,,,,,,,,,,,,,,,,,,,,,,,,,,,,,,,,,,,,,,,,,,,,,,,,,,,,,,,,,,,,,,,,,,,551.6893750960007,551.6973284029955,552.7050567139959,553.6883735849988,553.6883735849988,553.6883735849988,554.8575363409909,right,1.156294551998144,None,,,,,,,,688491,001,2024-12-03_21h40.21.996,Test,2024.2.1,59.90700575670635,2024-12-03 21h40.31.989548 +0100,
37,150,0,46,None,18,18,0,True,,,,left,0.7938576430024114,None,,,,,,,,,,,,,0,18,18,18,554.8753442839952,,,,,,,,,,,,,,,,,,,,,,,,,,,,,,,,,,,,,,,,,,,,,,,,,,,,,,,,,,,,,,,,,,,,,,,,,554.865147627992,554.8753442839952,555.8889872509899,556.8720535710017,556.8720535710017,556.8720535710017,557.6742697799928,left,0.7938576430024114,None,,,,,,,,688491,001,2024-12-03_21h40.21.996,Test,2024.2.1,59.90700575670635,2024-12-03 21h40.31.989548 +0100,
3,150,0,62,None,19,19,0,False,,,,right,1.6674732789979316,None,,,,,,,,,,,,,0,19,19,19,557.6909377659904,,,,,,,,,,,,,,,,,,,,,,,,,,,,,,,,,,,,,,,,,,,,,,,,,,,,,,,,,,,,,,,,,,,,,,,,,557.6809090819879,557.6909377659904,558.7066824270005,559.6885491519934,559.6885491519934,559.6885491519934,561.3585967319959,right,1.6674732789979316,None,,,,,,,,688491,001,2024-12-03_21h40.21.996,Test,2024.2.1,59.90700575670635,2024-12-03 21h40.31.989548 +0100,
58,150,120,61,None,20,20,0,True,,,,right,0.9272376839944627,None,,,,,,,,,,,,,0,20,20,20,561.3741441259917,,,,,,,,,,,,,,,,,,,,,,,,,,,,,,,,,,,,,,,,,,,,,,,,,,,,,,,,,,,,,,,,,,,,,,,,,561.3655900529993,561.3741441259917,562.3896227309888,563.3728768619912,563.3728768619912,563.3728768619912,564.3082272159954,right,0.9272376839944627,None,,,,,,,,688491,001,2024-12-03_21h40.21.996,Test,2024.2.1,59.90700575670635,2024-12-03 21h40.31.989548 +0100,
40,150,0,23,None,21,21,0,True,,,,right,1.5372984999994515,None,,,,,,,,,,,,,0,21,21,21,564.3240652179957,,,,,,,,,,,,,,,,,,,,,,,,,,,,,,,,,,,,,,,,,,,,,,,,,,,,,,,,,,,,,,,,,,,,,,,,,564.3143441610009,564.3240652179957,565.3234461949905,566.3229156429879,566.3229156429879,566.3229156429879,567.8755751360004,right,1.5372984999994515,None,,,,,,,,688491,001,2024-12-03_21h40.21.996,Test,2024.2.1,59.90700575670635,2024-12-03 21h40.31.989548 +0100,
17,150,90,45,None,22,22,0,False,,,,right,1.774729290002142,None,,,,,,,,,,,,,0,22,22,22,567.890533193,,,,,,,,,,,,,,,,,,,,,,,,,,,,,,,,,,,,,,,,,,,,,,,,,,,,,,,,,,,,,,,,,,,,,,,,,567.881760209988,567.890533193,568.8897847509943,569.8901849079994,569.8901849079994,569.8901849079994,571.6749512759998,right,1.774729290002142,None,,,,,,,,688491,001,2024-12-03_21h40.21.996,Test,2024.2.1,59.90700575670635,2024-12-03 21h40.31.989548 +0100,
53,150,90,26,None,23,23,0,True,,,,left,1.911527368996758,None,,,,,,,,,,,,,0,23,23,23,571.6904492030008,,,,,,,,,,,,,,,,,,,,,,,,,,,,,,,,,,,,,,,,,,,,,,,,,,,,,,,,,,,,,,,,,,,,,,,,,571.6811479219905,571.6904492030008,572.6900958309998,573.6899460720015,573.6899460720015,573.6899460720015,575.6088457019941,left,1.911527368996758,None,,,,,,,,688491,001,2024-12-03_21h40.21.996,Test,2024.2.1,59.90700575670635,2024-12-03 21h40.31.989548 +0100,
36,150,0,66,None,24,24,0,True,,,,left,2.303325610002503,None,,,,,,,,,,,,,0,24,24,24,575.6251946439879,,,,,,,,,,,,,,,,,,,,,,,,,,,,,,,,,,,,,,,,,,,,,,,,,,,,,,,,,,,,,,,,,,,,,,,,,575.6159271919896,575.6251946439879,576.6406927060016,577.6238436819986,577.6238436819986,577.6238436819986,579.9427004839963,left,2.303325610002503,None,,,,,,,,688491,001,2024-12-03_21h40.21.996,Test,2024.2.1,59.90700575670635,2024-12-03 21h40.31.989548 +0100,
52,150,90,43,None,25,25,0,True,,,,right,1.676237163002952,None,,,,,,,,,,,,,0,25,25,25,579.9583337799995,,,,,,,,,,,,,,,,,,,,,,,,,,,,,,,,,,,,,,,,,,,,,,,,,,,,,,,,,,,,,,,,,,,,,,,,,579.9486101759976,579.9583337799995,580.9583928950015,581.9416705170006,581.9416705170006,581.9416705170006,583.625996717994,right,1.676237163002952,None,,,,,,,,688491,001,2024-12-03_21h40.21.996,Test,2024.2.1,59.90700575670635,2024-12-03 21h40.31.989548 +0100,
48,150,60,17,None,26,26,0,True,,,,right,1.0302785520034377,None,,,,,,,,,,,,,0,26,26,26,583.6405829599971,,,,,,,,,,,,,,,,,,,,,,,,,,,,,,,,,,,,,,,,,,,,,,,,,,,,,,,,,,,,,,,,,,,,,,,,,583.6308754409984,583.6405829599971,584.6417433780007,585.6247583559889,585.6247583559889,585.6247583559889,586.6598682759941,right,1.0302785520034377,None,,,,,,,,688491,001,2024-12-03_21h40.21.996,Test,2024.2.1,59.90700575670635,2024-12-03 21h40.31.989548 +0100,
25,150,120,18,None,27,27,0,False,,,,left,0.9774081009963993,None,,,,,,,,,,,,,0,27,27,27,586.6753401699971,,,,,,,,,,,,,,,,,,,,,,,,,,,,,,,,,,,,,,,,,,,,,,,,,,,,,,,,,,,,,,,,,,,,,,,,,586.6657670569984,586.6753401699971,587.6745996639947,588.6591491709987,588.6591491709987,588.6591491709987,589.643228601999,left,0.9774081009963993,None,,,,,,,,688491,001,2024-12-03_21h40.21.996,Test,2024.2.1,59.90700575670635,2024-12-03 21h40.31.989548 +0100,
50,150,60,19,None,28,28,0,True,,,,right,0.8954503389977617,None,,,,,,,,,,,,,0,28,28,28,589.6587143489887,,,,,,,,,,,,,,,,,,,,,,,,,,,,,,,,,,,,,,,,,,,,,,,,,,,,,,,,,,,,,,,,,,,,,,,,,589.6490936459886,589.6587143489887,590.6580546740006,591.6578578569897,591.6578578569897,591.6578578569897,592.5597600799956,right,0.8954503389977617,None,,,,,,,,688491,001,2024-12-03_21h40.21.996,Test,2024.2.1,59.90700575670635,2024-12-03 21h40.31.989548 +0100,
59,150,120,58,None,29,29,0,True,,,,left,1.5280543060071068,None,,,,,,,,,,,,,0,29,29,29,592.5751012469991,,,,,,,,,,,,,,,,,,,,,,,,,,,,,,,,,,,,,,,,,,,,,,,,,,,,,,,,,,,,,,,,,,,,,,,,,592.5656668449956,592.5751012469991,593.5753853189963,594.5748661039979,594.5748661039979,594.5748661039979,596.110273956001,left,1.5280543060071068,None,,,,,,,,688491,001,2024-12-03_21h40.21.996,Test,2024.2.1,59.90700575670635,2024-12-03 21h40.31.989548 +0100,
55,150,90,1,None,30,30,0,True,,,,right,0.8770724119967781,None,,,,,,,,,,,,,0,30,30,30,596.1253738119995,,,,,,,,,,,,,,,,,,,,,,,,,,,,,,,,,,,,,,,,,,,,,,,,,,,,,,,,,,,,,,,,,,,,,,,,,596.1164621549979,596.1253738119995,597.125284373993,598.1252225389908,598.1252225389908,598.1252225389908,599.0101768619934,right,0.8770724119967781,None,,,,,,,,688491,001,2024-12-03_21h40.21.996,Test,2024.2.1,59.90700575670635,2024-12-03 21h40.31.989548 +0100,
8,150,30,54,None,31,31,0,False,,,,left,1.2182269629993243,None,,,,,,,,,,,,,0,31,31,31,599.0260020540009,,,,,,,,,,,,,,,,,,,,,,,,,,,,,,,,,,,,,,,,,,,,,,,,,,,,,,,,,,,,,,,,,,,,,,,,,599.0171314549953,599.0260020540009,600.0254313329933,601.0253562049911,601.0253562049911,601.0253562049911,602.2609244380001,left,1.2182269629993243,None,,,,,,,,688491,001,2024-12-03_21h40.21.996,Test,2024.2.1,59.90700575670635,2024-12-03 21h40.31.989548 +0100,
54,150,90,2,None,32,32,0,True,,,,left,1.0333184799965238,None,,,,,,,,,,,,,0,32,32,32,602.2755657599919,,,,,,,,,,,,,,,,,,,,,,,,,,,,,,,,,,,,,,,,,,,,,,,,,,,,,,,,,,,,,,,,,,,,,,,,,602.26663671399,602.2755657599919,603.2756897829968,604.2762988449977,604.2762988449977,604.2762988449977,605.312049464992,left,1.0333184799965238,None,,,,,,,,688491,001,2024-12-03_21h40.21.996,Test,2024.2.1,59.90700575670635,2024-12-03 21h40.31.989548 +0100,
28,150,150,41,None,33,33,0,False,,,,right,0.7635653530014679,None,,,,,,,,,,,,,0,33,33,33,605.3274312259891,,,,,,,,,,,,,,,,,,,,,,,,,,,,,,,,,,,,,,,,,,,,,,,,,,,,,,,,,,,,,,,,,,,,,,,,,605.3178794879932,605.3274312259891,606.3428094279952,607.3259077379917,607.3259077379917,607.3259077379917,608.0958319560013,right,0.7635653530014679,None,,,,,,,,688491,001,2024-12-03_21h40.21.996,Test,2024.2.1,59.90700575670635,2024-12-03 21h40.31.989548 +0100,
42,150,30,49,None,34,34,0,True,,,,left,1.6081765729904873,None,,,,,,,,,,,,,0,34,34,34,608.111669402002,,,,,,,,,,,,,,,,,,,,,,,,,,,,,,,,,,,,,,,,,,,,,,,,,,,,,,,,,,,,,,,,,,,,,,,,,608.1028343009966,608.111669402002,609.1261355989991,610.1093860089895,610.1093860089895,610.1093860089895,611.7269963189901,left,1.6081765729904873,None,,,,,,,,688491,001,2024-12-03_21h40.21.996,Test,2024.2.1,59.90700575670635,2024-12-03 21h40.31.989548 +0100,
33,150,180,34,None,35,35,0,False,,,,right,0.9512481540004956,None,,,,,,,,,,,,,0,35,35,35,611.7425427330018,,,,,,,,,,,,,,,,,,,,,,,,,,,,,,,,,,,,,,,,,,,,,,,,,,,,,,,,,,,,,,,,,,,,,,,,,611.7322439849959,611.7425427330018,612.742828167,613.7266455349891,613.7266455349891,613.7266455349891,614.6948418169923,right,0.9512481540004956,None,,,,,,,,688491,001,2024-12-03_21h40.21.996,Test,2024.2.1,59.90700575670635,2024-12-03 21h40.31.989548 +0100,
32,150,180,8,None,36,36,0,False,,,,right,0.672157260007225,None,,,,,,,,,,,,,0,36,36,36,614.711002349999,,,,,,,,,,,,,,,,,,,,,,,,,,,,,,,,,,,,,,,,,,,,,,,,,,,,,,,,,,,,,,,,,,,,,,,,,614.7016273999907,614.711002349999,615.7106996539951,616.7100651119981,616.7100651119981,616.7100651119981,617.3946057069988,right,0.672157260007225,None,,,,,,,,688491,001,2024-12-03_21h40.21.996,Test,2024.2.1,59.90700575670635,2024-12-03 21h40.31.989548 +0100,
41,150,30,52,None,37,37,0,True,,,,left,0.8485300249885768,None,,,,,,,,,,,,,0,37,37,37,617.4093593579892,,,,,,,,,,,,,,,,,,,,,,,,,,,,,,,,,,,,,,,,,,,,,,,,,,,,,,,,,,,,,,,,,,,,,,,,,617.3999073809973,617.4093593579892,618.4103943849914,619.3936090549978,619.3936090549978,619.3936090549978,620.2457931690005,left,0.8485300249885768,None,,,,,,,,688491,001,2024-12-03_21h40.21.996,Test,2024.2.1,59.90700575670635,2024-12-03 21h40.31.989548 +0100,
12,150,60,22,None,38,38,0,False,,,,left,1.057190293999156,None,,,,,,,,,,,,,0,38,38,38,620.2611602379911,,,,,,,,,,,,,,,,,,,,,,,,,,,,,,,,,,,,,,,,,,,,,,,,,,,,,,,,,,,,,,,,,,,,,,,,,620.2513495349995,620.2611602379911,621.2609183309978,622.2604055629927,622.2604055629927,622.2604055629927,623.3287868909974,left,1.057190293999156,None,,,,,,,,688491,001,2024-12-03_21h40.21.996,Test,2024.2.1,59.90700575670635,2024-12-03 21h40.31.989548 +0100,
14,150,60,42,None,39,39,0,False,,,,right,1.1561242269963259,None,,,,,,,,,,,,,0,39,39,39,623.3439609799971,,,,,,,,,,,,,,,,,,,,,,,,,,,,,,,,,,,,,,,,,,,,,,,,,,,,,,,,,,,,,,,,,,,,,,,,,623.3345222200005,623.3439609799971,624.3441836679995,625.3280911049951,625.3280911049951,625.3280911049951,626.4880025749881,right,1.1561242269963259,None,,,,,,,,688491,001,2024-12-03_21h40.21.996,Test,2024.2.1,59.90700575670635,2024-12-03 21h40.31.989548 +0100,
45,150,30,20,None,40,40,0,True,,,,right,1.1705056560022058,None,,,,,,,,,,,,,0,40,40,40,626.5027231479908,,,,,,,,,,,,,,,,,,,,,,,,,,,,,,,,,,,,,,,,,,,,,,,,,,,,,,,,,,,,,,,,,,,,,,,,,626.4947273059952,626.5027231479908,627.5109639309958,628.5933272849943,628.5933272849943,628.5933272849943,629.7791764099966,right,1.1705056560022058,None,,,,,,,,688491,001,2024-12-03_21h40.21.996,Test,2024.2.1,59.90700575670635,2024-12-03 21h40.31.989548 +0100,
62,150,150,68,None,41,41,0,True,,,,left,1.1588969040021766,None,,,,,,,,,,,,,0,41,41,41,629.8091839059925,,,,,,,,,,,,,,,,,,,,,,,,,,,,,,,,,,,,,,,,,,,,,,,,,,,,,,,,,,,,,,,,,,,,,,,,,629.786143573001,629.8091839059925,630.8111993149942,631.794069999989,631.794069999989,631.794069999989,632.9637578749971,left,1.1588969040021766,None,,,,,,,,688491,001,2024-12-03_21h40.21.996,Test,2024.2.1,59.90700575670635,2024-12-03 21h40.31.989548 +0100,
2,150,0,53,None,42,42,0,False,,,,right,1.1989959630009253,None,,,,,,,,,,,,,0,42,42,42,632.9803659159952,,,,,,,,,,,,,,,,,,,,,,,,,,,,,,,,,,,,,,,,,,,,,,,,,,,,,,,,,,,,,,,,,,,,,,,,,632.9703966239904,632.9803659159952,633.9943198099936,634.9784918249934,634.9784918249934,634.9784918249934,636.1803927319997,right,1.1989959630009253,None,,,,,,,,688491,001,2024-12-03_21h40.21.996,Test,2024.2.1,59.90700575670635,2024-12-03 21h40.31.989548 +0100,
49,150,60,36,None,43,43,0,True,,,,left,0.7754732180037536,None,,,,,,,,,,,,,0,43,43,43,636.1966950700007,,,,,,,,,,,,,,,,,,,,,,,,,,,,,,,,,,,,,,,,,,,,,,,,,,,,,,,,,,,,,,,,,,,,,,,,,636.1876607369923,636.1966950700007,637.2110737519979,638.1939834980003,638.1939834980003,638.1939834980003,638.9798385780014,left,0.7754732180037536,None,,,,,,,,688491,001,2024-12-03_21h40.21.996,Test,2024.2.1,59.90700575670635,2024-12-03 21h40.31.989548 +0100,
26,150,150,31,None,44,44,0,False,,,,right,1.493827999001951,None,,,,,,,,,,,,,0,44,44,44,638.9961128189898,,,,,,,,,,,,,,,,,,,,,,,,,,,,,,,,,,,,,,,,,,,,,,,,,,,,,,,,,,,,,,,,,,,,,,,,,638.9874822559941,638.9961128189898,640.0115121559938,640.9946608759928,640.9946608759928,640.9946608759928,642.4975227699906,right,1.493827999001951,None,,,,,,,,688491,001,2024-12-03_21h40.21.996,Test,2024.2.1,59.90700575670635,2024-12-03 21h40.31.989548 +0100,
56,150,120,50,None,45,45,0,True,,,,left,0.8735632229945622,None,,,,,,,,,,,,,0,45,45,45,642.513836810991,,,,,,,,,,,,,,,,,,,,,,,,,,,,,,,,,,,,,,,,,,,,,,,,,,,,,,,,,,,,,,,,,,,,,,,,,642.5049469739897,642.513836810991,643.5282859079889,644.5115802229993,644.5115802229993,644.5115802229993,645.3970352289907,left,0.8735632229945622,None,,,,,,,,688491,001,2024-12-03_21h40.21.996,Test,2024.2.1,59.90700575670635,2024-12-03 21h40.31.989548 +0100,
15,150,60,7,None,46,46,0,False,,,,left,1.0016599929949734,None,,,,,,,,,,,,,0,46,46,46,645.412366812001,,,,,,,,,,,,,,,,,,,,,,,,,,,,,,,,,,,,,,,,,,,,,,,,,,,,,,,,,,,,,,,,,,,,,,,,,645.4028281020001,645.412366812001,646.4113103059935,647.4118776169926,647.4118776169926,647.4118776169926,648.4304300669901,left,1.0016599929949734,None,,,,,,,,688491,001,2024-12-03_21h40.21.996,Test,2024.2.1,59.90700575670635,2024-12-03 21h40.31.989548 +0100,
67,150,180,59,None,47,47,0,True,,,,left,1.4369545720110182,None,,,,,,,,,,,,,0,47,47,47,648.4458335399977,,,,,,,,,,,,,,,,,,,,,,,,,,,,,,,,,,,,,,,,,,,,,,,,,,,,,,,,,,,,,,,,,,,,,,,,,648.4368691359996,648.4458335399977,649.4455988939881,650.4453253489919,650.4453253489919,650.4453253489919,651.8978468189889,left,1.4369545720110182,None,,,,,,,,688491,001,2024-12-03_21h40.21.996,Test,2024.2.1,59.90700575670635,2024-12-03 21h40.31.989548 +0100,
13,150,60,24,None,48,48,0,False,,,,right,0.9903075699985493,None,,,,,,,,,,,,,0,48,48,48,651.9129794519977,,,,,,,,,,,,,,,,,,,,,,,,,,,,,,,,,,,,,,,,,,,,,,,,,,,,,,,,,,,,,,,,,,,,,,,,,651.9040926320013,651.9129794519977,652.9124090379919,653.9122701799934,653.9122701799934,653.9122701799934,654.9145085609925,right,0.9903075699985493,None,,,,,,,,688491,001,2024-12-03_21h40.21.996,Test,2024.2.1,59.90700575670635,2024-12-03 21h40.31.989548 +0100,
23,150,120,12,None,49,49,0,False,,,,right,0.8943237579951528,None,,,,,,,,,,,,,0,49,49,49,654.9441113469948,,,,,,,,,,,,,,,,,,,,,,,,,,,,,,,,,,,,,,,,,,,,,,,,,,,,,,,,,,,,,,,,,,,,,,,,,654.9207222049881,654.9441113469948,655.9457792699977,656.9297387369879,656.9297387369879,656.9297387369879,657.8308323539968,right,0.8943237579951528,None,,,,,,,,688491,001,2024-12-03_21h40.21.996,Test,2024.2.1,59.90700575670635,2024-12-03 21h40.31.989548 +0100,
43,150,30,9,None,50,50,0,True,,,,left,1.7447881619882537,None,,,,,,,,,,,,,0,50,50,50,657.8458959449927,,,,,,,,,,,,,,,,,,,,,,,,,,,,,,,,,,,,,,,,,,,,,,,,,,,,,,,,,,,,,,,,,,,,,,,,,657.8365788730007,657.8458959449927,658.8460236569954,659.8461110889912,659.8461110889912,659.8461110889912,661.598106393998,left,1.7447881619882537,None,,,,,,,,688491,001,2024-12-03_21h40.21.996,Test,2024.2.1,59.90700575670635,2024-12-03 21h40.31.989548 +0100,
51,150,90,15,None,51,51,0,True,,,,right,1.0975075439928332,None,,,,,,,,,,,,,0,51,51,51,661.614069215997,,,,,,,,,,,,,,,,,,,,,,,,,,,,,,,,,,,,,,,,,,,,,,,,,,,,,,,,,,,,,,,,,,,,,,,,,661.6049942259997,661.614069215997,662.6299752679915,663.6130303259997,663.6130303259997,663.6130303259997,664.7156353409955,right,1.0975075439928332,None,,,,,,,,688491,001,2024-12-03_21h40.21.996,Test,2024.2.1,59.90700575670635,2024-12-03 21h40.31.989548 +0100,
57,150,120,55,None,52,52,0,True,,,,left,1.1507008750049863,None,,,,,,,,,,,,,0,52,52,52,664.7305151939945,,,,,,,,,,,,,,,,,,,,,,,,,,,,,,,,,,,,,,,,,,,,,,,,,,,,,,,,,,,,,,,,,,,,,,,,,664.7214705719962,664.7305151939945,665.7298383219895,666.7304111599951,666.7304111599951,666.7304111599951,667.8984732089884,left,1.1507008750049863,None,,,,,,,,688491,001,2024-12-03_21h40.21.996,Test,2024.2.1,59.90700575670635,2024-12-03 21h40.31.989548 +0100,
24,150,120,5,None,53,53,0,False,,,,left,0.9518068140023388,None,,,,,,,,,,,,,0,53,53,53,667.9140586949943,,,,,,,,,,,,,,,,,,,,,,,,,,,,,,,,,,,,,,,,,,,,,,,,,,,,,,,,,,,,,,,,,,,,,,,,,667.904322663002,667.9140586949943,668.914162918998,669.9131768270017,669.9131768270017,669.9131768270017,670.8821702319983,left,0.9518068140023388,None,,,,,,,,688491,001,2024-12-03_21h40.21.996,Test,2024.2.1,59.90700575670635,2024-12-03 21h40.31.989548 +0100,
5,150,0,63,None,54,54,0,False,,,,left,1.3331683929864084,None,,,,,,,,,,,,,0,54,54,54,670.8975849849958,,,,,,,,,,,,,,,,,,,,,,,,,,,,,,,,,,,,,,,,,,,,,,,,,,,,,,,,,,,,,,,,,,,,,,,,,670.8879537780012,670.8975849849958,671.8970976779965,672.8970241869974,672.8970241869974,672.8970241869974,674.2331510749937,left,1.3331683929864084,None,,,,,,,,688491,001,2024-12-03_21h40.21.996,Test,2024.2.1,59.90700575670635,2024-12-03 21h40.31.989548 +0100,
61,150,150,10,None,55,55,0,True,,,,right,0.920982213006937,None,,,,,,,,,,,,,0,55,55,55,674.248354750991,,,,,,,,,,,,,,,,,,,,,,,,,,,,,,,,,,,,,,,,,,,,,,,,,,,,,,,,,,,,,,,,,,,,,,,,,674.2390658479999,674.248354750991,675.2480540859979,676.2476319049892,676.2476319049892,676.2476319049892,677.1825190529926,right,0.920982213006937,None,,,,,,,,688491,001,2024-12-03_21h40.21.996,Test,2024.2.1,59.90700575670635,2024-12-03 21h40.31.989548 +0100,
64,150,150,13,None,56,56,0,True,,,,left,1.0081733120023273,None,,,,,,,,,,,,,0,56,56,56,677.1974150199967,,,,,,,,,,,,,,,,,,,,,,,,,,,,,,,,,,,,,,,,,,,,,,,,,,,,,,,,,,,,,,,,,,,,,,,,,677.1883234939887,677.1974150199967,678.1971878109907,679.1820635679906,679.1820635679906,679.1820635679906,680.2000149329979,left,1.0081733120023273,None,,,,,,,,688491,001,2024-12-03_21h40.21.996,Test,2024.2.1,59.90700575670635,2024-12-03 21h40.31.989548 +0100,
44,150,30,57,None,57,57,0,True,,,,left,1.575867785999435,None,,,,,,,,,,,,,0,57,57,57,680.2148676689976,,,,,,,,,,,,,,,,,,,,,,,,,,,,,,,,,,,,,,,,,,,,,,,,,,,,,,,,,,,,,,,,,,,,,,,,,680.2061000309914,680.2148676689976,681.2146266289928,682.2142512869905,682.2142512869905,682.2142512869905,683.7991632359917,left,1.575867785999435,None,,,,,,,,688491,001,2024-12-03_21h40.21.996,Test,2024.2.1,59.90700575670635,2024-12-03 21h40.31.989548 +0100,
29,150,150,21,None,58,58,0,False,,,,left,1.7069214469956933,None,,,,,,,,,,,,,0,58,58,58,683.8149266379914,,,,,,,,,,,,,,,,,,,,,,,,,,,,,,,,,,,,,,,,,,,,,,,,,,,,,,,,,,,,,,,,,,,,,,,,,683.8052020109899,683.8149266379914,684.8151048549917,685.8144072969881,685.8144072969881,685.8144072969881,687.5324290649878,left,1.7069214469956933,None,,,,,,,,688491,001,2024-12-03_21h40.21.996,Test,2024.2.1,59.90700575670635,2024-12-03 21h40.31.989548 +0100,
10,150,30,47,None,59,59,0,False,,,,left,0.8345286800031317,None,,,,,,,,,,,,,0,59,59,59,687.5485002619971,,,,,,,,,,,,,,,,,,,,,,,,,,,,,,,,,,,,,,,,,,,,,,,,,,,,,,,,,,,,,,,,,,,,,,,,,687.5384925299877,687.5485002619971,688.5642804759991,689.5318172279949,689.5318172279949,689.5318172279949,690.3838561229932,left,0.8345286800031317,None,,,,,,,,688491,001,2024-12-03_21h40.21.996,Test,2024.2.1,59.90700575670635,2024-12-03 21h40.31.989548 +0100,
21,150,120,69,None,60,60,0,False,,,,left,0.8836135599995032,None,,,,,,,,,,,,,0,60,60,60,690.3984345819918,,,,,,,,,,,,,,,,,,,,,,,,,,,,,,,,,,,,,,,,,,,,,,,,,,,,,,,,,,,,,,,,,,,,,,,,,690.3894547119999,690.3984345819918,691.3982142799941,692.3997237479925,692.3997237479925,692.3997237479925,693.286317524995,left,0.8836135599995032,None,,,,,,,,688491,001,2024-12-03_21h40.21.996,Test,2024.2.1,59.90700575670635,2024-12-03 21h40.31.989548 +0100,
39,150,0,28,None,61,61,0,True,,,,left,1.3071033240121324,None,,,,,,,,,,,,,0,61,61,61,693.3010925549897,,,,,,,,,,,,,,,,,,,,,,,,,,,,,,,,,,,,,,,,,,,,,,,,,,,,,,,,,,,,,,,,,,,,,,,,,693.2920418909926,693.3010925549897,694.3153603940009,695.2985462829965,695.2985462829965,695.2985462829965,696.6129379979975,left,1.3071033240121324,None,,,,,,,,688491,001,2024-12-03_21h40.21.996,Test,2024.2.1,59.90700575670635,2024-12-03 21h40.31.989548 +0100,
27,150,150,3,None,62,62,0,False,,,,right,1.535657596992678,None,,,,,,,,,,,,,0,62,62,62,696.6305107209919,,,,,,,,,,,,,,,,,,,,,,,,,,,,,,,,,,,,,,,,,,,,,,,,,,,,,,,,,,,,,,,,,,,,,,,,,696.6180977769982,696.6305107209919,697.6320223729999,698.6166790360003,698.6166790360003,698.6166790360003,700.1666145719937,right,1.535657596992678,None,,,,,,,,688491,001,2024-12-03_21h40.21.996,Test,2024.2.1,59.90700575670635,2024-12-03 21h40.31.989548 +0100,
63,150,150,44,None,63,63,0,True,,,,right,1.1775460530043347,None,,,,,,,,,,,,,0,63,63,63,700.1821356189903,,,,,,,,,,,,,,,,,,,,,,,,,,,,,,,,,,,,,,,,,,,,,,,,,,,,,,,,,,,,,,,,,,,,,,,,,700.1719442729955,700.1821356189903,701.1822238619934,702.1664174199977,702.1664174199977,702.1664174199977,703.3507647649967,right,1.1775460530043347,None,,,,,,,,688491,001,2024-12-03_21h40.21.996,Test,2024.2.1,59.90700575670635,2024-12-03 21h40.31.989548 +0100,
4,150,0,6,None,64,64,0,False,,,,left,0.8280479530076263,None,,,,,,,,,,,,,0,64,64,64,703.3660022839904,,,,,,,,,,,,,,,,,,,,,,,,,,,,,,,,,,,,,,,,,,,,,,,,,,,,,,,,,,,,,,,,,,,,,,,,,703.3559348919953,703.3660022839904,704.3662139849912,705.3659583539993,705.3659583539993,705.3659583539993,706.2011099519877,left,0.8280479530076263,None,,,,,,,,688491,001,2024-12-03_21h40.21.996,Test,2024.2.1,59.90700575670635,2024-12-03 21h40.31.989548 +0100,
35,150,180,35,None,65,65,0,False,,,,right,1.0847082389955176,None,,,,,,,,,,,,,0,65,65,65,706.2165997830016,,,,,,,,,,,,,,,,,,,,,,,,,,,,,,,,,,,,,,,,,,,,,,,,,,,,,,,,,,,,,,,,,,,,,,,,,706.2069104269904,706.2165997830016,707.2166526729998,708.2002382989886,708.2002382989886,708.2002382989886,709.2998377589975,right,1.0847082389955176,None,,,,,,,,688491,001,2024-12-03_21h40.21.996,Test,2024.2.1,59.90700575670635,2024-12-03 21h40.31.989548 +0100,
18,150,90,70,None,66,66,0,False,,,,left,1.2744875700009288,None,,,,,,,,,,,,,0,66,66,66,709.3165242899995,,,,,,,,,,,,,,,,,,,,,,,,,,,,,,,,,,,,,,,,,,,,,,,,,,,,,,,,,,,,,,,,,,,,,,,,,709.3048644590017,709.3165242899995,710.3167308099946,711.300027099991,711.300027099991,711.300027099991,712.5843506050005,left,1.2744875700009288,None,,,,,,,,688491,001,2024-12-03_21h40.21.996,Test,2024.2.1,59.90700575670635,2024-12-03 21h40.31.989548 +0100,
11,150,60,4,None,67,67,0,False,,,,left,2.027200147989788,None,,,,,,,,,,,,,0,67,67,67,712.6000933449977,,,,,,,,,,,,,,,,,,,,,,,,,,,,,,,,,,,,,,,,,,,,,,,,,,,,,,,,,,,,,,,,,,,,,,,,,712.5897833789932,712.6000933449977,713.6004536330001,714.6004745959945,714.6004745959945,714.6004745959945,716.6348925959901,left,2.027200147989788,None,,,,,,,,688491,001,2024-12-03_21h40.21.996,Test,2024.2.1,59.90700575670635,2024-12-03 21h40.31.989548 +0100,
46,150,60,48,None,68,68,0,True,,,,left,0.9250769310019678,None,,,,,,,,,,,,,0,68,68,68,716.6496976429917,,,,,,,,,,,,,,,,,,,,,,,,,,,,,,,,,,,,,,,,,,,,,,,,,,,,,,,,,,,,,,,,,,,,,,,,,716.6403971639957,716.6496976429917,717.6500129709893,718.6504672570009,718.6504672570009,718.6504672570009,719.5842741829983,left,0.9250769310019678,None,,,,,,,,688491,001,2024-12-03_21h40.21.996,Test,2024.2.1,59.90700575670635,2024-12-03 21h40.31.989548 +0100,
6,150,30,38,None,69,69,0,False,,,,right,1.141365973991924,None,,,,,,,,,,,,,0,69,69,69,719.6002859739965,,,,,,,,,,,,,,,,,,,,,,,,,,,,,,,,,,,,,,,,,,,,,,,,,,,,,,,,,,,,,,,,,,,,,,,,,719.5900114129909,719.6002859739965,720.6005085590004,721.5840694139915,721.5840694139915,721.5840694139915,722.7349196969881,right,1.141365973991924,None,,,,,,,,688491,001,2024-12-03_21h40.21.996,Test,2024.2.1,59.90700575670635,2024-12-03 21h40.31.989548 +0100,
,,,,,,,,,,,,,,,,,,,,,,,,,,,,,,,,,,,,,,,,,,,,,,,,,,,,,,,,,,,,,,,,,,,,,,,,,,,,,,,,,,,,,,,,,,,,,,,,,,,,,,,,,,,,,,,,,,722.7351023189985,722.7503047619975,722.7503047619975,725.8521883289941,space,3.0859161570115248,None,688491,001,2024-12-03_21h40.21.996,Test,2024.2.1,59.90700575670635,2024-12-03 21h40.31.989548 +0100,
