Trial_Number,Exposure_Duration,Displacement_Angle,Stimulus,Response,thisN,thisTrialN,thisRepN,Is_Distractor,key_resp_3.keys,key_resp_3.rt,key_resp_3.duration,key_resp_7.keys,key_resp_7.rt,key_resp_7.duration,trials.thisRepN,trials.thisTrialN,trials.thisN,trials.thisIndex,trials_2.thisRepN,trials_2.thisTrialN,trials_2.thisN,trials_2.thisIndex,trials_3.thisRepN,trials_3.thisTrialN,trials_3.thisN,trials_3.thisIndex,trials_4.thisRepN,trials_4.thisTrialN,trials_4.thisN,trials_4.thisIndex,thisRow.t,notes,Intro_to_experiment.started,important1_2.started,key_resp_8.started,Intro_to_experiment.stopped,key_resp_8.keys,key_resp_8.rt,key_resp_8.duration,important.started,important1.started,key_resp_4.started,important.stopped,key_resp_4.keys,key_resp_4.rt,key_resp_4.duration,instruction.started,text_7.started,key_resp_9.started,instruction.stopped,key_resp_9.keys,key_resp_9.rt,key_resp_9.duration,training_trial.started,cross.started,image.started,aperture.started,cross.stopped,image.stopped,aperture.stopped,training_trial.stopped,New_instruction.started,text.started,key_resp_2.started,New_instruction.stopped,key_resp_2.keys,key_resp_2.rt,key_resp_2.duration,test_trial.started,cross2.started,cross2.stopped,image_2.started,key_resp_3.started,aperture_2.started,test_trial.stopped,trials_2.key_resp_3.keys,trials_2.key_resp_3.rt,trials_2.key_resp_3.duration,image_2.stopped,text_3.started,aperture_2.stopped,start_blok_2.started,key_resp_5.started,text_4.started,start_blok_2.stopped,key_resp_5.keys,key_resp_5.rt,key_resp_5.duration,training_2.started,cross_2.started,image_3.started,aperture_3.started,cross_2.stopped,image_3.stopped,aperture_3.stopped,training_2.stopped,nyeste_instruks.started,text_5.started,key_resp_6.started,nyeste_instruks.stopped,key_resp_6.keys,key_resp_6.rt,key_resp_6.duration,test_2.started,cross2_2.started,cross2_2.stopped,image_4.started,key_resp_7.started,aperture_4.started,image_4.stopped,text_6.started,aperture_4.stopped,test_2.stopped,trials_4.key_resp_7.keys,trials_4.key_resp_7.rt,trials_4.key_resp_7.duration,Instruction1.started,Instruktion.started,key_resp.started,Instruction1.stopped,key_resp.keys,key_resp.rt,key_resp.duration,participant,session,date,expName,psychopyVersion,frameRate,expStart,
,,,,,,,,,,,,,,,,,,,,,,,,,,,,,,,,,0.008669622999150306,0.020488909001869615,0.020488909001869615,46.24643083599949,space,46.19594281500031,None,,,,,,,,,,,,,,,,,,,,,,,,,,,,,,,,,,,,,,,,,,,,,,,,,,,,,,,,,,,,,,,,,,,,,,,,,,,,,,,,,,,,,715914,001,2024-12-01_16h59.58.555,Test,2024.2.1,59.94913256170913,2024-12-01 17h00.33.559589 +0100,
,,,,,,,,,,,,,,,,,,,,,,,,,,,,,,,,,,,,,,,,46.24653978599963,46.26670566900066,46.26670566900066,66.85092723300113,space,20.581646278002154,None,,,,,,,,,,,,,,,,,,,,,,,,,,,,,,,,,,,,,,,,,,,,,,,,,,,,,,,,,,,,,,,,,,,,,,,,,,,,,,715914,001,2024-12-01_16h59.58.555,Test,2024.2.1,59.94913256170913,2024-12-01 17h00.33.559589 +0100,
,,,,,,,,,,,,,,,,,,,,,,,,,,,,,,,,,,,,,,,,,,,,,,,66.85100757799955,66.86499152599936,66.86499152599936,134.98823342000105,space,68.12088825700266,None,,,,,,,,,,,,,,,,,,,,,,,,,,,,,,,,,,,,,,,,,,,,,,,,,,,,,,,,,,,,,,,,,,,,,,,715914,001,2024-12-01_16h59.58.555,Test,2024.2.1,59.94913256170913,2024-12-01 17h00.33.559589 +0100,
13,150,60,16,None,0,0,0,,,,,,,,0,0,0,12,,,,,,,,,,,,,135.01673301499977,,,,,,,,,,,,,,,,,,,,,,,135.00770510800066,135.01673301499977,135.20160990099976,135.20160990099976,135.218579968001,136.9072847210009,136.9072847210009,136.8875396000003,,,,,,,,,,,,,,,,,,,,,,,,,,,,,,,,,,,,,,,,,,,,,,,,,,,,,,,,,,,,,,,715914,001,2024-12-01_16h59.58.555,Test,2024.2.1,59.94913256170913,2024-12-01 17h00.33.559589 +0100,
14,150,60,26,None,1,1,0,,,,,,,,0,1,1,13,,,,,,,,,,,,,136.9072847210009,,,,,,,,,,,,,,,,,,,,,,,136.89962648599976,136.9072847210009,137.10184986600143,137.10184986600143,137.11838306100253,138.80764500700025,138.80764500700025,138.78729536500032,,,,,,,,,,,,,,,,,,,,,,,,,,,,,,,,,,,,,,,,,,,,,,,,,,,,,,,,,,,,,,,715914,001,2024-12-01_16h59.58.555,Test,2024.2.1,59.94913256170913,2024-12-01 17h00.33.559589 +0100,
34,150,180,5,None,2,2,0,,,,,,,,0,2,2,33,,,,,,,,,,,,,138.80764500700025,,,,,,,,,,,,,,,,,,,,,,,138.79924689300242,138.80764500700025,139.00190946300063,139.00190946300063,139.01895512900228,140.7019085819993,140.7019085819993,140.68597991000206,,,,,,,,,,,,,,,,,,,,,,,,,,,,,,,,,,,,,,,,,,,,,,,,,,,,,,,,,,,,,,,715914,001,2024-12-01_16h59.58.555,Test,2024.2.1,59.94913256170913,2024-12-01 17h00.33.559589 +0100,
24,150,120,39,None,3,3,0,,,,,,,,0,3,3,23,,,,,,,,,,,,,140.7019085819993,,,,,,,,,,,,,,,,,,,,,,,140.6917537820009,140.7019085819993,140.9020246220025,140.9020246220025,140.9020246220025,142.60182177400202,142.60182177400202,142.5862768219995,,,,,,,,,,,,,,,,,,,,,,,,,,,,,,,,,,,,,,,,,,,,,,,,,,,,,,,,,,,,,,,715914,001,2024-12-01_16h59.58.555,Test,2024.2.1,59.94913256170913,2024-12-01 17h00.33.559589 +0100,
21,150,120,17,None,4,4,0,,,,,,,,0,4,4,20,,,,,,,,,,,,,142.60182177400202,,,,,,,,,,,,,,,,,,,,,,,142.59218818099907,142.60182177400202,142.80235696100135,142.80235696100135,142.80235696100135,144.50928378900062,144.50928378900062,144.4874636500026,,,,,,,,,,,,,,,,,,,,,,,,,,,,,,,,,,,,,,,,,,,,,,,,,,,,,,,,,,,,,,,715914,001,2024-12-01_16h59.58.555,Test,2024.2.1,59.94913256170913,2024-12-01 17h00.33.559589 +0100,
29,150,150,66,None,5,5,0,,,,,,,,0,5,5,28,,,,,,,,,,,,,144.50928378900062,,,,,,,,,,,,,,,,,,,,,,,144.49397672399937,144.50928378900062,144.70298016699962,144.70298016699962,144.7196337250025,146.40588711000237,146.40588711000237,146.38776361400232,,,,,,,,,,,,,,,,,,,,,,,,,,,,,,,,,,,,,,,,,,,,,,,,,,,,,,,,,,,,,,,715914,001,2024-12-01_16h59.58.555,Test,2024.2.1,59.94913256170913,2024-12-01 17h00.33.559589 +0100,
8,150,30,59,None,6,6,0,,,,,,,,0,6,6,7,,,,,,,,,,,,,146.40588711000237,,,,,,,,,,,,,,,,,,,,,,,146.39801158000046,146.40588711000237,146.6029825930018,146.6029825930018,146.61969063200013,148.3022521290004,148.3022521290004,148.28655784500006,,,,,,,,,,,,,,,,,,,,,,,,,,,,,,,,,,,,,,,,,,,,,,,,,,,,,,,,,,,,,,,715914,001,2024-12-01_16h59.58.555,Test,2024.2.1,59.94913256170913,2024-12-01 17h00.33.559589 +0100,
1,150,0,43,None,7,7,0,,,,,,,,0,7,7,0,,,,,,,,,,,,,148.3022521290004,,,,,,,,,,,,,,,,,,,,,,,148.29343080400213,148.3022521290004,148.51794894699924,148.51794894699924,148.51794894699924,,,150.20330468500106,,,,,,,,,,,,,,,,,,,,,,,,,,,,,,,,,,,,,,,,,,,,,,,,,,,,,,,,,,,,,,,715914,001,2024-12-01_16h59.58.555,Test,2024.2.1,59.94913256170913,2024-12-01 17h00.33.559589 +0100,
27,150,150,9,None,8,8,0,,,,,,,,0,8,8,26,,,,,,,,,,,,,150.2192648550008,,,,,,,,,,,,,,,,,,,,,,,150.21068393600217,150.2192648550008,150.4033977600011,150.4033977600011,150.41969527900073,152.10312330300076,152.10312330300076,152.08706824100227,,,,,,,,,,,,,,,,,,,,,,,,,,,,,,,,,,,,,,,,,,,,,,,,,,,,,,,,,,,,,,,715914,001,2024-12-01_16h59.58.555,Test,2024.2.1,59.94913256170913,2024-12-01 17h00.33.559589 +0100,
28,150,150,10,None,9,9,0,,,,,,,,0,9,9,27,,,,,,,,,,,,,152.10312330300076,,,,,,,,,,,,,,,,,,,,,,,152.09294306800075,152.10312330300076,152.30343737799922,152.30343737799922,152.30343737799922,154.00320025100154,154.00320025100154,153.9876955740001,,,,,,,,,,,,,,,,,,,,,,,,,,,,,,,,,,,,,,,,,,,,,,,,,,,,,,,,,,,,,,,715914,001,2024-12-01_16h59.58.555,Test,2024.2.1,59.94913256170913,2024-12-01 17h00.33.559589 +0100,
17,150,90,44,None,10,10,0,,,,,,,,0,10,10,16,,,,,,,,,,,,,154.00320025100154,,,,,,,,,,,,,,,,,,,,,,,153.9934519510025,154.00320025100154,154.2028960960015,154.2028960960015,154.2028960960015,155.9025314770006,155.9025314770006,155.88749168800132,,,,,,,,,,,,,,,,,,,,,,,,,,,,,,,,,,,,,,,,,,,,,,,,,,,,,,,,,,,,,,,715914,001,2024-12-01_16h59.58.555,Test,2024.2.1,59.94913256170913,2024-12-01 17h00.33.559589 +0100,
20,150,90,46,None,11,11,0,,,,,,,,0,11,11,19,,,,,,,,,,,,,155.9025314770006,,,,,,,,,,,,,,,,,,,,,,,155.89329563399951,155.9025314770006,156.1030062989994,156.1030062989994,156.1030062989994,157.80266689999917,157.80266689999917,157.78738986900134,,,,,,,,,,,,,,,,,,,,,,,,,,,,,,,,,,,,,,,,,,,,,,,,,,,,,,,,,,,,,,,715914,001,2024-12-01_16h59.58.555,Test,2024.2.1,59.94913256170913,2024-12-01 17h00.33.559589 +0100,
4,150,0,65,None,12,12,0,,,,,,,,0,12,12,3,,,,,,,,,,,,,157.80266689999917,,,,,,,,,,,,,,,,,,,,,,,157.79407768700185,157.80266689999917,158.0031808240019,158.0031808240019,158.0031808240019,159.70289035600217,159.70289035600217,159.6875922470026,,,,,,,,,,,,,,,,,,,,,,,,,,,,,,,,,,,,,,,,,,,,,,,,,,,,,,,,,,,,,,,715914,001,2024-12-01_16h59.58.555,Test,2024.2.1,59.94913256170913,2024-12-01 17h00.33.559589 +0100,
19,150,90,21,None,13,13,0,,,,,,,,0,13,13,18,,,,,,,,,,,,,159.70289035600217,,,,,,,,,,,,,,,,,,,,,,,159.6944865990008,159.70289035600217,159.903834834,159.903834834,159.903834834,161.60336426499998,161.60336426499998,161.58776183699956,,,,,,,,,,,,,,,,,,,,,,,,,,,,,,,,,,,,,,,,,,,,,,,,,,,,,,,,,,,,,,,715914,001,2024-12-01_16h59.58.555,Test,2024.2.1,59.94913256170913,2024-12-01 17h00.33.559589 +0100,
32,150,180,57,None,14,14,0,,,,,,,,0,14,14,31,,,,,,,,,,,,,161.60336426499998,,,,,,,,,,,,,,,,,,,,,,,161.59378020900112,161.60336426499998,161.80316746000244,161.80316746000244,161.80316746000244,163.51867411000057,163.51867411000057,163.4905901179991,,,,,,,,,,,,,,,,,,,,,,,,,,,,,,,,,,,,,,,,,,,,,,,,,,,,,,,,,,,,,,,715914,001,2024-12-01_16h59.58.555,Test,2024.2.1,59.94913256170913,2024-12-01 17h00.33.559589 +0100,
22,150,120,15,None,15,15,0,,,,,,,,0,15,15,21,,,,,,,,,,,,,163.51867411000057,,,,,,,,,,,,,,,,,,,,,,,163.49692569800027,163.51867411000057,163.70354713599954,163.70354713599954,163.72054548600136,165.40398679999998,165.40398679999998,165.38756706800268,,,,,,,,,,,,,,,,,,,,,,,,,,,,,,,,,,,,,,,,,,,,,,,,,,,,,,,,,,,,,,,715914,001,2024-12-01_16h59.58.555,Test,2024.2.1,59.94913256170913,2024-12-01 17h00.33.559589 +0100,
6,150,30,41,None,16,16,0,,,,,,,,0,16,16,5,,,,,,,,,,,,,165.40398679999998,,,,,,,,,,,,,,,,,,,,,,,165.39286299000014,165.40398679999998,165.6036969170018,165.6036969170018,165.6036969170018,167.3042700670012,167.3042700670012,167.2878995200008,,,,,,,,,,,,,,,,,,,,,,,,,,,,,,,,,,,,,,,,,,,,,,,,,,,,,,,,,,,,,,,715914,001,2024-12-01_16h59.58.555,Test,2024.2.1,59.94913256170913,2024-12-01 17h00.33.559589 +0100,
23,150,120,64,None,17,17,0,,,,,,,,0,17,17,22,,,,,,,,,,,,,167.3042700670012,,,,,,,,,,,,,,,,,,,,,,,167.2934908310017,167.3042700670012,167.5039421850015,167.5039421850015,167.5039421850015,169.2041966800025,169.2041966800025,169.1885312359991,,,,,,,,,,,,,,,,,,,,,,,,,,,,,,,,,,,,,,,,,,,,,,,,,,,,,,,,,,,,,,,715914,001,2024-12-01_16h59.58.555,Test,2024.2.1,59.94913256170913,2024-12-01 17h00.33.559589 +0100,
11,150,60,42,None,18,18,0,,,,,,,,0,18,18,10,,,,,,,,,,,,,169.2041966800025,,,,,,,,,,,,,,,,,,,,,,,169.1959011350009,169.2041966800025,169.38773760500044,169.38773760500044,169.40429190600116,171.0911771300016,171.0911771300016,171.07285290900109,,,,,,,,,,,,,,,,,,,,,,,,,,,,,,,,,,,,,,,,,,,,,,,,,,,,,,,,,,,,,,,715914,001,2024-12-01_16h59.58.555,Test,2024.2.1,59.94913256170913,2024-12-01 17h00.33.559589 +0100,
5,150,0,14,None,19,19,0,,,,,,,,0,19,19,4,,,,,,,,,,,,,171.0911771300016,,,,,,,,,,,,,,,,,,,,,,,171.08258737000142,171.0911771300016,171.3041930750005,171.3041930750005,171.3041930750005,,,172.98863917900235,,,,,,,,,,,,,,,,,,,,,,,,,,,,,,,,,,,,,,,,,,,,,,,,,,,,,,,,,,,,,,,715914,001,2024-12-01_16h59.58.555,Test,2024.2.1,59.94913256170913,2024-12-01 17h00.33.559589 +0100,
16,150,90,68,None,20,20,0,,,,,,,,0,20,20,15,,,,,,,,,,,,,173.00768831499954,,,,,,,,,,,,,,,,,,,,,,,172.99816714400004,173.00768831499954,173.1889118729996,173.1889118729996,173.22097842600124,174.88797318300203,174.88797318300203,174.87209691300086,,,,,,,,,,,,,,,,,,,,,,,,,,,,,,,,,,,,,,,,,,,,,,,,,,,,,,,,,,,,,,,715914,001,2024-12-01_16h59.58.555,Test,2024.2.1,59.94913256170913,2024-12-01 17h00.33.559589 +0100,
15,150,60,61,None,21,21,0,,,,,,,,0,21,21,14,,,,,,,,,,,,,174.88797318300203,,,,,,,,,,,,,,,,,,,,,,,174.87813037399974,174.88797318300203,175.0881897979998,175.0881897979998,175.0881897979998,176.78803596700163,176.78803596700163,176.77234695600055,,,,,,,,,,,,,,,,,,,,,,,,,,,,,,,,,,,,,,,,,,,,,,,,,,,,,,,,,,,,,,,715914,001,2024-12-01_16h59.58.555,Test,2024.2.1,59.94913256170913,2024-12-01 17h00.33.559589 +0100,
9,150,30,63,None,22,22,0,,,,,,,,0,22,22,8,,,,,,,,,,,,,176.78803596700163,,,,,,,,,,,,,,,,,,,,,,,176.78015412899913,176.78803596700163,176.9882476040002,176.9882476040002,176.9882476040002,178.68801293900106,178.68801293900106,178.6722444070001,,,,,,,,,,,,,,,,,,,,,,,,,,,,,,,,,,,,,,,,,,,,,,,,,,,,,,,,,,,,,,,715914,001,2024-12-01_16h59.58.555,Test,2024.2.1,59.94913256170913,2024-12-01 17h00.33.559589 +0100,
2,150,0,55,None,23,23,0,,,,,,,,0,23,23,1,,,,,,,,,,,,,178.68801293900106,,,,,,,,,,,,,,,,,,,,,,,178.67867870100235,178.68801293900106,178.88799012500021,178.88799012500021,178.88799012500021,180.5878137690015,180.5878137690015,180.57284976899973,,,,,,,,,,,,,,,,,,,,,,,,,,,,,,,,,,,,,,,,,,,,,,,,,,,,,,,,,,,,,,,715914,001,2024-12-01_16h59.58.555,Test,2024.2.1,59.94913256170913,2024-12-01 17h00.33.559589 +0100,
35,150,180,49,None,24,24,0,,,,,,,,0,24,24,34,,,,,,,,,,,,,180.5878137690015,,,,,,,,,,,,,,,,,,,,,,,180.5789690240017,180.5878137690015,180.78812409199963,180.78812409199963,180.78812409199963,182.48914723300186,182.48914723300186,182.47260760300196,,,,,,,,,,,,,,,,,,,,,,,,,,,,,,,,,,,,,,,,,,,,,,,,,,,,,,,,,,,,,,,715914,001,2024-12-01_16h59.58.555,Test,2024.2.1,59.94913256170913,2024-12-01 17h00.33.559589 +0100,
25,150,120,33,None,25,25,0,,,,,,,,0,25,25,24,,,,,,,,,,,,,182.48914723300186,,,,,,,,,,,,,,,,,,,,,,,182.47942295599933,182.48914723300186,182.68843760600066,182.68843760600066,182.68843760600066,184.3881823470001,184.3881823470001,184.3723422719995,,,,,,,,,,,,,,,,,,,,,,,,,,,,,,,,,,,,,,,,,,,,,,,,,,,,,,,,,,,,,,,715914,001,2024-12-01_16h59.58.555,Test,2024.2.1,59.94913256170913,2024-12-01 17h00.33.559589 +0100,
3,150,0,32,None,26,26,0,,,,,,,,0,26,26,2,,,,,,,,,,,,,184.3881823470001,,,,,,,,,,,,,,,,,,,,,,,184.3782174480002,184.3881823470001,184.58932562200062,184.58932562200062,184.58932562200062,186.28799057400101,186.28799057400101,186.2729431430016,,,,,,,,,,,,,,,,,,,,,,,,,,,,,,,,,,,,,,,,,,,,,,,,,,,,,,,,,,,,,,,715914,001,2024-12-01_16h59.58.555,Test,2024.2.1,59.94913256170913,2024-12-01 17h00.33.559589 +0100,
18,150,90,11,None,27,27,0,,,,,,,,0,27,27,17,,,,,,,,,,,,,186.28799057400101,,,,,,,,,,,,,,,,,,,,,,,186.27886077999938,186.28799057400101,186.4889194660027,186.4889194660027,186.4889194660027,188.19257062299948,188.19257062299948,188.17441629799941,,,,,,,,,,,,,,,,,,,,,,,,,,,,,,,,,,,,,,,,,,,,,,,,,,,,,,,,,,,,,,,715914,001,2024-12-01_16h59.58.555,Test,2024.2.1,59.94913256170913,2024-12-01 17h00.33.559589 +0100,
10,150,30,6,None,28,28,0,,,,,,,,0,28,28,9,,,,,,,,,,,,,188.19257062299948,,,,,,,,,,,,,,,,,,,,,,,188.18409402700127,188.19257062299948,188.38891286999933,188.38891286999933,188.4053797460001,190.08835862699925,190.08835862699925,190.07275461800236,,,,,,,,,,,,,,,,,,,,,,,,,,,,,,,,,,,,,,,,,,,,,,,,,,,,,,,,,,,,,,,715914,001,2024-12-01_16h59.58.555,Test,2024.2.1,59.94913256170913,2024-12-01 17h00.33.559589 +0100,
12,150,60,12,None,29,29,0,,,,,,,,0,29,29,11,,,,,,,,,,,,,190.08835862699925,,,,,,,,,,,,,,,,,,,,,,,190.07849389799958,190.08835862699925,190.2887092509991,190.2887092509991,190.2887092509991,191.9888525540009,191.9888525540009,191.97294224299912,,,,,,,,,,,,,,,,,,,,,,,,,,,,,,,,,,,,,,,,,,,,,,,,,,,,,,,,,,,,,,,715914,001,2024-12-01_16h59.58.555,Test,2024.2.1,59.94913256170913,2024-12-01 17h00.33.559589 +0100,
33,150,180,24,None,30,30,0,,,,,,,,0,30,30,32,,,,,,,,,,,,,191.9888525540009,,,,,,,,,,,,,,,,,,,,,,,191.9800753439995,191.9888525540009,192.18875635800214,192.18875635800214,192.18875635800214,193.8892042209991,193.8892042209991,193.87331980100134,,,,,,,,,,,,,,,,,,,,,,,,,,,,,,,,,,,,,,,,,,,,,,,,,,,,,,,,,,,,,,,715914,001,2024-12-01_16h59.58.555,Test,2024.2.1,59.94913256170913,2024-12-01 17h00.33.559589 +0100,
30,150,150,51,None,31,31,0,,,,,,,,0,31,31,29,,,,,,,,,,,,,193.8892042209991,,,,,,,,,,,,,,,,,,,,,,,193.87950310700035,193.8892042209991,194.08890352399976,194.08890352399976,194.08890352399976,195.7886046140011,195.7886046140011,195.77303928100082,,,,,,,,,,,,,,,,,,,,,,,,,,,,,,,,,,,,,,,,,,,,,,,,,,,,,,,,,,,,,,,715914,001,2024-12-01_16h59.58.555,Test,2024.2.1,59.94913256170913,2024-12-01 17h00.33.559589 +0100,
7,150,30,37,None,32,32,0,,,,,,,,0,32,32,6,,,,,,,,,,,,,195.7886046140011,,,,,,,,,,,,,,,,,,,,,,,195.7794961239997,195.7886046140011,195.98953967600028,195.98953967600028,195.98953967600028,197.68898914000238,197.68898914000238,197.67315400699954,,,,,,,,,,,,,,,,,,,,,,,,,,,,,,,,,,,,,,,,,,,,,,,,,,,,,,,,,,,,,,,715914,001,2024-12-01_16h59.58.555,Test,2024.2.1,59.94913256170913,2024-12-01 17h00.33.559589 +0100,
26,150,150,50,None,33,33,0,,,,,,,,0,33,33,25,,,,,,,,,,,,,197.68898914000238,,,,,,,,,,,,,,,,,,,,,,,197.67862544400123,197.68898914000238,197.88935578400196,197.88935578400196,197.88935578400196,199.58962262700152,199.58962262700152,199.57402084999921,,,,,,,,,,,,,,,,,,,,,,,,,,,,,,,,,,,,,,,,,,,,,,,,,,,,,,,,,,,,,,,715914,001,2024-12-01_16h59.58.555,Test,2024.2.1,59.94913256170913,2024-12-01 17h00.33.559589 +0100,
31,150,180,36,None,34,34,0,,,,,,,,0,34,34,30,,,,,,,,,,,,,199.58962262700152,,,,,,,,,,,,,,,,,,,,,,,199.58069727600014,199.58962262700152,199.79038016599952,199.79038016599952,199.79038016599952,201.4896132770009,201.4896132770009,201.47339229700083,,,,,,,,,,,,,,,,,,,,,,,,,,,,,,,,,,,,,,,,,,,,,,,,,,,,,,,,,,,,,,,715914,001,2024-12-01_16h59.58.555,Test,2024.2.1,59.94913256170913,2024-12-01 17h00.33.559589 +0100,
,,,,,,,,,,,,,,,,,,,,,,,,,,,,,,,,,,,,,,,,,,,,,,,,,,,,,,,,,,,,,,201.47351302300012,201.4896132770009,201.4896132770009,215.4757255580007,space,13.979383824000251,None,,,,,,,,,,,,,,,,,,,,,,,,,,,,,,,,,,,,,,,,,,,,,,,,,,,,,,,,715914,001,2024-12-01_16h59.58.555,Test,2024.2.1,59.94913256170913,2024-12-01 17h00.33.559589 +0100,
31,150,180,36,None,0,0,0,False,right,1.3393267700012075,None,,,,,,,,0,0,0,0,,,,,,,,,215.49927075000232,,,,,,,,,,,,,,,,,,,,,,,,,,,,,,,,,,,,,,215.4896323840003,215.49927075000232,216.50908252099907,217.49067040700174,217.49067040700174,217.49067040700174,218.84211073199913,right,1.3393267700012075,None,,,,,,,,,,,,,,,,,,,,,,,,,,,,,,,,,,,,,,,,,,,,,,715914,001,2024-12-01_16h59.58.555,Test,2024.2.1,59.94913256170913,2024-12-01 17h00.33.559589 +0100,
61,150,150,53,None,1,1,0,True,left,1.311323909998464,None,,,,,,,,0,1,1,1,,,,,,,,,218.876066533001,,,,,,,,,,,,,,,,,,,,,,,,,,,,,,,,,,,,,,218.84763844600093,218.876066533001,219.89199370999995,220.84100528800263,220.84100528800263,220.84100528800263,222.15939690300002,left,1.311323909998464,None,,,,,,,,,,,,,,,,,,,,,,,,,,,,,,,,,,,,,,,,,,,,,,715914,001,2024-12-01_16h59.58.555,Test,2024.2.1,59.94913256170913,2024-12-01 17h00.33.559589 +0100,
54,150,90,31,None,2,2,0,True,right,2.233850906999578,None,,,,,,,,0,2,2,2,,,,,,,,,222.17497164000088,,,,,,,,,,,,,,,,,,,,,,,,,,,,,,,,,,,,,,222.1651354050009,222.17497164000088,223.1749531179994,224.17491397100093,224.17491397100093,224.17491397100093,226.41124939300062,right,2.233850906999578,None,,,,,,,,,,,,,,,,,,,,,,,,,,,,,,,,,,,,,,,,,,,,,,715914,001,2024-12-01_16h59.58.555,Test,2024.2.1,59.94913256170913,2024-12-01 17h00.33.559589 +0100,
16,150,90,68,None,3,3,0,False,right,1.3510702950006817,None,,,,,,,,0,3,3,3,,,,,,,,,226.42414256100164,,,,,,,,,,,,,,,,,,,,,,,,,,,,,,,,,,,,,,226.41484317800132,226.42414256100164,227.42453918500178,228.42519342400192,228.42519342400192,228.42519342400192,229.79439485200055,right,1.3510702950006817,None,,,,,,,,,,,,,,,,,,,,,,,,,,,,,,,,,,,,,,,,,,,,,,715914,001,2024-12-01_16h59.58.555,Test,2024.2.1,59.94913256170913,2024-12-01 17h00.33.559589 +0100,
34,150,180,5,None,4,4,0,False,left,2.560611630000494,None,,,,,,,,0,4,4,4,,,,,,,,,229.808361247,,,,,,,,,,,,,,,,,,,,,,,,,,,,,,,,,,,,,,229.79880599100215,229.808361247,230.8086209009998,231.80938232300105,231.80938232300105,231.80938232300105,234.37657301000218,left,2.560611630000494,None,,,,,,,,,,,,,,,,,,,,,,,,,,,,,,,,,,,,,,,,,,,,,,715914,001,2024-12-01_16h59.58.555,Test,2024.2.1,59.94913256170913,2024-12-01 17h00.33.559589 +0100,
58,150,120,27,None,5,5,0,True,left,1.6844552319998911,None,,,,,,,,0,5,5,5,,,,,,,,,234.39223180500267,,,,,,,,,,,,,,,,,,,,,,,,,,,,,,,,,,,,,,234.3824656450015,234.39223180500267,235.39152760900106,236.37535940300222,236.37535940300222,236.37535940300222,238.07705166300002,left,1.6844552319998911,None,,,,,,,,,,,,,,,,,,,,,,,,,,,,,,,,,,,,,,,,,,,,,,715914,001,2024-12-01_16h59.58.555,Test,2024.2.1,59.94913256170913,2024-12-01 17h00.33.559589 +0100,
59,150,120,60,None,6,6,0,True,left,25.46160305599915,None,,,,,,,,0,6,6,6,,,,,,,,,238.09237236800254,,,,,,,,,,,,,,,,,,,,,,,,,,,,,,,,,,,,,,238.0842438180007,238.09237236800254,239.09225104100187,240.0925888180027,240.0925888180027,240.0925888180027,265.56251588500163,left,25.46160305599915,None,243.09247284999947,243.09247284999947,243.09247284999947,,,,,,,,,,,,,,,,,,,,,,,,,,,,,,,,,,,,,,,,,,,715914,001,2024-12-01_16h59.58.555,Test,2024.2.1,59.94913256170913,2024-12-01 17h00.33.559589 +0100,
9,150,30,63,None,7,7,0,False,right,1.3724297809967538,None,,,,,,,,0,7,7,7,,,,,,,,,265.57676066299973,,,,,,,,,,,,,,,,,,,,,,,,,,,,,,,,,,,,,,265.56606669100074,265.57676066299973,266.5770410410005,267.57758262100106,267.57758262100106,267.57758262100106,268.96200678600144,right,1.3724297809967538,None,,,,,,,,,,,,,,,,,,,,,,,,,,,,,,,,,,,,,,,,,,,,,,715914,001,2024-12-01_16h59.58.555,Test,2024.2.1,59.94913256170913,2024-12-01 17h00.33.559589 +0100,
56,150,120,3,None,8,8,0,True,left,2.0035996260012325,None,,,,,,,,0,8,8,8,,,,,,,,,268.9776061240009,,,,,,,,,,,,,,,,,,,,,,,,,,,,,,,,,,,,,,268.9682827350007,268.9776061240009,269.97894657399956,270.9609630650011,270.9609630650011,270.9609630650011,272.97967406700263,left,2.0035996260012325,None,,,,,,,,,,,,,,,,,,,,,,,,,,,,,,,,,,,,,,,,,,,,,,715914,001,2024-12-01_16h59.58.555,Test,2024.2.1,59.94913256170913,2024-12-01 17h00.33.559589 +0100,
37,150,0,54,None,9,9,0,True,left,2.6046270949991595,None,,,,,,,,0,9,9,9,,,,,,,,,272.9946081039998,,,,,,,,,,,,,,,,,,,,,,,,,,,,,,,,,,,,,,272.98545888599983,272.9946081039998,273.9945904369997,274.9949774270026,274.9949774270026,274.9949774270026,277.6130153949998,left,2.6046270949991595,None,,,,,,,,,,,,,,,,,,,,,,,,,,,,,,,,,,,,,,,,,,,,,,715914,001,2024-12-01_16h59.58.555,Test,2024.2.1,59.94913256170913,2024-12-01 17h00.33.559589 +0100,
12,150,60,12,None,10,10,0,False,right,4.6115220770007,None,,,,,,,,0,10,10,10,,,,,,,,,277.6278301700004,,,,,,,,,,,,,,,,,,,,,,,,,,,,,,,,,,,,,,277.618844036002,277.6278301700004,278.62785689000157,279.62744994400055,279.62744994400055,279.62744994400055,284.2469842700011,right,4.6115220770007,None,282.62857709799937,282.62857709799937,282.62857709799937,,,,,,,,,,,,,,,,,,,,,,,,,,,,,,,,,,,,,,,,,,,715914,001,2024-12-01_16h59.58.555,Test,2024.2.1,59.94913256170913,2024-12-01 17h00.33.559589 +0100,
51,150,90,20,None,11,11,0,True,left,14.126791700000467,None,,,,,,,,0,11,11,11,,,,,,,,,284.26844633600194,,,,,,,,,,,,,,,,,,,,,,,,,,,,,,,,,,,,,,284.260074697002,284.26844633600194,285.278699339,286.24501245400097,286.24501245400097,286.24501245400097,300.38073515600263,left,14.126791700000467,None,289.2450043610006,289.26183534899974,289.2450043610006,,,,,,,,,,,,,,,,,,,,,,,,,,,,,,,,,,,,,,,,,,,715914,001,2024-12-01_16h59.58.555,Test,2024.2.1,59.94913256170913,2024-12-01 17h00.33.559589 +0100,
50,150,60,7,None,12,12,0,True,right,1.2110344350003288,None,,,,,,,,0,12,12,12,,,,,,,,,300.3956522260014,,,,,,,,,,,,,,,,,,,,,,,,,,,,,,,,,,,,,,300.38621555600184,300.3956522260014,301.3964521420021,302.3796110380026,302.3796110380026,302.3796110380026,303.5983795259999,right,1.2110344350003288,None,,,,,,,,,,,,,,,,,,,,,,,,,,,,,,,,,,,,,,,,,,,,,,715914,001,2024-12-01_16h59.58.555,Test,2024.2.1,59.94913256170913,2024-12-01 17h00.33.559589 +0100,
7,150,30,37,None,13,13,0,False,left,3.752320468000107,None,,,,,,,,0,13,13,13,,,,,,,,,303.61540301700006,,,,,,,,,,,,,,,,,,,,,,,,,,,,,,,,,,,,,,303.6058955560002,303.61540301700006,304.6305895869991,305.6127167600025,305.6127167600025,305.6127167600025,309.381557642002,left,3.752320468000107,None,308.61385426700144,308.61385426700144,308.61385426700144,,,,,,,,,,,,,,,,,,,,,,,,,,,,,,,,,,,,,,,,,,,715914,001,2024-12-01_16h59.58.555,Test,2024.2.1,59.94913256170913,2024-12-01 17h00.33.559589 +0100,
26,150,150,50,None,14,14,0,False,left,1.5268708170005993,None,,,,,,,,0,14,14,14,,,,,,,,,309.3969706370008,,,,,,,,,,,,,,,,,,,,,,,,,,,,,,,,,,,,,,309.38752202600153,309.3969706370008,310.3971385149998,311.3812980160001,311.3812980160001,311.3812980160001,312.9152424970016,left,1.5268708170005993,None,,,,,,,,,,,,,,,,,,,,,,,,,,,,,,,,,,,,,,,,,,,,,,715914,001,2024-12-01_16h59.58.555,Test,2024.2.1,59.94913256170913,2024-12-01 17h00.33.559589 +0100,
13,150,60,16,None,15,15,0,False,right,1.7175458349993278,None,,,,,,,,0,15,15,15,,,,,,,,,312.93080024600204,,,,,,,,,,,,,,,,,,,,,,,,,,,,,,,,,,,,,,312.9205780270022,312.93080024600204,313.9307226919991,314.91389575300127,314.91389575300127,314.91389575300127,316.63373362900165,right,1.7175458349993278,None,,,,,,,,,,,,,,,,,,,,,,,,,,,,,,,,,,,,,,,,,,,,,,715914,001,2024-12-01_16h59.58.555,Test,2024.2.1,59.94913256170913,2024-12-01 17h00.33.559589 +0100,
25,150,120,33,None,16,16,0,False,left,4.028034539998771,None,,,,,,,,0,16,16,16,,,,,,,,,316.6481797680026,,,,,,,,,,,,,,,,,,,,,,,,,,,,,,,,,,,,,,316.63970682900253,316.6481797680026,317.64760857299916,318.6471905770013,318.6471905770013,318.6471905770013,322.6826562850001,left,4.028034539998771,None,321.64823395200074,321.64823395200074,321.64823395200074,,,,,,,,,,,,,,,,,,,,,,,,,,,,,,,,,,,,,,,,,,,715914,001,2024-12-01_16h59.58.555,Test,2024.2.1,59.94913256170913,2024-12-01 17h00.33.559589 +0100,
38,150,0,4,None,17,17,0,True,left,1.327341674001218,None,,,,,,,,0,17,17,17,,,,,,,,,322.6979338839992,,,,,,,,,,,,,,,,,,,,,,,,,,,,,,,,,,,,,,322.68802825700186,322.6979338839992,323.69801455999914,324.6822809820005,324.6822809820005,324.6822809820005,326.0164978979992,left,1.327341674001218,None,,,,,,,,,,,,,,,,,,,,,,,,,,,,,,,,,,,,,,,,,,,,,,715914,001,2024-12-01_16h59.58.555,Test,2024.2.1,59.94913256170913,2024-12-01 17h00.33.559589 +0100,
8,150,30,59,None,18,18,0,False,left,1.5088684869988356,None,,,,,,,,0,18,18,18,,,,,,,,,326.0323398950022,,,,,,,,,,,,,,,,,,,,,,,,,,,,,,,,,,,,,,326.02251057800095,326.0323398950022,327.03250754200053,328.0316222750007,328.0316222750007,328.0316222750007,329.5495445660017,left,1.5088684869988356,None,,,,,,,,,,,,,,,,,,,,,,,,,,,,,,,,,,,,,,,,,,,,,,715914,001,2024-12-01_16h59.58.555,Test,2024.2.1,59.94913256170913,2024-12-01 17h00.33.559589 +0100,
6,150,30,41,None,19,19,0,False,left,2.5672625619990868,None,,,,,,,,0,19,19,19,,,,,,,,,329.564488799002,,,,,,,,,,,,,,,,,,,,,,,,,,,,,,,,,,,,,,329.5550940360008,329.564488799002,330.56601561299976,331.54859093100094,331.54859093100094,331.54859093100094,334.11819027300226,left,2.5672625619990868,None,,,,,,,,,,,,,,,,,,,,,,,,,,,,,,,,,,,,,,,,,,,,,,715914,001,2024-12-01_16h59.58.555,Test,2024.2.1,59.94913256170913,2024-12-01 17h00.33.559589 +0100,
10,150,30,6,None,20,20,0,False,left,2.7153336459996353,None,,,,,,,,0,20,20,20,,,,,,,,,334.1328168530017,,,,,,,,,,,,,,,,,,,,,,,,,,,,,,,,,,,,,,334.1234518650017,334.1328168530017,335.1319502330007,336.1327411830025,336.1327411830025,336.1327411830025,338.8515911780014,left,2.7153336459996353,None,,,,,,,,,,,,,,,,,,,,,,,,,,,,,,,,,,,,,,,,,,,,,,715914,001,2024-12-01_16h59.58.555,Test,2024.2.1,59.94913256170913,2024-12-01 17h00.33.559589 +0100,
32,150,180,57,None,21,21,0,False,right,1.4342388269978983,None,,,,,,,,0,21,21,21,,,,,,,,,338.8666424389994,,,,,,,,,,,,,,,,,,,,,,,,,,,,,,,,,,,,,,338.85703074699995,338.8666424389994,339.8665362640022,340.8664377770001,340.8664377770001,340.8664377770001,342.31759453500126,right,1.4342388269978983,None,,,,,,,,,,,,,,,,,,,,,,,,,,,,,,,,,,,,,,,,,,,,,,715914,001,2024-12-01_16h59.58.555,Test,2024.2.1,59.94913256170913,2024-12-01 17h00.33.559589 +0100,
22,150,120,15,None,22,22,0,False,left,2.7083287949972146,None,,,,,,,,0,22,22,22,,,,,,,,,342.3325019340009,,,,,,,,,,,,,,,,,,,,,,,,,,,,,,,,,,,,,,342.32329311099966,342.3325019340009,343.3329698810012,344.33291604999977,344.33291604999977,344.33291604999977,347.05084464299944,left,2.7083287949972146,None,,,,,,,,,,,,,,,,,,,,,,,,,,,,,,,,,,,,,,,,,,,,,,715914,001,2024-12-01_16h59.58.555,Test,2024.2.1,59.94913256170913,2024-12-01 17h00.33.559589 +0100,
62,150,150,52,None,23,23,0,True,left,2.1007022359990515,None,,,,,,,,0,23,23,23,,,,,,,,,347.0660765450011,,,,,,,,,,,,,,,,,,,,,,,,,,,,,,,,,,,,,,347.0564081750017,347.0660765450011,348.0662215900011,349.050489649002,349.050489649002,349.050489649002,351.1683633390021,left,2.1007022359990515,None,,,,,,,,,,,,,,,,,,,,,,,,,,,,,,,,,,,,,,,,,,,,,,715914,001,2024-12-01_16h59.58.555,Test,2024.2.1,59.94913256170913,2024-12-01 17h00.33.559589 +0100,
28,150,150,10,None,24,24,0,False,right,2.717091504000564,None,,,,,,,,0,24,24,24,,,,,,,,,351.18462609100243,,,,,,,,,,,,,,,,,,,,,,,,,,,,,,,,,,,,,,351.1759338010015,351.18462609100243,352.18446683799993,353.18370878800124,353.18370878800124,353.18370878800124,355.90325203700195,right,2.717091504000564,None,,,,,,,,,,,,,,,,,,,,,,,,,,,,,,,,,,,,,,,,,,,,,,715914,001,2024-12-01_16h59.58.555,Test,2024.2.1,59.94913256170913,2024-12-01 17h00.33.559589 +0100,
3,150,0,32,None,25,25,0,False,left,1.567939012998977,None,,,,,,,,0,25,25,25,,,,,,,,,355.91821071199956,,,,,,,,,,,,,,,,,,,,,,,,,,,,,,,,,,,,,,355.9088613410022,355.91821071199956,356.93397619900134,357.9170269189999,357.9170269189999,357.9170269189999,359.48848184000235,left,1.567939012998977,None,,,,,,,,,,,,,,,,,,,,,,,,,,,,,,,,,,,,,,,,,,,,,,715914,001,2024-12-01_16h59.58.555,Test,2024.2.1,59.94913256170913,2024-12-01 17h00.33.559589 +0100,
18,150,90,11,None,26,26,0,False,left,2.4185464270012744,None,,,,,,,,0,26,26,26,,,,,,,,,359.5031257490009,,,,,,,,,,,,,,,,,,,,,,,,,,,,,,,,,,,,,,359.49387936600033,359.5031257490009,360.5333098420015,361.5005895360009,361.5005895360009,361.5005895360009,363.93641179300175,left,2.4185464270012744,None,,,,,,,,,,,,,,,,,,,,,,,,,,,,,,,,,,,,,,,,,,,,,,715914,001,2024-12-01_16h59.58.555,Test,2024.2.1,59.94913256170913,2024-12-01 17h00.33.559589 +0100,
69,150,180,19,None,27,27,0,True,left,2.0669600190012716,None,,,,,,,,0,27,27,27,,,,,,,,,363.95294823199947,,,,,,,,,,,,,,,,,,,,,,,,,,,,,,,,,,,,,,363.9436718399993,363.95294823199947,364.96779152900126,365.95112093600255,365.95112093600255,365.95112093600255,368.0206073549998,left,2.0669600190012716,None,,,,,,,,,,,,,,,,,,,,,,,,,,,,,,,,,,,,,,,,,,,,,,715914,001,2024-12-01_16h59.58.555,Test,2024.2.1,59.94913256170913,2024-12-01 17h00.33.559589 +0100,
49,150,60,30,None,28,28,0,True,left,1.3444016370012832,None,,,,,,,,0,28,28,28,,,,,,,,,368.0358172080014,,,,,,,,,,,,,,,,,,,,,,,,,,,,,,,,,,,,,,368.0266876120004,368.0358172080014,369.035689919001,370.03540690900263,370.03540690900263,370.03540690900263,371.38633972800017,left,1.3444016370012832,None,,,,,,,,,,,,,,,,,,,,,,,,,,,,,,,,,,,,,,,,,,,,,,715914,001,2024-12-01_16h59.58.555,Test,2024.2.1,59.94913256170913,2024-12-01 17h00.33.559589 +0100,
45,150,30,70,None,29,29,0,True,left,2.4250380780031264,None,,,,,,,,0,29,29,29,,,,,,,,,371.40112942199994,,,,,,,,,,,,,,,,,,,,,,,,,,,,,,,,,,,,,,371.39200739300213,371.40112942199994,372.401292939001,373.40182636900136,373.40182636900136,373.40182636900136,375.8363966249999,left,2.4250380780031264,None,,,,,,,,,,,,,,,,,,,,,,,,,,,,,,,,,,,,,,,,,,,,,,715914,001,2024-12-01_16h59.58.555,Test,2024.2.1,59.94913256170913,2024-12-01 17h00.33.559589 +0100,
5,150,0,14,None,30,30,0,False,right,3.4797756660009327,None,,,,,,,,0,30,30,30,,,,,,,,,375.85156981600085,,,,,,,,,,,,,,,,,,,,,,,,,,,,,,,,,,,,,,375.8420536420017,375.85156981600085,376.8516250140019,377.85200092500236,377.85200092500236,377.85200092500236,381.3372400490007,right,3.4797756660009327,None,380.8522339070005,380.8522339070005,380.8522339070005,,,,,,,,,,,,,,,,,,,,,,,,,,,,,,,,,,,,,,,,,,,715914,001,2024-12-01_16h59.58.555,Test,2024.2.1,59.94913256170913,2024-12-01 17h00.33.559589 +0100,
1,150,0,43,None,31,31,0,False,right,1.4724757740004861,None,,,,,,,,0,31,31,31,,,,,,,,,381.3523582050002,,,,,,,,,,,,,,,,,,,,,,,,,,,,,,,,,,,,,,381.3430016220009,381.3523582050002,382.35252994700204,383.3518565830018,383.3518565830018,383.3518565830018,384.8368904939998,right,1.4724757740004861,None,,,,,,,,,,,,,,,,,,,,,,,,,,,,,,,,,,,,,,,,,,,,,,715914,001,2024-12-01_16h59.58.555,Test,2024.2.1,59.94913256170913,2024-12-01 17h00.33.559589 +0100,
33,150,180,24,None,32,32,0,False,right,3.6281688009985373,None,,,,,,,,0,32,32,32,,,,,,,,,384.8523328880001,,,,,,,,,,,,,,,,,,,,,,,,,,,,,,,,,,,,,,384.84228811399953,384.8523328880001,385.8524651000007,386.83585588500137,386.83585588500137,386.83585588500137,390.4717278669996,right,3.6281688009985373,None,389.8358274980019,389.8358274980019,389.8358274980019,,,,,,,,,,,,,,,,,,,,,,,,,,,,,,,,,,,,,,,,,,,715914,001,2024-12-01_16h59.58.555,Test,2024.2.1,59.94913256170913,2024-12-01 17h00.33.559589 +0100,
41,150,30,29,None,33,33,0,True,left,2.367615568000474,None,,,,,,,,0,33,33,33,,,,,,,,,390.4883046319992,,,,,,,,,,,,,,,,,,,,,,,,,,,,,,,,,,,,,,390.47746751100203,390.4883046319992,391.5028281820014,392.48605007900187,392.48605007900187,392.48605007900187,394.85589068400077,left,2.367615568000474,None,,,,,,,,,,,,,,,,,,,,,,,,,,,,,,,,,,,,,,,,,,,,,,715914,001,2024-12-01_16h59.58.555,Test,2024.2.1,59.94913256170913,2024-12-01 17h00.33.559589 +0100,
35,150,180,49,None,34,34,0,False,right,3.5703869389981264,None,,,,,,,,0,34,34,34,,,,,,,,,394.87093882200134,,,,,,,,,,,,,,,,,,,,,,,,,,,,,,,,,,,,,,394.86202894099915,394.87093882200134,395.8855801960017,396.86978428899965,396.86978428899965,396.86978428899965,400.45483638000223,right,3.5703869389981264,None,399.87023925500034,399.87023925500034,399.87023925500034,,,,,,,,,,,,,,,,,,,,,,,,,,,,,,,,,,,,,,,,,,,715914,001,2024-12-01_16h59.58.555,Test,2024.2.1,59.94913256170913,2024-12-01 17h00.33.559589 +0100,
36,150,0,69,None,35,35,0,True,left,1.5013467149983626,None,,,,,,,,0,35,35,35,,,,,,,,,400.47076530699997,,,,,,,,,,,,,,,,,,,,,,,,,,,,,,,,,,,,,,400.46068216300046,400.47076530699997,401.4709028130019,402.4537800899998,402.4537800899998,402.4537800899998,403.97251494100055,left,1.5013467149983626,None,,,,,,,,,,,,,,,,,,,,,,,,,,,,,,,,,,,,,,,,,,,,,,715914,001,2024-12-01_16h59.58.555,Test,2024.2.1,59.94913256170913,2024-12-01 17h00.33.559589 +0100,
39,150,0,25,None,36,36,0,True,left,1.3913841360008519,None,,,,,,,,0,36,36,36,,,,,,,,,403.98725686599937,,,,,,,,,,,,,,,,,,,,,,,,,,,,,,,,,,,,,,403.9782352729999,403.98725686599937,404.9876204360007,405.9867231499993,405.9867231499993,405.9867231499993,407.3882103290016,left,1.3913841360008519,None,,,,,,,,,,,,,,,,,,,,,,,,,,,,,,,,,,,,,,,,,,,,,,715914,001,2024-12-01_16h59.58.555,Test,2024.2.1,59.94913256170913,2024-12-01 17h00.33.559589 +0100,
64,150,150,35,None,37,37,0,True,right,3.696920025999134,None,,,,,,,,0,37,37,37,,,,,,,,,407.404321926002,,,,,,,,,,,,,,,,,,,,,,,,,,,,,,,,,,,,,,407.39443891799965,407.404321926002,408.40417567700206,409.38841249300094,409.38841249300094,409.38841249300094,413.08990924700265,right,3.696920025999134,None,412.3881169790002,412.3881169790002,412.3881169790002,,,,,,,,,,,,,,,,,,,,,,,,,,,,,,,,,,,,,,,,,,,715914,001,2024-12-01_16h59.58.555,Test,2024.2.1,59.94913256170913,2024-12-01 17h00.33.559589 +0100,
47,150,60,47,None,38,38,0,True,left,2.3332487659972685,None,,,,,,,,0,38,38,38,,,,,,,,,413.1043777740015,,,,,,,,,,,,,,,,,,,,,,,,,,,,,,,,,,,,,,413.0950439240005,413.1043777740015,414.1041953720014,415.10539751599936,415.10539751599936,415.10539751599936,417.45525669700146,left,2.3332487659972685,None,,,,,,,,,,,,,,,,,,,,,,,,,,,,,,,,,,,,,,,,,,,,,,715914,001,2024-12-01_16h59.58.555,Test,2024.2.1,59.94913256170913,2024-12-01 17h00.33.559589 +0100,
21,150,120,17,None,39,39,0,False,left,1.8507518300029915,None,,,,,,,,0,39,39,39,,,,,,,,,417.4706490030003,,,,,,,,,,,,,,,,,,,,,,,,,,,,,,,,,,,,,,417.4617770440018,417.4706490030003,418.471141774,419.45472238500224,419.45472238500224,419.45472238500224,421.3078288950019,left,1.8507518300029915,None,,,,,,,,,,,,,,,,,,,,,,,,,,,,,,,,,,,,,,,,,,,,,,715914,001,2024-12-01_16h59.58.555,Test,2024.2.1,59.94913256170913,2024-12-01 17h00.33.559589 +0100,
48,150,60,67,None,40,40,0,True,left,3.110338402999332,None,,,,,,,,0,40,40,40,,,,,,,,,421.32184126300126,,,,,,,,,,,,,,,,,,,,,,,,,,,,,,,,,,,,,,421.3132471680001,421.32184126300126,422.32158488700225,423.3220597389991,423.3220597389991,423.3220597389991,426.4403229060008,left,3.110338402999332,None,426.3211784590021,426.3211784590021,426.3211784590021,,,,,,,,,,,,,,,,,,,,,,,,,,,,,,,,,,,,,,,,,,,715914,001,2024-12-01_16h59.58.555,Test,2024.2.1,59.94913256170913,2024-12-01 17h00.33.559589 +0100,
55,150,90,34,None,41,41,0,True,left,4.722894837999775,None,,,,,,,,0,41,41,41,,,,,,,,,426.4604227890013,,,,,,,,,,,,,,,,,,,,,,,,,,,,,,,,,,,,,,426.449793967,426.4604227890013,427.47182032899946,428.45512180100195,428.45512180100195,428.45512180100195,433.19076425000094,left,4.722894837999775,None,431.45587495899963,431.43974214099944,431.45587495899963,,,,,,,,,,,,,,,,,,,,,,,,,,,,,,,,,,,,,,,,,,,715914,001,2024-12-01_16h59.58.555,Test,2024.2.1,59.94913256170913,2024-12-01 17h00.33.559589 +0100,
68,150,180,1,None,42,42,0,True,left,4.219817487002729,None,,,,,,,,0,42,42,42,,,,,,,,,433.20817154500037,,,,,,,,,,,,,,,,,,,,,,,,,,,,,,,,,,,,,,433.1988275479998,433.20817154500037,434.22279444000014,435.20611010300127,435.20611010300127,435.20611010300127,439.4408738660022,left,4.219817487002729,None,438.2063152100018,438.2063152100018,438.2063152100018,,,,,,,,,,,,,,,,,,,,,,,,,,,,,,,,,,,,,,,,,,,715914,001,2024-12-01_16h59.58.555,Test,2024.2.1,59.94913256170913,2024-12-01 17h00.33.559589 +0100,
11,150,60,42,None,43,43,0,False,left,3.712161178002134,None,,,,,,,,0,43,43,43,,,,,,,,,439.45560043500154,,,,,,,,,,,,,,,,,,,,,,,,,,,,,,,,,,,,,,439.44634808200135,439.45560043500154,440.456524868001,441.4394333590026,441.4394333590026,441.4394333590026,445.1582562629992,left,3.712161178002134,None,444.440193360002,444.45665539900074,444.440193360002,,,,,,,,,,,,,,,,,,,,,,,,,,,,,,,,,,,,,,,,,,,715914,001,2024-12-01_16h59.58.555,Test,2024.2.1,59.94913256170913,2024-12-01 17h00.33.559589 +0100,
60,150,120,58,None,44,44,0,True,left,1.5354030059970682,None,,,,,,,,0,44,44,44,,,,,,,,,445.1752043609995,,,,,,,,,,,,,,,,,,,,,,,,,,,,,,,,,,,,,,445.1656220540026,445.1752043609995,446.1902347840005,447.1731589789997,447.1731589789997,447.1731589789997,448.7253303590005,left,1.5354030059970682,None,,,,,,,,,,,,,,,,,,,,,,,,,,,,,,,,,,,,,,,,,,,,,,715914,001,2024-12-01_16h59.58.555,Test,2024.2.1,59.94913256170913,2024-12-01 17h00.33.559589 +0100,
42,150,30,40,None,45,45,0,True,left,3.122934733000875,None,,,,,,,,0,45,45,45,,,,,,,,,448.74108174399953,,,,,,,,,,,,,,,,,,,,,,,,,,,,,,,,,,,,,,448.73142758500035,448.74108174399953,449.74078538600224,450.7407064040017,450.7407064040017,450.7407064040017,453.87505253100244,left,3.122934733000875,None,453.7404068220021,453.7404068220021,453.7404068220021,,,,,,,,,,,,,,,,,,,,,,,,,,,,,,,,,,,,,,,,,,,715914,001,2024-12-01_16h59.58.555,Test,2024.2.1,59.94913256170913,2024-12-01 17h00.33.559589 +0100,
20,150,90,46,None,46,46,0,False,left,1.9408591870014789,None,,,,,,,,0,46,46,46,,,,,,,,,453.89001694000035,,,,,,,,,,,,,,,,,,,,,,,,,,,,,,,,,,,,,,453.8808718069995,453.89001694000035,454.89028244899964,455.8903032880007,455.8903032880007,455.8903032880007,457.8423554610017,left,1.9408591870014789,None,,,,,,,,,,,,,,,,,,,,,,,,,,,,,,,,,,,,,,,,,,,,,,715914,001,2024-12-01_16h59.58.555,Test,2024.2.1,59.94913256170913,2024-12-01 17h00.33.559589 +0100,
65,150,150,45,None,47,47,0,True,left,1.5511225669979467,None,,,,,,,,0,47,47,47,,,,,,,,,457.85718310599987,,,,,,,,,,,,,,,,,,,,,,,,,,,,,,,,,,,,,,457.84785779400045,457.85718310599987,458.8573458489991,459.85729086799984,459.85729086799984,459.85729086799984,461.42481889800183,left,1.5511225669979467,None,,,,,,,,,,,,,,,,,,,,,,,,,,,,,,,,,,,,,,,,,,,,,,715914,001,2024-12-01_16h59.58.555,Test,2024.2.1,59.94913256170913,2024-12-01 17h00.33.559589 +0100,
15,150,60,61,None,48,48,0,False,right,5.575362747997133,None,,,,,,,,0,48,48,48,,,,,,,,,461.44092885600185,,,,,,,,,,,,,,,,,,,,,,,,,,,,,,,,,,,,,,461.42984064900156,461.44092885600185,462.44184467000014,463.42550821999976,463.42550821999976,463.42550821999976,469.0100979080016,right,5.575362747997133,None,466.42439485700015,466.42439485700015,466.42439485700015,,,,,,,,,,,,,,,,,,,,,,,,,,,,,,,,,,,,,,,,,,,715914,001,2024-12-01_16h59.58.555,Test,2024.2.1,59.94913256170913,2024-12-01 17h00.33.559589 +0100,
23,150,120,64,None,49,49,0,False,right,4.38496151399886,None,,,,,,,,0,49,49,49,,,,,,,,,469.02558040499935,,,,,,,,,,,,,,,,,,,,,,,,,,,,,,,,,,,,,,469.0163898009996,469.02558040499935,470.02603281900156,471.0264112570003,471.0264112570003,471.0264112570003,475.4263665079998,right,4.38496151399886,None,474.04192496700125,474.02552778899917,474.04192496700125,,,,,,,,,,,,,,,,,,,,,,,,,,,,,,,,,,,,,,,,,,,715914,001,2024-12-01_16h59.58.555,Test,2024.2.1,59.94913256170913,2024-12-01 17h00.33.559589 +0100,
17,150,90,44,None,50,50,0,False,left,2.557479841001623,None,,,,,,,,0,50,50,50,,,,,,,,,475.4419196960007,,,,,,,,,,,,,,,,,,,,,,,,,,,,,,,,,,,,,,475.43191786900206,475.4419196960007,476.4418352460016,477.44187727900135,477.44187727900135,477.44187727900135,480.0109953710016,left,2.557479841001623,None,,,,,,,,,,,,,,,,,,,,,,,,,,,,,,,,,,,,,,,,,,,,,,715914,001,2024-12-01_16h59.58.555,Test,2024.2.1,59.94913256170913,2024-12-01 17h00.33.559589 +0100,
40,150,0,22,None,51,51,0,True,left,2.585037247998116,None,,,,,,,,0,51,51,51,,,,,,,,,480.025742414,,,,,,,,,,,,,,,,,,,,,,,,,,,,,,,,,,,,,,480.01704299999983,480.025742414,481.02628206400186,482.02639235600145,482.02639235600145,482.02639235600145,484.6311995270007,left,2.585037247998116,None,,,,,,,,,,,,,,,,,,,,,,,,,,,,,,,,,,,,,,,,,,,,,,715914,001,2024-12-01_16h59.58.555,Test,2024.2.1,59.94913256170913,2024-12-01 17h00.33.559589 +0100,
2,150,0,55,None,52,52,0,False,left,5.285898182999517,None,,,,,,,,0,52,52,52,,,,,,,,,484.64615478999985,,,,,,,,,,,,,,,,,,,,,,,,,,,,,,,,,,,,,,484.63721725600044,484.64615478999985,485.6600380939999,486.6427000620024,486.6427000620024,486.6427000620024,491.9440548820021,left,5.285898182999517,None,489.64361995900254,489.64361995900254,489.64361995900254,,,,,,,,,,,,,,,,,,,,,,,,,,,,,,,,,,,,,,,,,,,715914,001,2024-12-01_16h59.58.555,Test,2024.2.1,59.94913256170913,2024-12-01 17h00.33.559589 +0100,
43,150,30,28,None,53,53,0,True,left,1.365416943001037,None,,,,,,,,0,53,53,53,,,,,,,,,491.95954886600157,,,,,,,,,,,,,,,,,,,,,,,,,,,,,,,,,,,,,,491.9496086500003,491.95954886600157,492.9595409850008,493.9434671480012,493.9434671480012,493.9434671480012,495.3121948320004,left,1.365416943001037,None,,,,,,,,,,,,,,,,,,,,,,,,,,,,,,,,,,,,,,,,,,,,,,715914,001,2024-12-01_16h59.58.555,Test,2024.2.1,59.94913256170913,2024-12-01 17h00.33.559589 +0100,
70,150,180,8,None,54,54,0,True,left,4.098753458998544,None,,,,,,,,0,54,54,54,,,,,,,,,495.32858858300096,,,,,,,,,,,,,,,,,,,,,,,,,,,,,,,,,,,,,,495.31966301600187,495.32858858300096,496.34328276900123,497.3266985670016,497.3266985670016,497.3266985670016,501.4296986720001,left,4.098753458998544,None,500.32754510700033,500.32754510700033,500.32754510700033,,,,,,,,,,,,,,,,,,,,,,,,,,,,,,,,,,,,,,,,,,,715914,001,2024-12-01_16h59.58.555,Test,2024.2.1,59.94913256170913,2024-12-01 17h00.33.559589 +0100,
4,150,0,65,None,55,55,0,False,left,2.335091373002797,None,,,,,,,,0,55,55,55,,,,,,,,,501.44410182200227,,,,,,,,,,,,,,,,,,,,,,,,,,,,,,,,,,,,,,501.4349696310019,501.44410182200227,502.4439682100019,503.44390905600085,503.44390905600085,503.44390905600085,505.7954068580002,left,2.335091373002797,None,,,,,,,,,,,,,,,,,,,,,,,,,,,,,,,,,,,,,,,,,,,,,,715914,001,2024-12-01_16h59.58.555,Test,2024.2.1,59.94913256170913,2024-12-01 17h00.33.559589 +0100,
14,150,60,26,None,56,56,0,False,right,3.165796927001793,None,,,,,,,,0,56,56,56,,,,,,,,,505.81038910999996,,,,,,,,,,,,,,,,,,,,,,,,,,,,,,,,,,,,,,505.80110505300036,505.81038910999996,506.81094896799914,507.8107481379993,507.8107481379993,507.8107481379993,510.98008328500146,right,3.165796927001793,None,510.81072217100154,510.7943305280023,510.81072217100154,,,,,,,,,,,,,,,,,,,,,,,,,,,,,,,,,,,,,,,,,,,715914,001,2024-12-01_16h59.58.555,Test,2024.2.1,59.94913256170913,2024-12-01 17h00.33.559589 +0100,
46,150,60,13,None,57,57,0,True,left,5.1439197290019365,None,,,,,,,,0,57,57,57,,,,,,,,,510.9942634860017,,,,,,,,,,,,,,,,,,,,,,,,,,,,,,,,,,,,,,510.98510787000123,510.9942634860017,511.99516034599947,512.9947456490008,512.9947456490008,512.9947456490008,518.1463860050026,left,5.1439197290019365,None,515.9950755259997,515.9950755259997,515.9950755259997,,,,,,,,,,,,,,,,,,,,,,,,,,,,,,,,,,,,,,,,,,,715914,001,2024-12-01_16h59.58.555,Test,2024.2.1,59.94913256170913,2024-12-01 17h00.33.559589 +0100,
27,150,150,9,None,58,58,0,False,right,1.6362597280021873,None,,,,,,,,0,58,58,58,,,,,,,,,518.1615284920008,,,,,,,,,,,,,,,,,,,,,,,,,,,,,,,,,,,,,,518.152622206002,518.1615284920008,519.1616410040006,520.1617314210016,520.1617314210016,520.1617314210016,521.8137237320007,right,1.6362597280021873,None,,,,,,,,,,,,,,,,,,,,,,,,,,,,,,,,,,,,,,,,,,,,,,715914,001,2024-12-01_16h59.58.555,Test,2024.2.1,59.94913256170913,2024-12-01 17h00.33.559589 +0100,
53,150,90,23,None,59,59,0,True,left,2.2242701110008056,None,,,,,,,,0,59,59,59,,,,,,,,,521.8290045300018,,,,,,,,,,,,,,,,,,,,,,,,,,,,,,,,,,,,,,521.8193736190005,521.8290045300018,522.8285108750024,523.8284953780021,523.8284953780021,523.8284953780021,526.0632253750009,left,2.2242701110008056,None,,,,,,,,,,,,,,,,,,,,,,,,,,,,,,,,,,,,,,,,,,,,,,715914,001,2024-12-01_16h59.58.555,Test,2024.2.1,59.94913256170913,2024-12-01 17h00.33.559589 +0100,
52,150,90,48,None,60,60,0,True,left,2.834721321996767,None,,,,,,,,0,60,60,60,,,,,,,,,526.0802246860003,,,,,,,,,,,,,,,,,,,,,,,,,,,,,,,,,,,,,,526.0708638979995,526.0802246860003,527.095582815,528.0621232449994,528.0621232449994,528.0621232449994,530.9151566239998,left,2.834721321996767,None,,,,,,,,,,,,,,,,,,,,,,,,,,,,,,,,,,,,,,,,,,,,,,715914,001,2024-12-01_16h59.58.555,Test,2024.2.1,59.94913256170913,2024-12-01 17h00.33.559589 +0100,
67,150,180,56,None,61,61,0,True,left,1.318347096999787,None,,,,,,,,0,61,61,61,,,,,,,,,530.9446896160007,,,,,,,,,,,,,,,,,,,,,,,,,,,,,,,,,,,,,,530.9215568780019,530.9446896160007,531.9460381490026,532.9295888209999,532.9295888209999,532.9295888209999,534.2509917060015,left,1.318347096999787,None,,,,,,,,,,,,,,,,,,,,,,,,,,,,,,,,,,,,,,,,,,,,,,715914,001,2024-12-01_16h59.58.555,Test,2024.2.1,59.94913256170913,2024-12-01 17h00.33.559589 +0100,
29,150,150,66,None,62,62,0,False,left,1.2336633630002325,None,,,,,,,,0,62,62,62,,,,,,,,,534.2660480710001,,,,,,,,,,,,,,,,,,,,,,,,,,,,,,,,,,,,,,534.2573152059995,534.2660480710001,535.2796970260024,536.2626536759999,536.2626536759999,536.2626536759999,537.4986577349991,left,1.2336633630002325,None,,,,,,,,,,,,,,,,,,,,,,,,,,,,,,,,,,,,,,,,,,,,,,715914,001,2024-12-01_16h59.58.555,Test,2024.2.1,59.94913256170913,2024-12-01 17h00.33.559589 +0100,
57,150,120,38,None,63,63,0,True,left,2.567523023000831,None,,,,,,,,0,63,63,63,,,,,,,,,537.5141166540016,,,,,,,,,,,,,,,,,,,,,,,,,,,,,,,,,,,,,,537.5044138619996,537.5141166540016,538.5294842850017,539.5132361770011,539.5132361770011,539.5132361770011,542.0984917240021,left,2.567523023000831,None,,,,,,,,,,,,,,,,,,,,,,,,,,,,,,,,,,,,,,,,,,,,,,715914,001,2024-12-01_16h59.58.555,Test,2024.2.1,59.94913256170913,2024-12-01 17h00.33.559589 +0100,
44,150,30,2,None,64,64,0,True,left,1.3519269409989647,None,,,,,,,,0,64,64,64,,,,,,,,,542.1136306209992,,,,,,,,,,,,,,,,,,,,,,,,,,,,,,,,,,,,,,542.1044883920003,542.1136306209992,543.1137124150009,544.1143433530015,544.1143433530015,544.1143433530015,545.4820083820014,left,1.3519269409989647,None,,,,,,,,,,,,,,,,,,,,,,,,,,,,,,,,,,,,,,,,,,,,,,715914,001,2024-12-01_16h59.58.555,Test,2024.2.1,59.94913256170913,2024-12-01 17h00.33.559589 +0100,
19,150,90,21,None,65,65,0,False,right,1.8817439589984133,None,,,,,,,,0,65,65,65,,,,,,,,,545.4970972680021,,,,,,,,,,,,,,,,,,,,,,,,,,,,,,,,,,,,,,545.4875946780012,545.4970972680021,546.4968811809995,547.4970935540005,547.4970935540005,547.4970935540005,549.382959609,right,1.8817439589984133,None,,,,,,,,,,,,,,,,,,,,,,,,,,,,,,,,,,,,,,,,,,,,,,715914,001,2024-12-01_16h59.58.555,Test,2024.2.1,59.94913256170913,2024-12-01 17h00.33.559589 +0100,
30,150,150,51,None,66,66,0,False,left,2.605364834998909,None,,,,,,,,0,66,66,66,,,,,,,,,549.3990345210004,,,,,,,,,,,,,,,,,,,,,,,,,,,,,,,,,,,,,,549.3905589980022,549.3990345210004,550.4144406740015,551.3971717140012,551.3971717140012,551.3971717140012,554.0162411790006,left,2.605364834998909,None,,,,,,,,,,,,,,,,,,,,,,,,,,,,,,,,,,,,,,,,,,,,,,715914,001,2024-12-01_16h59.58.555,Test,2024.2.1,59.94913256170913,2024-12-01 17h00.33.559589 +0100,
66,150,180,18,None,67,67,0,True,left,4.063287687000411,None,,,,,,,,0,67,67,67,,,,,,,,,554.0319493320021,,,,,,,,,,,,,,,,,,,,,,,,,,,,,,,,,,,,,,554.0224500210024,554.0319493320021,555.0479249849996,556.0320121930017,556.0320121930017,556.0320121930017,560.1023302890026,left,4.063287687000411,None,559.0476388679999,559.0311853429994,559.0476388679999,,,,,,,,,,,,,,,,,,,,,,,,,,,,,,,,,,,,,,,,,,,715914,001,2024-12-01_16h59.58.555,Test,2024.2.1,59.94913256170913,2024-12-01 17h00.33.559589 +0100,
63,150,150,62,None,68,68,0,True,left,1.789090981001209,None,,,,,,,,0,68,68,68,,,,,,,,,560.1179204300024,,,,,,,,,,,,,,,,,,,,,,,,,,,,,,,,,,,,,,560.1090878940013,560.1179204300024,561.1316302689993,562.1144455210015,562.1144455210015,562.1144455210015,563.9158828750005,left,1.789090981001209,None,,,,,,,,,,,,,,,,,,,,,,,,,,,,,,,,,,,,,,,,,,,,,,715914,001,2024-12-01_16h59.58.555,Test,2024.2.1,59.94913256170913,2024-12-01 17h00.33.559589 +0100,
24,150,120,39,None,69,69,0,False,left,3.9738845950014365,None,,,,,,,,0,69,69,69,,,,,,,,,563.9312789979995,,,,,,,,,,,,,,,,,,,,,,,,,,,,,,,,,,,,,,563.9218525010001,563.9312789979995,564.9313085760004,565.932295982002,565.932295982002,565.932295982002,569.9164891950022,left,3.9738845950014365,None,568.9315906170013,568.9149808309994,568.9315906170013,,,,,,,,,,,,,,,,,,,,,,,,,,,,,,,,,,,,,,,,,,,715914,001,2024-12-01_16h59.58.555,Test,2024.2.1,59.94913256170913,2024-12-01 17h00.33.559589 +0100,
,,,,,,,,,,,,,,,,,,,,,,,,,,,,,,,,,,,,,,,,,,,,,,,,,,,,,,,,,,,,,,,,,,,,,,,,,,,,,,,,,,569.916654339002,569.9321594220019,569.9321594220019,580.469071071002,space,10.53423785799896,None,,,,,,,,,,,,,,,,,,,,,,,,,,,,,,,,,,,,715914,001,2024-12-01_16h59.58.555,Test,2024.2.1,59.94913256170913,2024-12-01 17h00.33.559589 +0100,
8,150,30,59,None,0,0,0,,,,,,,,,,,,,,,,0,0,0,7,,,,,580.5123268200005,,,,,,,,,,,,,,,,,,,,,,,,,,,,,,,,,,,,,,,,,,,,,,,,,,,,,,,,,,580.4839301860011,580.5123268200005,580.6827634710025,580.6827634710025,580.7163127660024,582.3857068710022,582.3857068710022,582.3678281970024,,,,,,,,,,,,,,,,,,,,,,,,,,,,715914,001,2024-12-01_16h59.58.555,Test,2024.2.1,59.94913256170913,2024-12-01 17h00.33.559589 +0100,
35,150,180,49,None,1,1,0,,,,,,,,,,,,,,,,0,1,1,34,,,,,582.3857068710022,,,,,,,,,,,,,,,,,,,,,,,,,,,,,,,,,,,,,,,,,,,,,,,,,,,,,,,,,,582.3774024710001,582.3857068710022,582.5825748650022,582.5825748650022,582.5993659060005,584.2823149060023,584.2823149060023,584.2667941740001,,,,,,,,,,,,,,,,,,,,,,,,,,,,715914,001,2024-12-01_16h59.58.555,Test,2024.2.1,59.94913256170913,2024-12-01 17h00.33.559589 +0100,
19,150,90,21,None,2,2,0,,,,,,,,,,,,,,,,0,2,2,18,,,,,584.2823149060023,,,,,,,,,,,,,,,,,,,,,,,,,,,,,,,,,,,,,,,,,,,,,,,,,,,,,,,,,,584.2736732880003,584.2823149060023,584.4830714230011,584.4830714230011,584.4830714230011,586.1830105209992,586.1830105209992,586.1667652479991,,,,,,,,,,,,,,,,,,,,,,,,,,,,715914,001,2024-12-01_16h59.58.555,Test,2024.2.1,59.94913256170913,2024-12-01 17h00.33.559589 +0100,
28,150,150,10,None,3,3,0,,,,,,,,,,,,,,,,0,3,3,27,,,,,586.1830105209992,,,,,,,,,,,,,,,,,,,,,,,,,,,,,,,,,,,,,,,,,,,,,,,,,,,,,,,,,,586.1725963829995,586.1830105209992,586.3826812139996,586.3826812139996,586.3826812139996,588.0863923610013,588.0863923610013,588.0678846970004,,,,,,,,,,,,,,,,,,,,,,,,,,,,715914,001,2024-12-01_16h59.58.555,Test,2024.2.1,59.94913256170913,2024-12-01 17h00.33.559589 +0100,
15,150,60,61,None,4,4,0,,,,,,,,,,,,,,,,0,4,4,14,,,,,588.0863923610013,,,,,,,,,,,,,,,,,,,,,,,,,,,,,,,,,,,,,,,,,,,,,,,,,,,,,,,,,,588.0779828539999,588.0863923610013,588.2839376930024,588.2839376930024,588.2998250170021,589.9869680970005,589.9869680970005,589.9683159230008,,,,,,,,,,,,,,,,,,,,,,,,,,,,715914,001,2024-12-01_16h59.58.555,Test,2024.2.1,59.94913256170913,2024-12-01 17h00.33.559589 +0100,
32,150,180,57,None,5,5,0,,,,,,,,,,,,,,,,0,5,5,31,,,,,589.9869680970005,,,,,,,,,,,,,,,,,,,,,,,,,,,,,,,,,,,,,,,,,,,,,,,,,,,,,,,,,,589.9782074060022,589.9869680970005,590.1840033480003,590.1840033480003,590.2009322580016,591.8830678070008,591.8830678070008,591.8674921300008,,,,,,,,,,,,,,,,,,,,,,,,,,,,715914,001,2024-12-01_16h59.58.555,Test,2024.2.1,59.94913256170913,2024-12-01 17h00.33.559589 +0100,
20,150,90,46,None,6,6,0,,,,,,,,,,,,,,,,0,6,6,19,,,,,591.8830678070008,,,,,,,,,,,,,,,,,,,,,,,,,,,,,,,,,,,,,,,,,,,,,,,,,,,,,,,,,,591.8742996799992,591.8830678070008,592.0842126380012,592.0842126380012,592.0842126380012,593.7829608760003,593.7829608760003,593.7677937580011,,,,,,,,,,,,,,,,,,,,,,,,,,,,715914,001,2024-12-01_16h59.58.555,Test,2024.2.1,59.94913256170913,2024-12-01 17h00.33.559589 +0100,
2,150,0,55,None,7,7,0,,,,,,,,,,,,,,,,0,7,7,1,,,,,593.7829608760003,,,,,,,,,,,,,,,,,,,,,,,,,,,,,,,,,,,,,,,,,,,,,,,,,,,,,,,,,,593.7733010240008,593.7829608760003,593.9837748280006,593.9837748280006,593.9837748280006,595.6833581179999,595.6833581179999,595.6674623170002,,,,,,,,,,,,,,,,,,,,,,,,,,,,715914,001,2024-12-01_16h59.58.555,Test,2024.2.1,59.94913256170913,2024-12-01 17h00.33.559589 +0100,
23,150,120,64,None,8,8,0,,,,,,,,,,,,,,,,0,8,8,22,,,,,595.6833581179999,,,,,,,,,,,,,,,,,,,,,,,,,,,,,,,,,,,,,,,,,,,,,,,,,,,,,,,,,,595.6730994710015,595.6833581179999,595.8846906569997,595.8846906569997,595.8846906569997,597.5831737610024,597.5831737610024,597.5678319780018,,,,,,,,,,,,,,,,,,,,,,,,,,,,715914,001,2024-12-01_16h59.58.555,Test,2024.2.1,59.94913256170913,2024-12-01 17h00.33.559589 +0100,
7,150,30,37,None,9,9,0,,,,,,,,,,,,,,,,0,9,9,6,,,,,597.5831737610024,,,,,,,,,,,,,,,,,,,,,,,,,,,,,,,,,,,,,,,,,,,,,,,,,,,,,,,,,,597.5745058450011,597.5831737610024,597.7843785680016,597.7843785680016,597.7843785680016,599.4851634549996,599.4851634549996,599.4685323129997,,,,,,,,,,,,,,,,,,,,,,,,,,,,715914,001,2024-12-01_16h59.58.555,Test,2024.2.1,59.94913256170913,2024-12-01 17h00.33.559589 +0100,
24,150,120,39,None,10,10,0,,,,,,,,,,,,,,,,0,10,10,23,,,,,599.4851634549996,,,,,,,,,,,,,,,,,,,,,,,,,,,,,,,,,,,,,,,,,,,,,,,,,,,,,,,,,,599.4763921260019,599.4851634549996,599.6849787370011,599.6849787370011,599.7002900200023,601.3869072840025,601.3869072840025,601.3691155960005,,,,,,,,,,,,,,,,,,,,,,,,,,,,715914,001,2024-12-01_16h59.58.555,Test,2024.2.1,59.94913256170913,2024-12-01 17h00.33.559589 +0100,
6,150,30,41,None,11,11,0,,,,,,,,,,,,,,,,0,11,11,5,,,,,601.3869072840025,,,,,,,,,,,,,,,,,,,,,,,,,,,,,,,,,,,,,,,,,,,,,,,,,,,,,,,,,,601.3788756180002,601.3869072840025,601.5839342530016,601.5839342530016,601.6004117990014,603.283389188,603.283389188,603.2684923980014,,,,,,,,,,,,,,,,,,,,,,,,,,,,715914,001,2024-12-01_16h59.58.555,Test,2024.2.1,59.94913256170913,2024-12-01 17h00.33.559589 +0100,
25,150,120,33,None,12,12,0,,,,,,,,,,,,,,,,0,12,12,24,,,,,603.283389188,,,,,,,,,,,,,,,,,,,,,,,,,,,,,,,,,,,,,,,,,,,,,,,,,,,,,,,,,,603.2748394100017,603.283389188,603.4838789080022,603.4838789080022,603.4838789080022,605.1835820570013,605.1835820570013,605.168081142001,,,,,,,,,,,,,,,,,,,,,,,,,,,,715914,001,2024-12-01_16h59.58.555,Test,2024.2.1,59.94913256170913,2024-12-01 17h00.33.559589 +0100,
11,150,60,42,None,13,13,0,,,,,,,,,,,,,,,,0,13,13,10,,,,,605.1835820570013,,,,,,,,,,,,,,,,,,,,,,,,,,,,,,,,,,,,,,,,,,,,,,,,,,,,,,,,,,605.1735473480003,605.1835820570013,605.3840751759999,605.3840751759999,605.3840751759999,607.0842707039992,607.0842707039992,607.0681364030024,,,,,,,,,,,,,,,,,,,,,,,,,,,,715914,001,2024-12-01_16h59.58.555,Test,2024.2.1,59.94913256170913,2024-12-01 17h00.33.559589 +0100,
26,150,150,50,None,14,14,0,,,,,,,,,,,,,,,,0,14,14,25,,,,,607.0842707039992,,,,,,,,,,,,,,,,,,,,,,,,,,,,,,,,,,,,,,,,,,,,,,,,,,,,,,,,,,607.0736171030003,607.0842707039992,607.2846711320017,607.2846711320017,607.2846711320017,608.9860625290021,608.9860625290021,608.9688973820012,,,,,,,,,,,,,,,,,,,,,,,,,,,,715914,001,2024-12-01_16h59.58.555,Test,2024.2.1,59.94913256170913,2024-12-01 17h00.33.559589 +0100,
18,150,90,11,None,15,15,0,,,,,,,,,,,,,,,,0,15,15,17,,,,,608.9860625290021,,,,,,,,,,,,,,,,,,,,,,,,,,,,,,,,,,,,,,,,,,,,,,,,,,,,,,,,,,608.9771902730026,608.9860625290021,609.1839159990013,609.1839159990013,609.2007537919999,,,610.8693847169998,,,,,,,,,,,,,,,,,,,,,,,,,,,,715914,001,2024-12-01_16h59.58.555,Test,2024.2.1,59.94913256170913,2024-12-01 17h00.33.559589 +0100,
22,150,120,15,None,16,16,0,,,,,,,,,,,,,,,,0,16,16,21,,,,,610.8895242489998,,,,,,,,,,,,,,,,,,,,,,,,,,,,,,,,,,,,,,,,,,,,,,,,,,,,,,,,,,610.882114709002,610.8895242489998,611.0845607119991,611.0845607119991,611.1011756389998,612.783967927,612.783967927,612.7685644360026,,,,,,,,,,,,,,,,,,,,,,,,,,,,715914,001,2024-12-01_16h59.58.555,Test,2024.2.1,59.94913256170913,2024-12-01 17h00.33.559589 +0100,
21,150,120,17,None,17,17,0,,,,,,,,,,,,,,,,0,17,17,20,,,,,612.783967927,,,,,,,,,,,,,,,,,,,,,,,,,,,,,,,,,,,,,,,,,,,,,,,,,,,,,,,,,,612.7743117540012,612.783967927,612.9859414279999,612.9859414279999,612.9859414279999,,,614.6847725350017,,,,,,,,,,,,,,,,,,,,,,,,,,,,715914,001,2024-12-01_16h59.58.555,Test,2024.2.1,59.94913256170913,2024-12-01 17h00.33.559589 +0100,
5,150,0,14,None,18,18,0,,,,,,,,,,,,,,,,0,18,18,4,,,,,614.7013072080008,,,,,,,,,,,,,,,,,,,,,,,,,,,,,,,,,,,,,,,,,,,,,,,,,,,,,,,,,,614.6912599000025,614.7013072080008,614.8849743230021,614.8849743230021,614.9014116380022,616.5843275700026,616.5843275700026,616.5690916960011,,,,,,,,,,,,,,,,,,,,,,,,,,,,715914,001,2024-12-01_16h59.58.555,Test,2024.2.1,59.94913256170913,2024-12-01 17h00.33.559589 +0100,
33,150,180,24,None,19,19,0,,,,,,,,,,,,,,,,0,19,19,32,,,,,616.5843275700026,,,,,,,,,,,,,,,,,,,,,,,,,,,,,,,,,,,,,,,,,,,,,,,,,,,,,,,,,,616.5749310210012,616.5843275700026,616.7846247540001,616.7846247540001,616.7846247540001,618.4846595180024,618.4846595180024,618.4686857090019,,,,,,,,,,,,,,,,,,,,,,,,,,,,715914,001,2024-12-01_16h59.58.555,Test,2024.2.1,59.94913256170913,2024-12-01 17h00.33.559589 +0100,
14,150,60,26,None,20,20,0,,,,,,,,,,,,,,,,0,20,20,13,,,,,618.4846595180024,,,,,,,,,,,,,,,,,,,,,,,,,,,,,,,,,,,,,,,,,,,,,,,,,,,,,,,,,,618.4740888250017,618.4846595180024,618.667890222001,618.667890222001,618.6846183270027,620.3755152190024,620.3755152190024,620.3520885940015,,,,,,,,,,,,,,,,,,,,,,,,,,,,715914,001,2024-12-01_16h59.58.555,Test,2024.2.1,59.94913256170913,2024-12-01 17h00.33.559589 +0100,
9,150,30,63,None,21,21,0,,,,,,,,,,,,,,,,0,21,21,8,,,,,620.3755152190024,,,,,,,,,,,,,,,,,,,,,,,,,,,,,,,,,,,,,,,,,,,,,,,,,,,,,,,,,,620.3687098020018,620.3755152190024,620.5684722309998,620.5684722309998,620.5851187379994,622.2725420230017,622.2725420230017,622.252182911001,,,,,,,,,,,,,,,,,,,,,,,,,,,,715914,001,2024-12-01_16h59.58.555,Test,2024.2.1,59.94913256170913,2024-12-01 17h00.33.559589 +0100,
27,150,150,9,None,22,22,0,,,,,,,,,,,,,,,,0,22,22,26,,,,,622.2725420230017,,,,,,,,,,,,,,,,,,,,,,,,,,,,,,,,,,,,,,,,,,,,,,,,,,,,,,,,,,622.2659857450017,622.2725420230017,622.4691092540015,622.4691092540015,622.4853552610002,624.1682078670019,624.1682078670019,624.1520929760009,,,,,,,,,,,,,,,,,,,,,,,,,,,,715914,001,2024-12-01_16h59.58.555,Test,2024.2.1,59.94913256170913,2024-12-01 17h00.33.559589 +0100,
29,150,150,66,None,23,23,0,,,,,,,,,,,,,,,,0,23,23,28,,,,,624.1682078670019,,,,,,,,,,,,,,,,,,,,,,,,,,,,,,,,,,,,,,,,,,,,,,,,,,,,,,,,,,624.1596800810003,624.1682078670019,624.3690278319991,624.3690278319991,624.3690278319991,626.0684579930021,626.0684579930021,626.0523122830018,,,,,,,,,,,,,,,,,,,,,,,,,,,,715914,001,2024-12-01_16h59.58.555,Test,2024.2.1,59.94913256170913,2024-12-01 17h00.33.559589 +0100,
10,150,30,6,None,24,24,0,,,,,,,,,,,,,,,,0,24,24,9,,,,,626.0684579930021,,,,,,,,,,,,,,,,,,,,,,,,,,,,,,,,,,,,,,,,,,,,,,,,,,,,,,,,,,626.0571976160027,626.0684579930021,626.2683840550017,626.2683840550017,626.2683840550017,627.9687380760006,627.9687380760006,627.9527790050015,,,,,,,,,,,,,,,,,,,,,,,,,,,,715914,001,2024-12-01_16h59.58.555,Test,2024.2.1,59.94913256170913,2024-12-01 17h00.33.559589 +0100,
17,150,90,44,None,25,25,0,,,,,,,,,,,,,,,,0,25,25,16,,,,,627.9687380760006,,,,,,,,,,,,,,,,,,,,,,,,,,,,,,,,,,,,,,,,,,,,,,,,,,,,,,,,,,627.9586182470011,627.9687380760006,628.1689228739997,628.1689228739997,628.1689228739997,629.870209175002,629.870209175002,629.8531593680018,,,,,,,,,,,,,,,,,,,,,,,,,,,,715914,001,2024-12-01_16h59.58.555,Test,2024.2.1,59.94913256170913,2024-12-01 17h00.33.559589 +0100,
34,150,180,5,None,26,26,0,,,,,,,,,,,,,,,,0,26,26,33,,,,,629.870209175002,,,,,,,,,,,,,,,,,,,,,,,,,,,,,,,,,,,,,,,,,,,,,,,,,,,,,,,,,,629.8620770730013,629.870209175002,630.0691120859992,630.0691120859992,630.0691120859992,631.7688325430026,631.7688325430026,631.7528902420017,,,,,,,,,,,,,,,,,,,,,,,,,,,,715914,001,2024-12-01_16h59.58.555,Test,2024.2.1,59.94913256170913,2024-12-01 17h00.33.559589 +0100,
3,150,0,32,None,27,27,0,,,,,,,,,,,,,,,,0,27,27,2,,,,,631.7688325430026,,,,,,,,,,,,,,,,,,,,,,,,,,,,,,,,,,,,,,,,,,,,,,,,,,,,,,,,,,631.7591918030012,631.7688325430026,631.969071710002,631.969071710002,631.969071710002,633.6694597300011,633.6694597300011,633.6540666250003,,,,,,,,,,,,,,,,,,,,,,,,,,,,715914,001,2024-12-01_16h59.58.555,Test,2024.2.1,59.94913256170913,2024-12-01 17h00.33.559589 +0100,
13,150,60,16,None,28,28,0,,,,,,,,,,,,,,,,0,28,28,12,,,,,633.6694597300011,,,,,,,,,,,,,,,,,,,,,,,,,,,,,,,,,,,,,,,,,,,,,,,,,,,,,,,,,,633.6603178360019,633.6694597300011,633.8696586180013,633.8696586180013,633.8696586180013,635.5688570919992,635.5688570919992,635.5531406800001,,,,,,,,,,,,,,,,,,,,,,,,,,,,715914,001,2024-12-01_16h59.58.555,Test,2024.2.1,59.94913256170913,2024-12-01 17h00.33.559589 +0100,
31,150,180,36,None,29,29,0,,,,,,,,,,,,,,,,0,29,29,30,,,,,635.5688570919992,,,,,,,,,,,,,,,,,,,,,,,,,,,,,,,,,,,,,,,,,,,,,,,,,,,,,,,,,,635.5583341550009,635.5688570919992,635.7693897050012,635.7693897050012,635.7693897050012,637.4688248230013,637.4688248230013,637.4535191159994,,,,,,,,,,,,,,,,,,,,,,,,,,,,715914,001,2024-12-01_16h59.58.555,Test,2024.2.1,59.94913256170913,2024-12-01 17h00.33.559589 +0100,
30,150,150,51,None,30,30,0,,,,,,,,,,,,,,,,0,30,30,29,,,,,637.4688248230013,,,,,,,,,,,,,,,,,,,,,,,,,,,,,,,,,,,,,,,,,,,,,,,,,,,,,,,,,,637.4605268240011,637.4688248230013,637.6698286819992,637.6698286819992,637.6698286819992,639.3696182480016,639.3696182480016,639.3538638829996,,,,,,,,,,,,,,,,,,,,,,,,,,,,715914,001,2024-12-01_16h59.58.555,Test,2024.2.1,59.94913256170913,2024-12-01 17h00.33.559589 +0100,
4,150,0,65,None,31,31,0,,,,,,,,,,,,,,,,0,31,31,3,,,,,639.3696182480016,,,,,,,,,,,,,,,,,,,,,,,,,,,,,,,,,,,,,,,,,,,,,,,,,,,,,,,,,,639.3593718360025,639.3696182480016,639.569654846,639.569654846,639.569654846,641.2697919940001,641.2697919940001,641.2543974670007,,,,,,,,,,,,,,,,,,,,,,,,,,,,715914,001,2024-12-01_16h59.58.555,Test,2024.2.1,59.94913256170913,2024-12-01 17h00.33.559589 +0100,
12,150,60,12,None,32,32,0,,,,,,,,,,,,,,,,0,32,32,11,,,,,641.2697919940001,,,,,,,,,,,,,,,,,,,,,,,,,,,,,,,,,,,,,,,,,,,,,,,,,,,,,,,,,,641.2603155590004,641.2697919940001,641.4695302159998,641.4695302159998,641.4695302159998,643.1742540640007,643.1742540640007,643.1545033430011,,,,,,,,,,,,,,,,,,,,,,,,,,,,715914,001,2024-12-01_16h59.58.555,Test,2024.2.1,59.94913256170913,2024-12-01 17h00.33.559589 +0100,
1,150,0,43,None,33,33,0,,,,,,,,,,,,,,,,0,33,33,0,,,,,643.1742540640007,,,,,,,,,,,,,,,,,,,,,,,,,,,,,,,,,,,,,,,,,,,,,,,,,,,,,,,,,,643.1676988799991,643.1742540640007,643.3701007390009,643.3701007390009,643.3870591220002,645.0696825240011,645.0696825240011,645.0539889930005,,,,,,,,,,,,,,,,,,,,,,,,,,,,715914,001,2024-12-01_16h59.58.555,Test,2024.2.1,59.94913256170913,2024-12-01 17h00.33.559589 +0100,
16,150,90,68,None,34,34,0,,,,,,,,,,,,,,,,0,34,34,15,,,,,645.0696825240011,,,,,,,,,,,,,,,,,,,,,,,,,,,,,,,,,,,,,,,,,,,,,,,,,,,,,,,,,,645.0595959910024,645.0696825240011,645.2694173820018,645.2694173820018,645.2694173820018,646.9698121010006,646.9698121010006,646.9534956019997,,,,,,,,,,,,,,,,,,,,,,,,,,,,715914,001,2024-12-01_16h59.58.555,Test,2024.2.1,59.94913256170913,2024-12-01 17h00.33.559589 +0100,
,,,,,,,,,,,,,,,,,,,,,,,,,,,,,,,,,,,,,,,,,,,,,,,,,,,,,,,,,,,,,,,,,,,,,,,,,,,,,,,,,,,,,,,,,,,,,,,,,646.9536310559997,646.9698121010006,646.9698121010006,697.6588968760007,space,50.68437410099796,None,,,,,,,,,,,,,,,,,,,,,715914,001,2024-12-01_16h59.58.555,Test,2024.2.1,59.94913256170913,2024-12-01 17h00.33.559589 +0100,
31,150,180,36,None,0,0,0,False,,,,right,3.024950147002528,None,,,,,,,,,,,,,0,0,0,0,697.682002597001,,,,,,,,,,,,,,,,,,,,,,,,,,,,,,,,,,,,,,,,,,,,,,,,,,,,,,,,,,,,,,,,,,,,,,,,,697.6726804259997,697.682002597001,698.6904978580023,699.6739578090019,699.6739578090019,699.6739578090019,702.6743667730007,702.6743667730007,702.6743667730007,702.709761858001,right,3.024950147002528,None,,,,,,,,715914,001,2024-12-01_16h59.58.555,Test,2024.2.1,59.94913256170913,2024-12-01 17h00.33.559589 +0100,
61,150,150,53,None,1,1,0,True,,,,left,3.27153050799825,None,,,,,,,,,,,,,0,1,1,1,702.7250739619994,,,,,,,,,,,,,,,,,,,,,,,,,,,,,,,,,,,,,,,,,,,,,,,,,,,,,,,,,,,,,,,,,,,,,,,,,702.7156353700011,702.7250739619994,703.7246775080021,704.7247875079993,704.7247875079993,704.7247875079993,707.725603998002,707.70856078,707.725603998002,708.0094022369994,left,3.27153050799825,None,,,,,,,,715914,001,2024-12-01_16h59.58.555,Test,2024.2.1,59.94913256170913,2024-12-01 17h00.33.559589 +0100,
54,150,90,31,None,2,2,0,True,,,,left,2.006575461000466,None,,,,,,,,,,,,,0,2,2,2,708.025443251001,,,,,,,,,,,,,,,,,,,,,,,,,,,,,,,,,,,,,,,,,,,,,,,,,,,,,,,,,,,,,,,,,,,,,,,,,708.0160559979995,708.025443251001,709.0244775240026,710.024639274001,710.024639274001,710.024639274001,,,,712.0434445669998,left,2.006575461000466,None,,,,,,,,715914,001,2024-12-01_16h59.58.555,Test,2024.2.1,59.94913256170913,2024-12-01 17h00.33.559589 +0100,
16,150,90,68,None,3,3,0,False,,,,right,2.8473510229996464,None,,,,,,,,,,,,,0,3,3,3,712.057823334002,,,,,,,,,,,,,,,,,,,,,,,,,,,,,,,,,,,,,,,,,,,,,,,,,,,,,,,,,,,,,,,,,,,,,,,,,712.0474014110005,712.057823334002,713.0584033619998,714.058237702,714.058237702,714.058237702,,,,716.9108569510026,right,2.8473510229996464,None,,,,,,,,715914,001,2024-12-01_16h59.58.555,Test,2024.2.1,59.94913256170913,2024-12-01 17h00.33.559589 +0100,
34,150,180,5,None,4,4,0,False,,,,right,1.6841583060013363,None,,,,,,,,,,,,,0,4,4,4,716.9249969250013,,,,,,,,,,,,,,,,,,,,,,,,,,,,,,,,,,,,,,,,,,,,,,,,,,,,,,,,,,,,,,,,,,,,,,,,,716.9146989410001,716.9249969250013,717.9262043650015,718.9261010260016,718.9261010260016,718.9261010260016,,,,720.6268384649993,right,1.6841583060013363,None,,,,,,,,715914,001,2024-12-01_16h59.58.555,Test,2024.2.1,59.94913256170913,2024-12-01 17h00.33.559589 +0100,
58,150,120,27,None,5,5,0,True,,,,left,1.5764060559995414,None,,,,,,,,,,,,,0,5,5,5,720.6423359780019,,,,,,,,,,,,,,,,,,,,,,,,,,,,,,,,,,,,,,,,,,,,,,,,,,,,,,,,,,,,,,,,,,,,,,,,,720.632628763,720.6423359780019,721.6420078150004,722.6266973550009,722.6266973550009,722.6266973550009,,,,724.2103589239996,left,1.5764060559995414,None,,,,,,,,715914,001,2024-12-01_16h59.58.555,Test,2024.2.1,59.94913256170913,2024-12-01 17h00.33.559589 +0100,
59,150,120,60,None,6,6,0,True,,,,left,1.4586168280002312,None,,,,,,,,,,,,,0,6,6,6,724.2259252450021,,,,,,,,,,,,,,,,,,,,,,,,,,,,,,,,,,,,,,,,,,,,,,,,,,,,,,,,,,,,,,,,,,,,,,,,,724.2162381670023,724.2259252450021,725.2256919130014,726.2261681780001,726.2261681780001,726.2261681780001,,,,727.6937352090026,left,1.4586168280002312,None,,,,,,,,715914,001,2024-12-01_16h59.58.555,Test,2024.2.1,59.94913256170913,2024-12-01 17h00.33.559589 +0100,
9,150,30,63,None,7,7,0,False,,,,right,3.334068953001406,None,,,,,,,,,,,,,0,7,7,7,727.7091783010001,,,,,,,,,,,,,,,,,,,,,,,,,,,,,,,,,,,,,,,,,,,,,,,,,,,,,,,,,,,,,,,,,,,,,,,,,727.6993999570004,727.7091783010001,728.709364151,729.6933499740007,729.6933499740007,729.6933499740007,732.6932825069998,732.7095297710002,732.6932825069998,733.0446573420013,right,3.334068953001406,None,,,,,,,,715914,001,2024-12-01_16h59.58.555,Test,2024.2.1,59.94913256170913,2024-12-01 17h00.33.559589 +0100,
56,150,120,3,None,8,8,0,True,,,,left,3.1965815000003204,None,,,,,,,,,,,,,0,8,8,8,733.0594592730013,,,,,,,,,,,,,,,,,,,,,,,,,,,,,,,,,,,,,,,,,,,,,,,,,,,,,,,,,,,,,,,,,,,,,,,,,733.0507513070006,733.0594592730013,734.0608683540013,735.0439966150007,735.0439966150007,735.0439966150007,738.0431902720011,738.0604102850011,738.0431902720011,738.2455613029997,left,3.1965815000003204,None,,,,,,,,715914,001,2024-12-01_16h59.58.555,Test,2024.2.1,59.94913256170913,2024-12-01 17h00.33.559589 +0100,
37,150,0,54,None,9,9,0,True,,,,left,0.9902961100015091,None,,,,,,,,,,,,,0,9,9,9,738.2604683680001,,,,,,,,,,,,,,,,,,,,,,,,,,,,,,,,,,,,,,,,,,,,,,,,,,,,,,,,,,,,,,,,,,,,,,,,,738.2519081400023,738.2604683680001,739.2600129269995,740.259971042,740.259971042,740.259971042,,,,741.2625914480013,left,0.9902961100015091,None,,,,,,,,715914,001,2024-12-01_16h59.58.555,Test,2024.2.1,59.94913256170913,2024-12-01 17h00.33.559589 +0100,
12,150,60,12,None,10,10,0,False,,,,left,2.017368285996781,None,,,,,,,,,,,,,0,10,10,10,741.2824192949993,,,,,,,,,,,,,,,,,,,,,,,,,,,,,,,,,,,,,,,,,,,,,,,,,,,,,,,,,,,,,,,,,,,,,,,,,741.267264129001,741.2824192949993,742.2927859740012,743.2770153150013,743.2770153150013,743.2770153150013,,,,745.2968420329998,left,2.017368285996781,None,,,,,,,,715914,001,2024-12-01_16h59.58.555,Test,2024.2.1,59.94913256170913,2024-12-01 17h00.33.559589 +0100,
51,150,90,20,None,11,11,0,True,,,,left,1.0013377819996094,None,,,,,,,,,,,,,0,11,11,11,745.3117088340005,,,,,,,,,,,,,,,,,,,,,,,,,,,,,,,,,,,,,,,,,,,,,,,,,,,,,,,,,,,,,,,,,,,,,,,,,745.3029470870024,745.3117088340005,746.3104472439991,747.3103986030001,747.3103986030001,747.3103986030001,,,,748.3285793800023,left,1.0013377819996094,None,,,,,,,,715914,001,2024-12-01_16h59.58.555,Test,2024.2.1,59.94913256170913,2024-12-01 17h00.33.559589 +0100,
50,150,60,7,None,12,12,0,True,,,,right,0.9384953669978131,None,,,,,,,,,,,,,0,12,12,12,748.3446276290015,,,,,,,,,,,,,,,,,,,,,,,,,,,,,,,,,,,,,,,,,,,,,,,,,,,,,,,,,,,,,,,,,,,,,,,,,748.3350124490025,748.3446276290015,749.3446330309998,750.3444506310007,750.3444506310007,750.3444506310007,,,,751.2965029530023,right,0.9384953669978131,None,,,,,,,,715914,001,2024-12-01_16h59.58.555,Test,2024.2.1,59.94913256170913,2024-12-01 17h00.33.559589 +0100,
7,150,30,37,None,13,13,0,False,,,,right,2.1763010779977776,None,,,,,,,,,,,,,0,13,13,13,751.3115198640007,,,,,,,,,,,,,,,,,,,,,,,,,,,,,,,,,,,,,,,,,,,,,,,,,,,,,,,,,,,,,,,,,,,,,,,,,751.3024458569998,751.3115198640007,752.3107612130007,753.3105458520004,753.3105458520004,753.3105458520004,,,,755.4960529119999,right,2.1763010779977776,None,,,,,,,,715914,001,2024-12-01_16h59.58.555,Test,2024.2.1,59.94913256170913,2024-12-01 17h00.33.559589 +0100,
26,150,150,50,None,14,14,0,False,,,,left,1.6529383809975116,None,,,,,,,,,,,,,0,14,14,14,755.5111944380005,,,,,,,,,,,,,,,,,,,,,,,,,,,,,,,,,,,,,,,,,,,,,,,,,,,,,,,,,,,,,,,,,,,,,,,,,755.5022941749994,755.5111944380005,756.5113672680018,757.5113224400011,757.5113224400011,757.5113224400011,,,,759.1789567180022,left,1.6529383809975116,None,,,,,,,,715914,001,2024-12-01_16h59.58.555,Test,2024.2.1,59.94913256170913,2024-12-01 17h00.33.559589 +0100,
13,150,60,16,None,15,15,0,False,,,,left,3.1195669250009814,None,,,,,,,,,,,,,0,15,15,15,759.1947582450011,,,,,,,,,,,,,,,,,,,,,,,,,,,,,,,,,,,,,,,,,,,,,,,,,,,,,,,,,,,,,,,,,,,,,,,,,759.1835308090012,759.1947582450011,760.194996131002,761.1781539510011,761.1781539510011,761.1781539510011,764.1794712690025,764.1794712690025,764.1794712690025,764.3013264130022,left,3.1195669250009814,None,,,,,,,,715914,001,2024-12-01_16h59.58.555,Test,2024.2.1,59.94913256170913,2024-12-01 17h00.33.559589 +0100,
25,150,120,33,None,16,16,0,False,,,,left,2.8737402180013305,None,,,,,,,,,,,,,0,16,16,16,764.315343653001,,,,,,,,,,,,,,,,,,,,,,,,,,,,,,,,,,,,,,,,,,,,,,,,,,,,,,,,,,,,,,,,,,,,,,,,,764.3078738010008,764.315343653001,765.3284638440018,766.3131178790027,766.3131178790027,766.3131178790027,,,,769.1964897580001,left,2.8737402180013305,None,,,,,,,,715914,001,2024-12-01_16h59.58.555,Test,2024.2.1,59.94913256170913,2024-12-01 17h00.33.559589 +0100,
38,150,0,4,None,17,17,0,True,,,,left,3.7927607229976275,None,,,,,,,,,,,,,0,17,17,17,769.2119140790019,,,,,,,,,,,,,,,,,,,,,,,,,,,,,,,,,,,,,,,,,,,,,,,,,,,,,,,,,,,,,,,,,,,,,,,,,769.2019767140009,769.2119140790019,770.2127058820006,771.1958961290002,771.1958961290002,771.1958961290002,774.1957885970005,774.1957885970005,774.1957885970005,774.9979787680022,left,3.7927607229976275,None,,,,,,,,715914,001,2024-12-01_16h59.58.555,Test,2024.2.1,59.94913256170913,2024-12-01 17h00.33.559589 +0100,
8,150,30,59,None,18,18,0,False,,,,left,4.561224476998177,None,,,,,,,,,,,,,0,18,18,18,775.0135146370012,,,,,,,,,,,,,,,,,,,,,,,,,,,,,,,,,,,,,,,,,,,,,,,,,,,,,,,,,,,,,,,,,,,,,,,,,775.0044378029997,775.0135146370012,776.0125762410025,777.0125936629993,777.0125936629993,777.0125936629993,780.0127137130003,780.0127137130003,780.0127137130003,781.5815240440024,left,4.561224476998177,None,,,,,,,,715914,001,2024-12-01_16h59.58.555,Test,2024.2.1,59.94913256170913,2024-12-01 17h00.33.559589 +0100,
6,150,30,41,None,19,19,0,False,,,,right,1.705791070999112,None,,,,,,,,,,,,,0,19,19,19,781.5964875749996,,,,,,,,,,,,,,,,,,,,,,,,,,,,,,,,,,,,,,,,,,,,,,,,,,,,,,,,,,,,,,,,,,,,,,,,,781.5876135360013,781.5964875749996,782.596280531001,783.5963676810024,783.5963676810024,783.5963676810024,,,,785.3151156810018,right,1.705791070999112,None,,,,,,,,715914,001,2024-12-01_16h59.58.555,Test,2024.2.1,59.94913256170913,2024-12-01 17h00.33.559589 +0100,
10,150,30,6,None,20,20,0,False,,,,right,5.259699067999463,None,,,,,,,,,,,,,0,20,20,20,785.3296688869996,,,,,,,,,,,,,,,,,,,,,,,,,,,,,,,,,,,,,,,,,,,,,,,,,,,,,,,,,,,,,,,,,,,,,,,,,785.3191715860012,785.3296688869996,786.330301127,787.3141618040027,787.3141618040027,787.3141618040027,790.3135198849996,790.3135198849996,790.3135198849996,792.5827327549996,right,5.259699067999463,None,,,,,,,,715914,001,2024-12-01_16h59.58.555,Test,2024.2.1,59.94913256170913,2024-12-01 17h00.33.559589 +0100,
32,150,180,57,None,21,21,0,False,,,,left,5.521361129998695,None,,,,,,,,,,,,,0,21,21,21,792.599522495002,,,,,,,,,,,,,,,,,,,,,,,,,,,,,,,,,,,,,,,,,,,,,,,,,,,,,,,,,,,,,,,,,,,,,,,,,792.5904066309995,792.599522495002,793.6140711280023,794.5975544730027,794.5975544730027,794.5975544730027,797.5977127299993,797.5977127299993,797.5977127299993,800.1324224780001,left,5.521361129998695,None,,,,,,,,715914,001,2024-12-01_16h59.58.555,Test,2024.2.1,59.94913256170913,2024-12-01 17h00.33.559589 +0100,
22,150,120,15,None,22,22,0,False,,,,left,2.8405526900023688,None,,,,,,,,,,,,,0,22,22,22,800.147258074001,,,,,,,,,,,,,,,,,,,,,,,,,,,,,,,,,,,,,,,,,,,,,,,,,,,,,,,,,,,,,,,,,,,,,,,,,800.1380625810016,800.147258074001,801.1475111530017,802.2476324119998,802.2476324119998,802.2476324119998,,,,805.0989340439992,left,2.8405526900023688,None,,,,,,,,715914,001,2024-12-01_16h59.58.555,Test,2024.2.1,59.94913256170913,2024-12-01 17h00.33.559589 +0100,
62,150,150,52,None,23,23,0,True,,,,left,3.777829994000058,None,,,,,,,,,,,,,0,23,23,23,805.1150275399996,,,,,,,,,,,,,,,,,,,,,,,,,,,,,,,,,,,,,,,,,,,,,,,,,,,,,,,,,,,,,,,,,,,,,,,,,805.1049415590023,805.1150275399996,806.1145386190001,807.0986390350008,807.0986390350008,807.0986390350008,810.098047710002,810.098047710002,810.098047710002,810.8835639890021,left,3.777829994000058,None,,,,,,,,715914,001,2024-12-01_16h59.58.555,Test,2024.2.1,59.94913256170913,2024-12-01 17h00.33.559589 +0100,
28,150,150,10,None,24,24,0,False,,,,left,2.1903691580009763,None,,,,,,,,,,,,,0,24,24,24,810.8983212429994,,,,,,,,,,,,,,,,,,,,,,,,,,,,,,,,,,,,,,,,,,,,,,,,,,,,,,,,,,,,,,,,,,,,,,,,,810.8892810510006,810.8983212429994,811.8990572050025,812.8986632779997,812.8986632779997,812.8986632779997,,,,815.0995355779996,left,2.1903691580009763,None,,,,,,,,715914,001,2024-12-01_16h59.58.555,Test,2024.2.1,59.94913256170913,2024-12-01 17h00.33.559589 +0100,
3,150,0,32,None,25,25,0,False,,,,right,3.3200401030007924,None,,,,,,,,,,,,,0,25,25,25,815.115402970001,,,,,,,,,,,,,,,,,,,,,,,,,,,,,,,,,,,,,,,,,,,,,,,,,,,,,,,,,,,,,,,,,,,,,,,,,815.105622477,815.115402970001,816.1152067229996,817.0997733440017,817.0997733440017,817.0997733440017,820.0993906139993,820.0993906139993,820.0993906139993,820.4345453419992,right,3.3200401030007924,None,,,,,,,,715914,001,2024-12-01_16h59.58.555,Test,2024.2.1,59.94913256170913,2024-12-01 17h00.33.559589 +0100,
18,150,90,11,None,26,26,0,False,,,,left,3.3880974870007776,None,,,,,,,,,,,,,0,26,26,26,820.4521434160015,,,,,,,,,,,,,,,,,,,,,,,,,,,,,,,,,,,,,,,,,,,,,,,,,,,,,,,,,,,,,,,,,,,,,,,,,820.4417819500013,820.4521434160015,821.4656864370008,822.4497108270007,822.4497108270007,822.4497108270007,825.4497084319992,825.4497084319992,825.4497084319992,825.8511025770022,left,3.3880974870007776,None,,,,,,,,715914,001,2024-12-01_16h59.58.555,Test,2024.2.1,59.94913256170913,2024-12-01 17h00.33.559589 +0100,
69,150,180,19,None,27,27,0,True,,,,left,0.9680564349982888,None,,,,,,,,,,,,,0,27,27,27,825.8680675920004,,,,,,,,,,,,,,,,,,,,,,,,,,,,,,,,,,,,,,,,,,,,,,,,,,,,,,,,,,,,,,,,,,,,,,,,,825.8587446140009,825.8680675920004,826.8826140849997,827.8660884970013,827.8660884970013,827.8660884970013,,,,828.8513808669995,left,0.9680564349982888,None,,,,,,,,715914,001,2024-12-01_16h59.58.555,Test,2024.2.1,59.94913256170913,2024-12-01 17h00.33.559589 +0100,
49,150,60,30,None,28,28,0,True,,,,left,2.148153360001743,None,,,,,,,,,,,,,0,28,28,28,828.8663985160019,,,,,,,,,,,,,,,,,,,,,,,,,,,,,,,,,,,,,,,,,,,,,,,,,,,,,,,,,,,,,,,,,,,,,,,,,828.8571682210022,828.8663985160019,829.866790008,830.8667471750014,830.8667471750014,830.8667471750014,,,,833.0190785920022,left,2.148153360001743,None,,,,,,,,715914,001,2024-12-01_16h59.58.555,Test,2024.2.1,59.94913256170913,2024-12-01 17h00.33.559589 +0100,
45,150,30,70,None,29,29,0,True,,,,left,4.206220178002695,None,,,,,,,,,,,,,0,29,29,29,833.0334404000023,,,,,,,,,,,,,,,,,,,,,,,,,,,,,,,,,,,,,,,,,,,,,,,,,,,,,,,,,,,,,,,,,,,,,,,,,833.0247016130015,833.0334404000023,834.0331423160023,835.0332887510012,835.0332887510012,835.0332887510012,838.0336708249997,838.0336708249997,838.0336708249997,839.2514625430013,left,4.206220178002695,None,,,,,,,,715914,001,2024-12-01_16h59.58.555,Test,2024.2.1,59.94913256170913,2024-12-01 17h00.33.559589 +0100,
5,150,0,14,None,30,30,0,False,,,,left,4.1433781730011106,None,,,,,,,,,,,,,0,30,30,30,839.2668401010014,,,,,,,,,,,,,,,,,,,,,,,,,,,,,,,,,,,,,,,,,,,,,,,,,,,,,,,,,,,,,,,,,,,,,,,,,839.2572950220019,839.2668401010014,840.2675218889999,841.2507718650013,841.2507718650013,841.2507718650013,844.2513815769998,844.2513815769998,844.2513815769998,845.4028296360011,left,4.1433781730011106,None,,,,,,,,715914,001,2024-12-01_16h59.58.555,Test,2024.2.1,59.94913256170913,2024-12-01 17h00.33.559589 +0100,
1,150,0,43,None,31,31,0,False,,,,left,2.992062283999985,None,,,,,,,,,,,,,0,31,31,31,845.4180071400006,,,,,,,,,,,,,,,,,,,,,,,,,,,,,,,,,,,,,,,,,,,,,,,,,,,,,,,,,,,,,,,,,,,,,,,,,845.4084714980017,845.4180071400006,846.4172482819995,847.4173840900003,847.4173840900003,847.4173840900003,850.417478350002,850.417478350002,850.417478350002,850.4191865720022,left,2.992062283999985,None,,,,,,,,715914,001,2024-12-01_16h59.58.555,Test,2024.2.1,59.94913256170913,2024-12-01 17h00.33.559589 +0100,
33,150,180,24,None,32,32,0,False,,,,right,1.772172764998686,None,,,,,,,,,,,,,0,32,32,32,850.4355827729996,,,,,,,,,,,,,,,,,,,,,,,,,,,,,,,,,,,,,,,,,,,,,,,,,,,,,,,,,,,,,,,,,,,,,,,,,850.4265879209997,850.4355827729996,851.4346805980022,852.4186156460019,852.4186156460019,852.4186156460019,,,,854.2029028079996,right,1.772172764998686,None,,,,,,,,715914,001,2024-12-01_16h59.58.555,Test,2024.2.1,59.94913256170913,2024-12-01 17h00.33.559589 +0100,
41,150,30,29,None,33,33,0,True,,,,left,1.4287077650005813,None,,,,,,,,,,,,,0,33,33,33,854.2192065830022,,,,,,,,,,,,,,,,,,,,,,,,,,,,,,,,,,,,,,,,,,,,,,,,,,,,,,,,,,,,,,,,,,,,,,,,,854.2097027039999,854.2192065830022,855.2351716190024,856.2185292040012,856.2185292040012,856.2185292040012,,,,857.6532155370005,left,1.4287077650005813,None,,,,,,,,715914,001,2024-12-01_16h59.58.555,Test,2024.2.1,59.94913256170913,2024-12-01 17h00.33.559589 +0100,
35,150,180,49,None,34,34,0,False,,,,left,2.3064049659988086,None,,,,,,,,,,,,,0,34,34,34,857.6687714190011,,,,,,,,,,,,,,,,,,,,,,,,,,,,,,,,,,,,,,,,,,,,,,,,,,,,,,,,,,,,,,,,,,,,,,,,,857.6592782730004,857.6687714190011,858.668386456,859.6684359140017,859.6684359140017,859.6684359140017,,,,861.9867607250017,left,2.3064049659988086,None,,,,,,,,715914,001,2024-12-01_16h59.58.555,Test,2024.2.1,59.94913256170913,2024-12-01 17h00.33.559589 +0100,
36,150,0,69,None,35,35,0,True,,,,right,1.298660516000382,None,,,,,,,,,,,,,0,35,35,35,862.0022041820012,,,,,,,,,,,,,,,,,,,,,,,,,,,,,,,,,,,,,,,,,,,,,,,,,,,,,,,,,,,,,,,,,,,,,,,,,861.9924177800021,862.0022041820012,863.0021469200001,863.9862501400021,863.9862501400021,863.9862501400021,,,,865.2881518270005,right,1.298660516000382,None,,,,,,,,715914,001,2024-12-01_16h59.58.555,Test,2024.2.1,59.94913256170913,2024-12-01 17h00.33.559589 +0100,
39,150,0,25,None,36,36,0,True,,,,left,1.2906091379991267,None,,,,,,,,,,,,,0,36,36,36,865.3048096919993,,,,,,,,,,,,,,,,,,,,,,,,,,,,,,,,,,,,,,,,,,,,,,,,,,,,,,,,,,,,,,,,,,,,,,,,,865.2956022319995,865.3048096919993,866.3189008010013,867.3020889950021,867.3020889950021,867.3020889950021,,,,868.6035104990005,left,1.2906091379991267,None,,,,,,,,715914,001,2024-12-01_16h59.58.555,Test,2024.2.1,59.94913256170913,2024-12-01 17h00.33.559589 +0100,
64,150,150,35,None,37,37,0,True,,,,left,3.6989974930002063,None,,,,,,,,,,,,,0,37,37,37,868.619653406,,,,,,,,,,,,,,,,,,,,,,,,,,,,,,,,,,,,,,,,,,,,,,,,,,,,,,,,,,,,,,,,,,,,,,,,,868.6108423299993,868.619653406,869.6192596210021,870.6032000150008,870.6032000150008,870.6032000150008,873.6024678739996,873.6024678739996,873.6024678739996,874.3292121900013,left,3.6989974930002063,None,,,,,,,,715914,001,2024-12-01_16h59.58.555,Test,2024.2.1,59.94913256170913,2024-12-01 17h00.33.559589 +0100,
47,150,60,47,None,38,38,0,True,,,,left,3.7972795800014865,None,,,,,,,,,,,,,0,38,38,38,874.3430850180011,,,,,,,,,,,,,,,,,,,,,,,,,,,,,,,,,,,,,,,,,,,,,,,,,,,,,,,,,,,,,,,,,,,,,,,,,874.3367932229994,874.3430850180011,875.352745911001,876.3362272640006,876.3362272640006,876.3362272640006,879.3369004670021,879.3369004670021,879.3369004670021,880.1385204889993,left,3.7972795800014865,None,,,,,,,,715914,001,2024-12-01_16h59.58.555,Test,2024.2.1,59.94913256170913,2024-12-01 17h00.33.559589 +0100,
21,150,120,17,None,39,39,0,False,,,,right,4.638746355998592,None,,,,,,,,,,,,,0,39,39,39,880.1549055100004,,,,,,,,,,,,,,,,,,,,,,,,,,,,,,,,,,,,,,,,,,,,,,,,,,,,,,,,,,,,,,,,,,,,,,,,,880.1460527420022,880.1549055100004,881.1701327520022,882.1540159280012,882.1540159280012,882.1540159280012,885.1533418260005,885.1533418260005,885.1533418260005,886.8047497379994,right,4.638746355998592,None,,,,,,,,715914,001,2024-12-01_16h59.58.555,Test,2024.2.1,59.94913256170913,2024-12-01 17h00.33.559589 +0100,
48,150,60,67,None,40,40,0,True,,,,right,2.8329363800003193,None,,,,,,,,,,,,,0,40,40,40,886.8203448860004,,,,,,,,,,,,,,,,,,,,,,,,,,,,,,,,,,,,,,,,,,,,,,,,,,,,,,,,,,,,,,,,,,,,,,,,,886.8109126820018,886.8203448860004,887.8202449060009,888.8201873979997,888.8201873979997,888.8201873979997,,,,891.6565237310024,right,2.8329363800003193,None,,,,,,,,715914,001,2024-12-01_16h59.58.555,Test,2024.2.1,59.94913256170913,2024-12-01 17h00.33.559589 +0100,
55,150,90,34,None,41,41,0,True,,,,left,3.807812126000499,None,,,,,,,,,,,,,0,41,41,41,891.6713422540015,,,,,,,,,,,,,,,,,,,,,,,,,,,,,,,,,,,,,,,,,,,,,,,,,,,,,,,,,,,,,,,,,,,,,,,,,891.6618436960016,891.6713422540015,892.6705863640018,893.6706723790012,893.6706723790012,893.6706723790012,896.6708135619992,896.6708135619992,896.6708135619992,897.4890680470016,left,3.807812126000499,None,,,,,,,,715914,001,2024-12-01_16h59.58.555,Test,2024.2.1,59.94913256170913,2024-12-01 17h00.33.559589 +0100,
68,150,180,1,None,42,42,0,True,,,,left,2.362082420000661,None,,,,,,,,,,,,,0,42,42,42,897.5051232600017,,,,,,,,,,,,,,,,,,,,,,,,,,,,,,,,,,,,,,,,,,,,,,,,,,,,,,,,,,,,,,,,,,,,,,,,,897.495137463,897.5051232600017,898.5055406780011,899.5043730920006,899.5043730920006,899.5043730920006,,,,901.8732388200006,left,2.362082420000661,None,,,,,,,,715914,001,2024-12-01_16h59.58.555,Test,2024.2.1,59.94913256170913,2024-12-01 17h00.33.559589 +0100,
11,150,60,42,None,43,43,0,False,,,,right,2.408768269000575,None,,,,,,,,,,,,,0,43,43,43,901.888437253001,,,,,,,,,,,,,,,,,,,,,,,,,,,,,,,,,,,,,,,,,,,,,,,,,,,,,,,,,,,,,,,,,,,,,,,,,901.8789278059994,901.888437253001,902.8880349280007,903.8882339209995,903.8882339209995,903.8882339209995,,,,906.306038398001,right,2.408768269000575,None,,,,,,,,715914,001,2024-12-01_16h59.58.555,Test,2024.2.1,59.94913256170913,2024-12-01 17h00.33.559589 +0100,
60,150,120,58,None,44,44,0,True,,,,left,3.9609138910018373,None,,,,,,,,,,,,,0,44,44,44,906.3212060719998,,,,,,,,,,,,,,,,,,,,,,,,,,,,,,,,,,,,,,,,,,,,,,,,,,,,,,,,,,,,,,,,,,,,,,,,,906.311485831,906.3212060719998,907.3225867120018,908.3057939829996,908.3057939829996,908.3057939829996,911.3057125689993,911.321913568001,911.3057125689993,912.2736502959997,left,3.9609138910018373,None,,,,,,,,715914,001,2024-12-01_16h59.58.555,Test,2024.2.1,59.94913256170913,2024-12-01 17h00.33.559589 +0100,
42,150,30,40,None,45,45,0,True,,,,left,3.4225872440001694,None,,,,,,,,,,,,,0,45,45,45,912.2888164569995,,,,,,,,,,,,,,,,,,,,,,,,,,,,,,,,,,,,,,,,,,,,,,,,,,,,,,,,,,,,,,,,,,,,,,,,,912.2799672170004,912.2888164569995,913.2886659889991,914.2892676640004,914.2892676640004,914.2892676640004,917.2885371820012,917.2885371820012,917.2885371820012,917.72335982,left,3.4225872440001694,None,,,,,,,,715914,001,2024-12-01_16h59.58.555,Test,2024.2.1,59.94913256170913,2024-12-01 17h00.33.559589 +0100,
20,150,90,46,None,46,46,0,False,,,,right,3.90282538700194,None,,,,,,,,,,,,,0,46,46,46,917.7384174149993,,,,,,,,,,,,,,,,,,,,,,,,,,,,,,,,,,,,,,,,,,,,,,,,,,,,,,,,,,,,,,,,,,,,,,,,,917.7288101760023,917.7384174149993,918.7395496179997,919.7229257530016,919.7229257530016,919.7229257530016,922.7225885600019,922.7225885600019,922.7225885600019,923.6417767780003,right,3.90282538700194,None,,,,,,,,715914,001,2024-12-01_16h59.58.555,Test,2024.2.1,59.94913256170913,2024-12-01 17h00.33.559589 +0100,
65,150,150,45,None,47,47,0,True,,,,left,1.3305913240001246,None,,,,,,,,,,,,,0,47,47,47,923.6582681040018,,,,,,,,,,,,,,,,,,,,,,,,,,,,,,,,,,,,,,,,,,,,,,,,,,,,,,,,,,,,,,,,,,,,,,,,,923.6490303730025,923.6582681040018,924.6727103289995,925.6561277030014,925.6561277030014,925.6561277030014,,,,926.9917689880021,left,1.3305913240001246,None,,,,,,,,715914,001,2024-12-01_16h59.58.555,Test,2024.2.1,59.94913256170913,2024-12-01 17h00.33.559589 +0100,
15,150,60,61,None,48,48,0,False,,,,right,3.836723094002082,None,,,,,,,,,,,,,0,48,48,48,927.0216534440005,,,,,,,,,,,,,,,,,,,,,,,,,,,,,,,,,,,,,,,,,,,,,,,,,,,,,,,,,,,,,,,,,,,,,,,,,926.9981706860017,927.0216534440005,928.0237041020009,929.0063873319996,929.0063873319996,929.0063873319996,932.0065534570022,932.0065534570022,932.0065534570022,932.8588315439993,right,3.836723094002082,None,,,,,,,,715914,001,2024-12-01_16h59.58.555,Test,2024.2.1,59.94913256170913,2024-12-01 17h00.33.559589 +0100,
23,150,120,64,None,49,49,0,False,,,,left,1.3193608630026574,None,,,,,,,,,,,,,0,49,49,49,932.8740332590023,,,,,,,,,,,,,,,,,,,,,,,,,,,,,,,,,,,,,,,,,,,,,,,,,,,,,,,,,,,,,,,,,,,,,,,,,932.8652947549999,932.8740332590023,933.8732602150012,934.8728451099996,934.8728451099996,934.8728451099996,,,,936.2091113170027,left,1.3193608630026574,None,,,,,,,,715914,001,2024-12-01_16h59.58.555,Test,2024.2.1,59.94913256170913,2024-12-01 17h00.33.559589 +0100,
17,150,90,44,None,50,50,0,False,,,,left,1.0089610270006233,None,,,,,,,,,,,,,0,50,50,50,936.2243126450012,,,,,,,,,,,,,,,,,,,,,,,,,,,,,,,,,,,,,,,,,,,,,,,,,,,,,,,,,,,,,,,,,,,,,,,,,936.2149741270005,936.2243126450012,937.2238172620018,938.224760295001,938.224760295001,938.224760295001,,,,939.2419685890018,left,1.0089610270006233,None,,,,,,,,715914,001,2024-12-01_16h59.58.555,Test,2024.2.1,59.94913256170913,2024-12-01 17h00.33.559589 +0100,
40,150,0,22,None,51,51,0,True,,,,left,0.9866022079986578,None,,,,,,,,,,,,,0,51,51,51,939.2565946190007,,,,,,,,,,,,,,,,,,,,,,,,,,,,,,,,,,,,,,,,,,,,,,,,,,,,,,,,,,,,,,,,,,,,,,,,,939.247535986,939.2565946190007,940.2578249310027,941.2577800079998,941.2577800079998,941.2577800079998,,,,942.2602138030015,left,0.9866022079986578,None,,,,,,,,715914,001,2024-12-01_16h59.58.555,Test,2024.2.1,59.94913256170913,2024-12-01 17h00.33.559589 +0100,
2,150,0,55,None,52,52,0,False,,,,left,4.261795616002928,None,,,,,,,,,,,,,0,52,52,52,942.2775054730009,,,,,,,,,,,,,,,,,,,,,,,,,,,,,,,,,,,,,,,,,,,,,,,,,,,,,,,,,,,,,,,,,,,,,,,,,942.2681058109993,942.2775054730009,943.2911151980006,944.2745727930014,944.2745727930014,944.2745727930014,947.2741945359994,947.2741945359994,947.2741945359994,948.542763100002,left,4.261795616002928,None,,,,,,,,715914,001,2024-12-01_16h59.58.555,Test,2024.2.1,59.94913256170913,2024-12-01 17h00.33.559589 +0100,
43,150,30,28,None,53,53,0,True,,,,left,1.0559854969978915,None,,,,,,,,,,,,,0,53,53,53,948.5583662600002,,,,,,,,,,,,,,,,,,,,,,,,,,,,,,,,,,,,,,,,,,,,,,,,,,,,,,,,,,,,,,,,,,,,,,,,,948.5482319460025,948.5583662600002,949.5584478230012,950.5578974150012,950.5578974150012,950.5578974150012,,,,951.6262905350013,left,1.0559854969978915,None,,,,,,,,715914,001,2024-12-01_16h59.58.555,Test,2024.2.1,59.94913256170913,2024-12-01 17h00.33.559589 +0100,
70,150,180,8,None,54,54,0,True,,,,left,5.158393419998902,None,,,,,,,,,,,,,0,54,54,54,951.6411387490007,,,,,,,,,,,,,,,,,,,,,,,,,,,,,,,,,,,,,,,,,,,,,,,,,,,,,,,,,,,,,,,,,,,,,,,,,951.6315361260022,951.6411387490007,952.6421856160014,953.6417740300021,953.6417740300021,953.6417740300021,956.6421653950019,956.6421653950019,956.6421653950019,958.8097153500021,left,5.158393419998902,None,,,,,,,,715914,001,2024-12-01_16h59.58.555,Test,2024.2.1,59.94913256170913,2024-12-01 17h00.33.559589 +0100,
4,150,0,65,None,55,55,0,False,,,,left,2.154172334998293,None,,,,,,,,,,,,,0,55,55,55,958.8257474260026,,,,,,,,,,,,,,,,,,,,,,,,,,,,,,,,,,,,,,,,,,,,,,,,,,,,,,,,,,,,,,,,,,,,,,,,,958.8169892810001,958.8257474260026,959.8261831929995,960.8256552890016,960.8256552890016,960.8256552890016,,,,962.9937034489994,left,2.154172334998293,None,,,,,,,,715914,001,2024-12-01_16h59.58.555,Test,2024.2.1,59.94913256170913,2024-12-01 17h00.33.559589 +0100,
14,150,60,26,None,56,56,0,False,,,,left,7.607882727999822,None,,,,,,,,,,,,,0,56,56,56,963.0085479520021,,,,,,,,,,,,,,,,,,,,,,,,,,,,,,,,,,,,,,,,,,,,,,,,,,,,,,,,,,,,,,,,,,,,,,,,,962.9995586000005,963.0085479520021,964.0086389520002,965.029159771002,965.029159771002,965.029159771002,968.0417868020013,968.0084881500006,968.0417868020013,972.6450108950012,left,7.607882727999822,None,,,,,,,,715914,001,2024-12-01_16h59.58.555,Test,2024.2.1,59.94913256170913,2024-12-01 17h00.33.559589 +0100,
46,150,60,13,None,57,57,0,True,,,,left,2.458013426999969,None,,,,,,,,,,,,,0,57,57,57,972.6652773429996,,,,,,,,,,,,,,,,,,,,,,,,,,,,,,,,,,,,,,,,,,,,,,,,,,,,,,,,,,,,,,,,,,,,,,,,,972.6575415940024,972.6652773429996,973.6759959180017,974.6601183950006,974.6601183950006,974.6601183950006,,,,977.1278348699998,left,2.458013426999969,None,,,,,,,,715914,001,2024-12-01_16h59.58.555,Test,2024.2.1,59.94913256170913,2024-12-01 17h00.33.559589 +0100,
27,150,150,9,None,58,58,0,False,,,,left,2.499372943002527,None,,,,,,,,,,,,,0,58,58,58,977.1429070660015,,,,,,,,,,,,,,,,,,,,,,,,,,,,,,,,,,,,,,,,,,,,,,,,,,,,,,,,,,,,,,,,,,,,,,,,,977.1330740430021,977.1429070660015,978.1426541200017,979.1428464820019,979.1428464820019,979.1428464820019,,,,981.6454348400002,left,2.499372943002527,None,,,,,,,,715914,001,2024-12-01_16h59.58.555,Test,2024.2.1,59.94913256170913,2024-12-01 17h00.33.559589 +0100,
53,150,90,23,None,59,59,0,True,,,,left,2.401157675001741,None,,,,,,,,,,,,,0,59,59,59,981.6605985290007,,,,,,,,,,,,,,,,,,,,,,,,,,,,,,,,,,,,,,,,,,,,,,,,,,,,,,,,,,,,,,,,,,,,,,,,,981.6514055280022,981.6605985290007,982.6602668140004,983.6603700140004,983.6603700140004,983.6603700140004,,,,986.078660823001,left,2.401157675001741,None,,,,,,,,715914,001,2024-12-01_16h59.58.555,Test,2024.2.1,59.94913256170913,2024-12-01 17h00.33.559589 +0100,
52,150,90,48,None,60,60,0,True,,,,left,1.739531914001418,None,,,,,,,,,,,,,0,60,60,60,986.0933240900013,,,,,,,,,,,,,,,,,,,,,,,,,,,,,,,,,,,,,,,,,,,,,,,,,,,,,,,,,,,,,,,,,,,,,,,,,986.0845501549993,986.0933240900013,987.0932474270012,988.0934909770003,988.0934909770003,988.0934909770003,,,,989.845086477002,left,1.739531914001418,None,,,,,,,,715914,001,2024-12-01_16h59.58.555,Test,2024.2.1,59.94913256170913,2024-12-01 17h00.33.559589 +0100,
67,150,180,56,None,61,61,0,True,,,,left,3.9997527090017684,None,,,,,,,,,,,,,0,61,61,61,989.8601337440014,,,,,,,,,,,,,,,,,,,,,,,,,,,,,,,,,,,,,,,,,,,,,,,,,,,,,,,,,,,,,,,,,,,,,,,,,989.8506066440023,989.8601337440014,990.8610027390023,991.8612738160009,991.8612738160009,991.8612738160009,994.8606524080024,994.8606524080024,994.8606524080024,995.8641005520003,left,3.9997527090017684,None,,,,,,,,715914,001,2024-12-01_16h59.58.555,Test,2024.2.1,59.94913256170913,2024-12-01 17h00.33.559589 +0100,
29,150,150,66,None,62,62,0,False,,,,left,2.055133467001724,None,,,,,,,,,,,,,0,62,62,62,995.8804044470016,,,,,,,,,,,,,,,,,,,,,,,,,,,,,,,,,,,,,,,,,,,,,,,,,,,,,,,,,,,,,,,,,,,,,,,,,995.8710999480027,995.8804044470016,996.8941576260004,997.8775769960012,997.8775769960012,997.8775769960012,,,,999.9468143459999,left,2.055133467001724,None,,,,,,,,715914,001,2024-12-01_16h59.58.555,Test,2024.2.1,59.94913256170913,2024-12-01 17h00.33.559589 +0100,
57,150,120,38,None,63,63,0,True,,,,left,2.0053438569993887,None,,,,,,,,,,,,,0,63,63,63,999.9617557509991,,,,,,,,,,,,,,,,,,,,,,,,,,,,,,,,,,,,,,,,,,,,,,,,,,,,,,,,,,,,,,,,,,,,,,,,,999.9529935690007,999.9617557509991,1000.961714811001,1001.9456467920027,1001.9456467920027,1001.9456467920027,,,,1003.9634500569991,left,2.0053438569993887,None,,,,,,,,715914,001,2024-12-01_16h59.58.555,Test,2024.2.1,59.94913256170913,2024-12-01 17h00.33.559589 +0100,
44,150,30,2,None,64,64,0,True,,,,left,2.830639110001357,None,,,,,,,,,,,,,0,64,64,64,1003.9797352599999,,,,,,,,,,,,,,,,,,,,,,,,,,,,,,,,,,,,,,,,,,,,,,,,,,,,,,,,,,,,,,,,,,,,,,,,,1003.9710339699996,1003.9797352599999,1004.9948402219998,1005.9784866750015,1005.9784866750015,1005.9784866750015,,,,1008.8139143530025,left,2.830639110001357,None,,,,,,,,715914,001,2024-12-01_16h59.58.555,Test,2024.2.1,59.94913256170913,2024-12-01 17h00.33.559589 +0100,
19,150,90,21,None,65,65,0,False,,,,left,1.1386759739980334,None,,,,,,,,,,,,,0,65,65,65,1008.8293848169997,,,,,,,,,,,,,,,,,,,,,,,,,,,,,,,,,,,,,,,,,,,,,,,,,,,,,,,,,,,,,,,,,,,,,,,,,1008.8197951050024,1008.8293848169997,1009.8287593360001,1010.8287294969996,1010.8287294969996,1010.8287294969996,,,,1011.9809534100023,left,1.1386759739980334,None,,,,,,,,715914,001,2024-12-01_16h59.58.555,Test,2024.2.1,59.94913256170913,2024-12-01 17h00.33.559589 +0100,
30,150,150,51,None,66,66,0,False,,,,left,1.060371223000402,None,,,,,,,,,,,,,0,66,66,66,1011.9960177390021,,,,,,,,,,,,,,,,,,,,,,,,,,,,,,,,,,,,,,,,,,,,,,,,,,,,,,,,,,,,,,,,,,,,,,,,,1011.9871251110017,1011.9960177390021,1012.996034136002,1013.9967443050009,1013.9967443050009,1013.9967443050009,,,,1015.0642498340021,left,1.060371223000402,None,,,,,,,,715914,001,2024-12-01_16h59.58.555,Test,2024.2.1,59.94913256170913,2024-12-01 17h00.33.559589 +0100,
66,150,180,18,None,67,67,0,True,,,,left,2.3636139420013933,None,,,,,,,,,,,,,0,67,67,67,1015.0803387180022,,,,,,,,,,,,,,,,,,,,,,,,,,,,,,,,,,,,,,,,,,,,,,,,,,,,,,,,,,,,,,,,,,,,,,,,,1015.0715411780002,1015.0803387180022,1016.0801300109997,1017.0636505990005,1017.0636505990005,1017.0636505990005,,,,1019.4315349570024,left,2.3636139420013933,None,,,,,,,,715914,001,2024-12-01_16h59.58.555,Test,2024.2.1,59.94913256170913,2024-12-01 17h00.33.559589 +0100,
63,150,150,62,None,68,68,0,True,,,,left,1.705323017999035,None,,,,,,,,,,,,,0,68,68,68,1019.4483234740001,,,,,,,,,,,,,,,,,,,,,,,,,,,,,,,,,,,,,,,,,,,,,,,,,,,,,,,,,,,,,,,,,,,,,,,,,1019.4385400150022,1019.4483234740001,1020.4632535790006,1021.4466672540002,1021.4466672540002,1021.4466672540002,,,,1023.1643192190022,left,1.705323017999035,None,,,,,,,,715914,001,2024-12-01_16h59.58.555,Test,2024.2.1,59.94913256170913,2024-12-01 17h00.33.559589 +0100,
24,150,120,39,None,69,69,0,False,,,,left,3.583960135001689,None,,,,,,,,,,,,,0,69,69,69,1023.1819074699997,,,,,,,,,,,,,,,,,,,,,,,,,,,,,,,,,,,,,,,,,,,,,,,,,,,,,,,,,,,,,,,,,,,,,,,,,1023.1730186040004,1023.1819074699997,1024.196677205,1025.1800480370002,1025.1800480370002,1025.1800480370002,1028.1798920330002,1028.1798920330002,1028.1798920330002,1028.766403163001,left,3.583960135001689,None,,,,,,,,715914,001,2024-12-01_16h59.58.555,Test,2024.2.1,59.94913256170913,2024-12-01 17h00.33.559589 +0100,
,,,,,,,,,,,,,,,,,,,,,,,,,,,,,,,,,,,,,,,,,,,,,,,,,,,,,,,,,,,,,,,,,,,,,,,,,,,,,,,,,,,,,,,,,,,,,,,,,,,,,,,,,,,,,,,,,,,,,1028.7665771819993,1028.7802015050002,1028.7802015050002,1036.1828174719994,space,7.397477276001155,None,715914,001,2024-12-01_16h59.58.555,Test,2024.2.1,59.94913256170913,2024-12-01 17h00.33.559589 +0100,
