Trial_Number,Exposure_Duration,Displacement_Angle,Stimulus,Response,thisN,thisTrialN,thisRepN,Is_Distractor,key_resp_3.keys,key_resp_3.rt,key_resp_3.duration,key_resp_7.keys,key_resp_7.rt,key_resp_7.duration,trials.thisRepN,trials.thisTrialN,trials.thisN,trials.thisIndex,trials_2.thisRepN,trials_2.thisTrialN,trials_2.thisN,trials_2.thisIndex,trials_3.thisRepN,trials_3.thisTrialN,trials_3.thisN,trials_3.thisIndex,trials_4.thisRepN,trials_4.thisTrialN,trials_4.thisN,trials_4.thisIndex,thisRow.t,notes,Intro_to_experiment.started,important1_2.started,key_resp_8.started,Intro_to_experiment.stopped,key_resp_8.keys,key_resp_8.rt,key_resp_8.duration,important.started,important1.started,key_resp_4.started,important.stopped,key_resp_4.keys,key_resp_4.rt,key_resp_4.duration,instruction.started,text_7.started,key_resp_9.started,instruction.stopped,key_resp_9.keys,key_resp_9.rt,key_resp_9.duration,training_trial.started,cross.started,image.started,aperture.started,cross.stopped,image.stopped,aperture.stopped,training_trial.stopped,New_instruction.started,text.started,key_resp_2.started,New_instruction.stopped,key_resp_2.keys,key_resp_2.rt,key_resp_2.duration,test_trial.started,cross2.started,cross2.stopped,image_2.started,key_resp_3.started,aperture_2.started,test_trial.stopped,trials_2.key_resp_3.keys,trials_2.key_resp_3.rt,trials_2.key_resp_3.duration,image_2.stopped,text_3.started,aperture_2.stopped,start_blok_2.started,key_resp_5.started,text_4.started,start_blok_2.stopped,key_resp_5.keys,key_resp_5.rt,key_resp_5.duration,training_2.started,cross_2.started,image_3.started,aperture_3.started,cross_2.stopped,image_3.stopped,aperture_3.stopped,training_2.stopped,nyeste_instruks.started,text_5.started,key_resp_6.started,nyeste_instruks.stopped,key_resp_6.keys,key_resp_6.rt,key_resp_6.duration,test_2.started,cross2_2.started,cross2_2.stopped,image_4.started,key_resp_7.started,aperture_4.started,test_2.stopped,trials_4.key_resp_7.keys,trials_4.key_resp_7.rt,trials_4.key_resp_7.duration,Instruction1.started,Instruktion.started,key_resp.started,Instruction1.stopped,key_resp.keys,key_resp.rt,key_resp.duration,participant,session,date,expName,psychopyVersion,frameRate,expStart,
,,,,,,,,,,,,,,,,,,,,,,,,,,,,,,,,,0.008700590013177134,0.021117116004461423,0.021117116004461423,44.802656558007584,space,44.7663483209908,None,,,,,,,,,,,,,,,,,,,,,,,,,,,,,,,,,,,,,,,,,,,,,,,,,,,,,,,,,,,,,,,,,,,,,,,,,,,,,,,,,,752387,001,2024-12-05_12h06.32.676,Test,2024.2.1,60.25659935099452,2024-12-05 12h09.43.219640 +0100,
,,,,,,,,,,,,,,,,,,,,,,,,,,,,,,,,,,,,,,,,44.80273800800205,44.832904911003425,44.832904911003425,69.33774533000542,space,24.489933855002164,None,,,,,,,,,,,,,,,,,,,,,,,,,,,,,,,,,,,,,,,,,,,,,,,,,,,,,,,,,,,,,,,,,,,,,,,,,,,752387,001,2024-12-05_12h06.32.676,Test,2024.2.1,60.25659935099452,2024-12-05 12h09.43.219640 +0100,
,,,,,,,,,,,,,,,,,,,,,,,,,,,,,,,,,,,,,,,,,,,,,,,69.33788585200091,69.35284384500119,69.35284384500119,87.47206245300185,space,18.11151601000165,None,,,,,,,,,,,,,,,,,,,,,,,,,,,,,,,,,,,,,,,,,,,,,,,,,,,,,,,,,,,,,,,,,,,,752387,001,2024-12-05_12h06.32.676,Test,2024.2.1,60.25659935099452,2024-12-05 12h09.43.219640 +0100,
35,150,180,62,None,0,0,0,,,,,,,,0,0,0,34,,,,,,,,,,,,,87.55504034900514,,,,,,,,,,,,,,,,,,,,,,,87.54247531700821,87.55504034900514,87.68676777501241,87.68676777501241,87.77085149200866,89.38745503000973,89.38745503000973,89.37121754100372,,,,,,,,,,,,,,,,,,,,,,,,,,,,,,,,,,,,,,,,,,,,,,,,,,,,,,,,,,,,752387,001,2024-12-05_12h06.32.676,Test,2024.2.1,60.25659935099452,2024-12-05 12h09.43.219640 +0100,
6,150,30,67,None,1,1,0,,,,,,,,0,1,1,5,,,,,,,,,,,,,89.38745503000973,,,,,,,,,,,,,,,,,,,,,,,89.37870546900376,89.38745503000973,89.58709780601203,89.58709780601203,89.58709780601203,91.28763349600194,91.28763349600194,91.2713129340118,,,,,,,,,,,,,,,,,,,,,,,,,,,,,,,,,,,,,,,,,,,,,,,,,,,,,,,,,,,,752387,001,2024-12-05_12h06.32.676,Test,2024.2.1,60.25659935099452,2024-12-05 12h09.43.219640 +0100,
17,150,90,59,None,2,2,0,,,,,,,,0,2,2,16,,,,,,,,,,,,,91.28763349600194,,,,,,,,,,,,,,,,,,,,,,,91.27746257001127,91.28763349600194,91.48740374100453,91.48740374100453,91.48740374100453,93.18798311300634,93.18798311300634,93.17216298400308,,,,,,,,,,,,,,,,,,,,,,,,,,,,,,,,,,,,,,,,,,,,,,,,,,,,,,,,,,,,752387,001,2024-12-05_12h06.32.676,Test,2024.2.1,60.25659935099452,2024-12-05 12h09.43.219640 +0100,
28,150,150,63,None,3,3,0,,,,,,,,0,3,3,27,,,,,,,,,,,,,93.18798311300634,,,,,,,,,,,,,,,,,,,,,,,93.18025826400844,93.18798311300634,93.37046624800132,93.37046624800132,93.38777679100167,95.07117321100668,95.07117321100668,95.05554436300008,,,,,,,,,,,,,,,,,,,,,,,,,,,,,,,,,,,,,,,,,,,,,,,,,,,,,,,,,,,,752387,001,2024-12-05_12h06.32.676,Test,2024.2.1,60.25659935099452,2024-12-05 12h09.43.219640 +0100,
19,150,90,43,None,4,4,0,,,,,,,,0,4,4,18,,,,,,,,,,,,,95.07117321100668,,,,,,,,,,,,,,,,,,,,,,,95.06292321400542,95.07117321100668,95.27191489101097,95.27191489101097,95.27191489101097,96.98105571400083,96.98105571400083,96.95624429600139,,,,,,,,,,,,,,,,,,,,,,,,,,,,,,,,,,,,,,,,,,,,,,,,,,,,,,,,,,,,752387,001,2024-12-05_12h06.32.676,Test,2024.2.1,60.25659935099452,2024-12-05 12h09.43.219640 +0100,
16,150,90,34,None,5,5,0,,,,,,,,0,5,5,15,,,,,,,,,,,,,96.98105571400083,,,,,,,,,,,,,,,,,,,,,,,96.97313319701061,96.98105571400083,97.1711858510098,97.1711858510098,97.18795623100596,98.87286781100556,98.87286781100556,98.85577331201057,,,,,,,,,,,,,,,,,,,,,,,,,,,,,,,,,,,,,,,,,,,,,,,,,,,,,,,,,,,,752387,001,2024-12-05_12h06.32.676,Test,2024.2.1,60.25659935099452,2024-12-05 12h09.43.219640 +0100,
26,150,150,11,None,6,6,0,,,,,,,,0,6,6,25,,,,,,,,,,,,,98.87286781100556,,,,,,,,,,,,,,,,,,,,,,,98.86573540201061,98.87286781100556,99.07192517700605,99.07192517700605,99.08842185600952,100.77112496500195,100.77112496500195,100.75612467199971,,,,,,,,,,,,,,,,,,,,,,,,,,,,,,,,,,,,,,,,,,,,,,,,,,,,,,,,,,,,752387,001,2024-12-05_12h06.32.676,Test,2024.2.1,60.25659935099452,2024-12-05 12h09.43.219640 +0100,
8,150,30,35,None,7,7,0,,,,,,,,0,7,7,7,,,,,,,,,,,,,100.77112496500195,,,,,,,,,,,,,,,,,,,,,,,100.76212459801172,100.77112496500195,100.97196238501056,100.97196238501056,100.97196238501056,102.67119345100946,102.67119345100946,102.65589875201113,,,,,,,,,,,,,,,,,,,,,,,,,,,,,,,,,,,,,,,,,,,,,,,,,,,,,,,,,,,,752387,001,2024-12-05_12h06.32.676,Test,2024.2.1,60.25659935099452,2024-12-05 12h09.43.219640 +0100,
7,150,30,30,None,8,8,0,,,,,,,,0,8,8,6,,,,,,,,,,,,,102.67119345100946,,,,,,,,,,,,,,,,,,,,,,,102.66242628901091,102.67119345100946,102.8719754590129,102.8719754590129,102.8719754590129,104.5720790070045,104.5720790070045,104.55587051300972,,,,,,,,,,,,,,,,,,,,,,,,,,,,,,,,,,,,,,,,,,,,,,,,,,,,,,,,,,,,752387,001,2024-12-05_12h06.32.676,Test,2024.2.1,60.25659935099452,2024-12-05 12h09.43.219640 +0100,
30,150,150,38,None,9,9,0,,,,,,,,0,9,9,29,,,,,,,,,,,,,104.5720790070045,,,,,,,,,,,,,,,,,,,,,,,104.56319828600681,104.5720790070045,104.7730170670111,104.7730170670111,104.7730170670111,,,106.47237332700752,,,,,,,,,,,,,,,,,,,,,,,,,,,,,,,,,,,,,,,,,,,,,,,,,,,,,,,,,,,,752387,001,2024-12-05_12h06.32.676,Test,2024.2.1,60.25659935099452,2024-12-05 12h09.43.219640 +0100,
9,150,30,10,None,10,10,0,,,,,,,,0,10,10,8,,,,,,,,,,,,,106.48951636800484,,,,,,,,,,,,,,,,,,,,,,,106.48131748300511,106.48951636800484,106.67324117400858,106.67324117400858,106.6897028730018,108.37370816001203,108.37370816001203,108.35665470000822,,,,,,,,,,,,,,,,,,,,,,,,,,,,,,,,,,,,,,,,,,,,,,,,,,,,,,,,,,,,752387,001,2024-12-05_12h06.32.676,Test,2024.2.1,60.25659935099452,2024-12-05 12h09.43.219640 +0100,
5,150,0,68,None,11,11,0,,,,,,,,0,11,11,4,,,,,,,,,,,,,108.37370816001203,,,,,,,,,,,,,,,,,,,,,,,108.36576243500167,108.37370816001203,108.57209009300277,108.57209009300277,108.58905959200638,110.27199860800465,110.27199860800465,110.25639459100785,,,,,,,,,,,,,,,,,,,,,,,,,,,,,,,,,,,,,,,,,,,,,,,,,,,,,,,,,,,,752387,001,2024-12-05_12h06.32.676,Test,2024.2.1,60.25659935099452,2024-12-05 12h09.43.219640 +0100,
33,150,180,20,None,12,12,0,,,,,,,,0,12,12,32,,,,,,,,,,,,,110.27199860800465,,,,,,,,,,,,,,,,,,,,,,,110.2617413130065,110.27199860800465,110.47299525199924,110.47299525199924,110.47299525199924,112.17339304101188,112.17339304101188,112.1575684290001,,,,,,,,,,,,,,,,,,,,,,,,,,,,,,,,,,,,,,,,,,,,,,,,,,,,,,,,,,,,752387,001,2024-12-05_12h06.32.676,Test,2024.2.1,60.25659935099452,2024-12-05 12h09.43.219640 +0100,
10,150,30,45,None,13,13,0,,,,,,,,0,13,13,9,,,,,,,,,,,,,112.17339304101188,,,,,,,,,,,,,,,,,,,,,,,112.1650907889998,112.17339304101188,112.37279360899993,112.37279360899993,112.38827474600112,114.07253574900096,114.07253574900096,114.05646774100023,,,,,,,,,,,,,,,,,,,,,,,,,,,,,,,,,,,,,,,,,,,,,,,,,,,,,,,,,,,,752387,001,2024-12-05_12h06.32.676,Test,2024.2.1,60.25659935099452,2024-12-05 12h09.43.219640 +0100,
2,150,0,49,None,14,14,0,,,,,,,,0,14,14,1,,,,,,,,,,,,,114.07253574900096,,,,,,,,,,,,,,,,,,,,,,,114.06233320900355,114.07253574900096,114.27238763100468,114.27238763100468,114.27238763100468,115.97274911600107,115.97274911600107,115.95680056601122,,,,,,,,,,,,,,,,,,,,,,,,,,,,,,,,,,,,,,,,,,,,,,,,,,,,,,,,,,,,752387,001,2024-12-05_12h06.32.676,Test,2024.2.1,60.25659935099452,2024-12-05 12h09.43.219640 +0100,
21,150,120,23,None,15,15,0,,,,,,,,0,15,15,20,,,,,,,,,,,,,115.97274911600107,,,,,,,,,,,,,,,,,,,,,,,115.96223198100051,115.97274911600107,116.17247340200993,116.17247340200993,116.17247340200993,117.8722421220009,117.8722421220009,117.85699571401346,,,,,,,,,,,,,,,,,,,,,,,,,,,,,,,,,,,,,,,,,,,,,,,,,,,,,,,,,,,,752387,001,2024-12-05_12h06.32.676,Test,2024.2.1,60.25659935099452,2024-12-05 12h09.43.219640 +0100,
18,150,90,17,None,16,16,0,,,,,,,,0,16,16,17,,,,,,,,,,,,,117.8722421220009,,,,,,,,,,,,,,,,,,,,,,,117.86307602000306,117.8722421220009,118.08751814501011,118.08751814501011,118.08751814501011,,,119.77306434900675,,,,,,,,,,,,,,,,,,,,,,,,,,,,,,,,,,,,,,,,,,,,,,,,,,,,,,,,,,,,752387,001,2024-12-05_12h06.32.676,Test,2024.2.1,60.25659935099452,2024-12-05 12h09.43.219640 +0100,
34,150,180,15,None,17,17,0,,,,,,,,0,17,17,33,,,,,,,,,,,,,119.7893873990106,,,,,,,,,,,,,,,,,,,,,,,119.7786814590072,119.7893873990106,119.97311349200027,119.97311349200027,119.9894907100097,121.67321560300479,121.67321560300479,121.65692227199906,,,,,,,,,,,,,,,,,,,,,,,,,,,,,,,,,,,,,,,,,,,,,,,,,,,,,,,,,,,,752387,001,2024-12-05_12h06.32.676,Test,2024.2.1,60.25659935099452,2024-12-05 12h09.43.219640 +0100,
12,150,60,6,None,18,18,0,,,,,,,,0,18,18,11,,,,,,,,,,,,,121.67321560300479,,,,,,,,,,,,,,,,,,,,,,,121.66303482399962,121.67321560300479,121.87333557801321,121.87333557801321,121.87333557801321,123.57296475100156,123.57296475100156,123.557036342012,,,,,,,,,,,,,,,,,,,,,,,,,,,,,,,,,,,,,,,,,,,,,,,,,,,,,,,,,,,,752387,001,2024-12-05_12h06.32.676,Test,2024.2.1,60.25659935099452,2024-12-05 12h09.43.219640 +0100,
1,150,0,31,None,19,19,0,,,,,,,,0,19,19,0,,,,,,,,,,,,,123.57296475100156,,,,,,,,,,,,,,,,,,,,,,,123.56300874501176,123.57296475100156,123.77313735500502,123.77313735500502,123.77313735500502,125.4732244110055,125.4732244110055,125.45717105299991,,,,,,,,,,,,,,,,,,,,,,,,,,,,,,,,,,,,,,,,,,,,,,,,,,,,,,,,,,,,752387,001,2024-12-05_12h06.32.676,Test,2024.2.1,60.25659935099452,2024-12-05 12h09.43.219640 +0100,
24,150,120,18,None,20,20,0,,,,,,,,0,20,20,23,,,,,,,,,,,,,125.4732244110055,,,,,,,,,,,,,,,,,,,,,,,125.46502606800641,125.4732244110055,125.67343158500444,125.67343158500444,125.67343158500444,127.37295714500942,127.37295714500942,127.35774497500097,,,,,,,,,,,,,,,,,,,,,,,,,,,,,,,,,,,,,,,,,,,,,,,,,,,,,,,,,,,,752387,001,2024-12-05_12h06.32.676,Test,2024.2.1,60.25659935099452,2024-12-05 12h09.43.219640 +0100,
13,150,60,29,None,21,21,0,,,,,,,,0,21,21,12,,,,,,,,,,,,,127.37295714500942,,,,,,,,,,,,,,,,,,,,,,,127.36388496401196,127.37295714500942,127.5734082560084,127.5734082560084,127.5734082560084,129.27340476099926,129.27340476099926,129.25746259900916,,,,,,,,,,,,,,,,,,,,,,,,,,,,,,,,,,,,,,,,,,,,,,,,,,,,,,,,,,,,752387,001,2024-12-05_12h06.32.676,Test,2024.2.1,60.25659935099452,2024-12-05 12h09.43.219640 +0100,
27,150,150,51,None,22,22,0,,,,,,,,0,22,22,26,,,,,,,,,,,,,129.27340476099926,,,,,,,,,,,,,,,,,,,,,,,129.2635238260118,129.27340476099926,129.47395933400549,129.47395933400549,129.47395933400549,131.17312543001026,131.17312543001026,131.15764377800224,,,,,,,,,,,,,,,,,,,,,,,,,,,,,,,,,,,,,,,,,,,,,,,,,,,,,,,,,,,,752387,001,2024-12-05_12h06.32.676,Test,2024.2.1,60.25659935099452,2024-12-05 12h09.43.219640 +0100,
4,150,0,64,None,23,23,0,,,,,,,,0,23,23,3,,,,,,,,,,,,,131.17312543001026,,,,,,,,,,,,,,,,,,,,,,,131.16477361301077,131.17312543001026,131.37486575600633,131.37486575600633,131.37486575600633,,,133.07446775000426,,,,,,,,,,,,,,,,,,,,,,,,,,,,,,,,,,,,,,,,,,,,,,,,,,,,,,,,,,,,752387,001,2024-12-05_12h06.32.676,Test,2024.2.1,60.25659935099452,2024-12-05 12h09.43.219640 +0100,
14,150,60,66,None,24,24,0,,,,,,,,0,24,24,13,,,,,,,,,,,,,133.09006650400988,,,,,,,,,,,,,,,,,,,,,,,133.08123537700158,133.09006650400988,133.274245247012,133.274245247012,133.2907615310105,134.97386491201178,134.97386491201178,134.95807782901102,,,,,,,,,,,,,,,,,,,,,,,,,,,,,,,,,,,,,,,,,,,,,,,,,,,,,,,,,,,,752387,001,2024-12-05_12h06.32.676,Test,2024.2.1,60.25659935099452,2024-12-05 12h09.43.219640 +0100,
20,150,90,2,None,25,25,0,,,,,,,,0,25,25,19,,,,,,,,,,,,,134.97386491201178,,,,,,,,,,,,,,,,,,,,,,,134.9640717430011,134.97386491201178,135.17396722901321,135.17396722901321,135.17396722901321,136.87408441200387,136.87408441200387,136.85811521801224,,,,,,,,,,,,,,,,,,,,,,,,,,,,,,,,,,,,,,,,,,,,,,,,,,,,,,,,,,,,752387,001,2024-12-05_12h06.32.676,Test,2024.2.1,60.25659935099452,2024-12-05 12h09.43.219640 +0100,
23,150,120,33,None,26,26,0,,,,,,,,0,26,26,22,,,,,,,,,,,,,136.87408441200387,,,,,,,,,,,,,,,,,,,,,,,136.86313667800277,136.87408441200387,137.0741007700126,137.0741007700126,137.0741007700126,138.77412854401337,138.77412854401337,138.75824015200487,,,,,,,,,,,,,,,,,,,,,,,,,,,,,,,,,,,,,,,,,,,,,,,,,,,,,,,,,,,,752387,001,2024-12-05_12h06.32.676,Test,2024.2.1,60.25659935099452,2024-12-05 12h09.43.219640 +0100,
3,150,0,54,None,27,27,0,,,,,,,,0,27,27,2,,,,,,,,,,,,,138.77412854401337,,,,,,,,,,,,,,,,,,,,,,,138.76335988601204,138.77412854401337,138.97413116401003,138.97413116401003,138.97413116401003,140.67363451801066,140.67363451801066,140.65854378801305,,,,,,,,,,,,,,,,,,,,,,,,,,,,,,,,,,,,,,,,,,,,,,,,,,,,,,,,,,,,752387,001,2024-12-05_12h06.32.676,Test,2024.2.1,60.25659935099452,2024-12-05 12h09.43.219640 +0100,
32,150,180,41,None,28,28,0,,,,,,,,0,28,28,31,,,,,,,,,,,,,140.67363451801066,,,,,,,,,,,,,,,,,,,,,,,140.66527585200674,140.67363451801066,140.8744831590011,140.8744831590011,140.8744831590011,142.57428878400242,142.57428878400242,142.55896576000669,,,,,,,,,,,,,,,,,,,,,,,,,,,,,,,,,,,,,,,,,,,,,,,,,,,,,,,,,,,,752387,001,2024-12-05_12h06.32.676,Test,2024.2.1,60.25659935099452,2024-12-05 12h09.43.219640 +0100,
25,150,120,22,None,29,29,0,,,,,,,,0,29,29,24,,,,,,,,,,,,,142.57428878400242,,,,,,,,,,,,,,,,,,,,,,,142.56490704500175,142.57428878400242,142.77431793200958,142.77431793200958,142.77431793200958,144.4742804950074,144.4742804950074,144.4591301670007,,,,,,,,,,,,,,,,,,,,,,,,,,,,,,,,,,,,,,,,,,,,,,,,,,,,,,,,,,,,752387,001,2024-12-05_12h06.32.676,Test,2024.2.1,60.25659935099452,2024-12-05 12h09.43.219640 +0100,
31,150,180,46,None,30,30,0,,,,,,,,0,30,30,30,,,,,,,,,,,,,144.4742804950074,,,,,,,,,,,,,,,,,,,,,,,144.4640637190023,144.4742804950074,144.67396761900454,144.67396761900454,144.67396761900454,146.3742362900084,146.3742362900084,146.35860774100001,,,,,,,,,,,,,,,,,,,,,,,,,,,,,,,,,,,,,,,,,,,,,,,,,,,,,,,,,,,,752387,001,2024-12-05_12h06.32.676,Test,2024.2.1,60.25659935099452,2024-12-05 12h09.43.219640 +0100,
29,150,150,13,None,31,31,0,,,,,,,,0,31,31,28,,,,,,,,,,,,,146.3742362900084,,,,,,,,,,,,,,,,,,,,,,,146.36433421600668,146.3742362900084,146.5759779830114,146.5759779830114,146.5759779830114,,,148.27490137900168,,,,,,,,,,,,,,,,,,,,,,,,,,,,,,,,,,,,,,,,,,,,,,,,,,,,,,,,,,,,752387,001,2024-12-05_12h06.32.676,Test,2024.2.1,60.25659935099452,2024-12-05 12h09.43.219640 +0100,
22,150,120,12,None,32,32,0,,,,,,,,0,32,32,21,,,,,,,,,,,,,148.29135030200996,,,,,,,,,,,,,,,,,,,,,,,148.28095522000513,148.29135030200996,148.4745756730117,148.4745756730117,148.49107082700357,150.17482298699906,150.17482298699906,150.1592796860059,,,,,,,,,,,,,,,,,,,,,,,,,,,,,,,,,,,,,,,,,,,,,,,,,,,,,,,,,,,,752387,001,2024-12-05_12h06.32.676,Test,2024.2.1,60.25659935099452,2024-12-05 12h09.43.219640 +0100,
15,150,60,56,None,33,33,0,,,,,,,,0,33,33,14,,,,,,,,,,,,,150.17482298699906,,,,,,,,,,,,,,,,,,,,,,,150.16463370200654,150.17482298699906,150.37584734000848,150.37584734000848,150.37584734000848,152.07822243600094,152.07822243600094,152.06030311100767,,,,,,,,,,,,,,,,,,,,,,,,,,,,,,,,,,,,,,,,,,,,,,,,,,,,,,,,,,,,752387,001,2024-12-05_12h06.32.676,Test,2024.2.1,60.25659935099452,2024-12-05 12h09.43.219640 +0100,
11,150,60,65,None,34,34,0,,,,,,,,0,34,34,10,,,,,,,,,,,,,152.07822243600094,,,,,,,,,,,,,,,,,,,,,,,152.06959469200228,152.07822243600094,152.27506231699954,152.27506231699954,152.2917382710002,153.97586774500087,153.97586774500087,153.9595727900014,,,,,,,,,,,,,,,,,,,,,,,,,,,,,,,,,,,,,,,,,,,,,,,,,,,,,,,,,,,,752387,001,2024-12-05_12h06.32.676,Test,2024.2.1,60.25659935099452,2024-12-05 12h09.43.219640 +0100,
,,,,,,,,,,,,,,,,,,,,,,,,,,,,,,,,,,,,,,,,,,,,,,,,,,,,,,,,,,,,,,153.95971843000734,153.97586774500087,153.97586774500087,177.22826620300475,space,23.24312123999698,None,,,,,,,,,,,,,,,,,,,,,,,,,,,,,,,,,,,,,,,,,,,,,,,,,,,,,752387,001,2024-12-05_12h06.32.676,Test,2024.2.1,60.25659935099452,2024-12-05 12h09.43.219640 +0100,
37,150,0,40,None,0,0,0,True,right,0.7527773400070146,None,,,,,,,,0,0,0,0,,,,,,,,,177.25919012801023,,,,,,,,,,,,,,,,,,,,,,,,,,,,,,,,,,,,,,177.24988285799918,177.25919012801023,178.26059759000782,179.24364348800736,179.24364348800736,179.24364348800736,180.01253972000268,right,0.7527773400070146,None,,,,,,,,,,,,,,,,,,,,,,,,,,,,,,,,,,,,,,,,,,,752387,001,2024-12-05_12h06.32.676,Test,2024.2.1,60.25659935099452,2024-12-05 12h09.43.219640 +0100,
16,150,90,34,None,1,1,0,False,right,1.3018614259926835,None,,,,,,,,0,1,1,1,,,,,,,,,180.04571799100086,,,,,,,,,,,,,,,,,,,,,,,,,,,,,,,,,,,,,,180.01761341901147,180.04571799100086,181.06058128100995,182.02715460000036,182.02715460000036,182.02715460000036,183.33139839200885,right,1.3018614259926835,None,,,,,,,,,,,,,,,,,,,,,,,,,,,,,,,,,,,,,,,,,,,752387,001,2024-12-05_12h06.32.676,Test,2024.2.1,60.25659935099452,2024-12-05 12h09.43.219640 +0100,
51,150,90,48,None,2,2,0,True,left,0.8830777989933267,None,,,,,,,,0,2,2,2,,,,,,,,,183.34807475900743,,,,,,,,,,,,,,,,,,,,,,,,,,,,,,,,,,,,,,183.33866330700403,183.34807475900743,184.36100265300774,185.34558293600276,185.34558293600276,185.34558293600276,186.2465107050084,left,0.8830777989933267,None,,,,,,,,,,,,,,,,,,,,,,,,,,,,,,,,,,,,,,,,,,,752387,001,2024-12-05_12h06.32.676,Test,2024.2.1,60.25659935099452,2024-12-05 12h09.43.219640 +0100,
54,150,90,27,None,3,3,0,True,left,1.1038284120004391,None,,,,,,,,0,3,3,3,,,,,,,,,186.26220919600746,,,,,,,,,,,,,,,,,,,,,,,,,,,,,,,,,,,,,,186.2530680810014,186.26220919600746,187.27805800900387,188.2608540890069,188.2608540890069,188.2608540890069,189.38011705700774,left,1.1038284120004391,None,,,,,,,,,,,,,,,,,,,,,,,,,,,,,,,,,,,,,,,,,,,752387,001,2024-12-05_12h06.32.676,Test,2024.2.1,60.25659935099452,2024-12-05 12h09.43.219640 +0100,
25,150,120,22,None,4,4,0,False,right,1.3300223529950017,None,,,,,,,,0,4,4,4,,,,,,,,,189.39430726200226,,,,,,,,,,,,,,,,,,,,,,,,,,,,,,,,,,,,,,189.38368687601178,189.39430726200226,190.3956578560028,191.3951136370015,191.3951136370015,191.3951136370015,192.7298188230052,right,1.3300223529950017,None,,,,,,,,,,,,,,,,,,,,,,,,,,,,,,,,,,,,,,,,,,,752387,001,2024-12-05_12h06.32.676,Test,2024.2.1,60.25659935099452,2024-12-05 12h09.43.219640 +0100,
20,150,90,2,None,5,5,0,False,left,1.5344135750056012,None,,,,,,,,0,5,5,5,,,,,,,,,192.74484557899996,,,,,,,,,,,,,,,,,,,,,,,,,,,,,,,,,,,,,,192.73337987600826,192.74484557899996,193.7445741440024,194.7295618210046,194.7295618210046,194.7295618210046,196.2796816520131,left,1.5344135750056012,None,,,,,,,,,,,,,,,,,,,,,,,,,,,,,,,,,,,,,,,,,,,752387,001,2024-12-05_12h06.32.676,Test,2024.2.1,60.25659935099452,2024-12-05 12h09.43.219640 +0100,
61,150,150,8,None,6,6,0,True,left,1.2636072229943238,None,,,,,,,,0,6,6,6,,,,,,,,,196.29515358700883,,,,,,,,,,,,,,,,,,,,,,,,,,,,,,,,,,,,,,196.28576358300052,196.29515358700883,197.29501744500885,198.2784700480115,198.2784700480115,198.2784700480115,199.54706798000552,left,1.2636072229943238,None,,,,,,,,,,,,,,,,,,,,,,,,,,,,,,,,,,,,,,,,,,,752387,001,2024-12-05_12h06.32.676,Test,2024.2.1,60.25659935099452,2024-12-05 12h09.43.219640 +0100,
22,150,120,12,None,7,7,0,False,right,1.163907548005227,None,,,,,,,,0,7,7,7,,,,,,,,,199.56124038100825,,,,,,,,,,,,,,,,,,,,,,,,,,,,,,,,,,,,,,199.5505874770024,199.56124038100825,200.5623701930017,201.56198372300423,201.56198372300423,201.56198372300423,202.75280945601116,right,1.163907548005227,None,,,,,,,,,,,,,,,,,,,,,,,,,,,,,,,,,,,,,,,,,,,752387,001,2024-12-05_12h06.32.676,Test,2024.2.1,60.25659935099452,2024-12-05 12h09.43.219640 +0100,
33,150,180,20,None,8,8,0,False,right,1.1680117870128015,None,,,,,,,,0,8,8,8,,,,,,,,,202.76464321000094,,,,,,,,,,,,,,,,,,,,,,,,,,,,,,,,,,,,,,202.75679732199933,202.76464321000094,203.778632268004,204.76231538700813,204.76231538700813,204.76231538700813,205.94797691200802,right,1.1680117870128015,None,,,,,,,,,,,,,,,,,,,,,,,,,,,,,,,,,,,,,,,,,,,752387,001,2024-12-05_12h06.32.676,Test,2024.2.1,60.25659935099452,2024-12-05 12h09.43.219640 +0100,
58,150,120,39,None,9,9,0,True,left,1.3979129229992395,None,,,,,,,,0,9,9,9,,,,,,,,,205.96230700700835,,,,,,,,,,,,,,,,,,,,,,,,,,,,,,,,,,,,,,205.95232886601298,205.96230700700835,206.96273697400466,207.96179265200044,207.96179265200044,207.96179265200044,209.36463299501338,left,1.3979129229992395,None,,,,,,,,,,,,,,,,,,,,,,,,,,,,,,,,,,,,,,,,,,,752387,001,2024-12-05_12h06.32.676,Test,2024.2.1,60.25659935099452,2024-12-05 12h09.43.219640 +0100,
32,150,180,41,None,10,10,0,False,right,1.1016288880055072,None,,,,,,,,0,10,10,10,,,,,,,,,209.37858994001,,,,,,,,,,,,,,,,,,,,,,,,,,,,,,,,,,,,,,209.36799253600475,209.37858994001,210.37903115700465,211.37936938300845,211.37936938300845,211.37936938300845,212.49846965000324,right,1.1016288880055072,None,,,,,,,,,,,,,,,,,,,,,,,,,,,,,,,,,,,,,,,,,,,752387,001,2024-12-05_12h06.32.676,Test,2024.2.1,60.25659935099452,2024-12-05 12h09.43.219640 +0100,
44,150,30,36,None,11,11,0,True,left,1.3185750959964935,None,,,,,,,,0,11,11,11,,,,,,,,,212.51348964300996,,,,,,,,,,,,,,,,,,,,,,,,,,,,,,,,,,,,,,212.50477921000856,212.51348964300996,213.51400958900922,214.512630207013,214.512630207013,214.512630207013,215.84819901001174,left,1.3185750959964935,None,,,,,,,,,,,,,,,,,,,,,,,,,,,,,,,,,,,,,,,,,,,752387,001,2024-12-05_12h06.32.676,Test,2024.2.1,60.25659935099452,2024-12-05 12h09.43.219640 +0100,
31,150,180,46,None,12,12,0,False,right,1.1515399380004965,None,,,,,,,,0,12,12,12,,,,,,,,,215.86228433600627,,,,,,,,,,,,,,,,,,,,,,,,,,,,,,,,,,,,,,215.85176781500923,215.86228433600627,216.86293835600372,217.86307947800378,217.86307947800378,217.86307947800378,219.0319678990054,right,1.1515399380004965,None,,,,,,,,,,,,,,,,,,,,,,,,,,,,,,,,,,,,,,,,,,,752387,001,2024-12-05_12h06.32.676,Test,2024.2.1,60.25659935099452,2024-12-05 12h09.43.219640 +0100,
8,150,30,35,None,13,13,0,False,left,1.7896838480082806,None,,,,,,,,0,13,13,13,,,,,,,,,219.04589396600204,,,,,,,,,,,,,,,,,,,,,,,,,,,,,,,,,,,,,,219.03558030200657,219.04589396600204,220.04653876301018,221.04722870900878,221.04722870900878,221.04722870900878,222.84821561000717,left,1.7896838480082806,None,,,,,,,,,,,,,,,,,,,,,,,,,,,,,,,,,,,,,,,,,,,752387,001,2024-12-05_12h06.32.676,Test,2024.2.1,60.25659935099452,2024-12-05 12h09.43.219640 +0100,
60,150,120,53,None,14,14,0,True,left,0.8804023810080253,None,,,,,,,,0,14,14,14,,,,,,,,,222.8637356790132,,,,,,,,,,,,,,,,,,,,,,,,,,,,,,,,,,,,,,222.85412645600445,222.8637356790132,223.86337228100456,224.86356839600194,224.86356839600194,224.86356839600194,225.74868006100587,left,0.8804023810080253,None,,,,,,,,,,,,,,,,,,,,,,,,,,,,,,,,,,,,,,,,,,,752387,001,2024-12-05_12h06.32.676,Test,2024.2.1,60.25659935099452,2024-12-05 12h09.43.219640 +0100,
18,150,90,17,None,15,15,0,False,right,1.1083524909918196,None,,,,,,,,0,15,15,15,,,,,,,,,225.76315295501263,,,,,,,,,,,,,,,,,,,,,,,,,,,,,,,,,,,,,,225.7521358140075,225.76315295501263,226.76483016500424,227.76410512501025,227.76410512501025,227.76410512501025,228.88267522500246,right,1.1083524909918196,None,,,,,,,,,,,,,,,,,,,,,,,,,,,,,,,,,,,,,,,,,,,752387,001,2024-12-05_12h06.32.676,Test,2024.2.1,60.25659935099452,2024-12-05 12h09.43.219640 +0100,
5,150,0,68,None,16,16,0,False,right,0.7527604450006038,None,,,,,,,,0,16,16,16,,,,,,,,,228.89659593401302,,,,,,,,,,,,,,,,,,,,,,,,,,,,,,,,,,,,,,228.88625356800912,228.89659593401302,229.8965727550094,230.89741635500104,230.89741635500104,230.89741635500104,231.66525959300634,right,0.7527604450006038,None,,,,,,,,,,,,,,,,,,,,,,,,,,,,,,,,,,,,,,,,,,,752387,001,2024-12-05_12h06.32.676,Test,2024.2.1,60.25659935099452,2024-12-05 12h09.43.219640 +0100,
55,150,90,57,None,17,17,0,True,right,0.9721862989972578,None,,,,,,,,0,17,17,17,,,,,,,,,231.68081528200128,,,,,,,,,,,,,,,,,,,,,,,,,,,,,,,,,,,,,,231.67129434300296,231.68081528200128,232.68080241999996,233.68106178600283,233.68106178600283,233.68106178600283,234.66566088500258,right,0.9721862989972578,None,,,,,,,,,,,,,,,,,,,,,,,,,,,,,,,,,,,,,,,,,,,752387,001,2024-12-05_12h06.32.676,Test,2024.2.1,60.25659935099452,2024-12-05 12h09.43.219640 +0100,
57,150,120,21,None,18,18,0,True,left,1.3482925950083882,None,,,,,,,,0,18,18,18,,,,,,,,,234.6870903550007,,,,,,,,,,,,,,,,,,,,,,,,,,,,,,,,,,,,,,234.67904469001223,234.6870903550007,235.69808315800037,236.68094979300804,236.68094979300804,236.68094979300804,238.03364092500124,left,1.3482925950083882,None,,,,,,,,,,,,,,,,,,,,,,,,,,,,,,,,,,,,,,,,,,,752387,001,2024-12-05_12h06.32.676,Test,2024.2.1,60.25659935099452,2024-12-05 12h09.43.219640 +0100,
9,150,30,10,None,19,19,0,False,right,1.0754450679960428,None,,,,,,,,0,19,19,19,,,,,,,,,238.04757320100907,,,,,,,,,,,,,,,,,,,,,,,,,,,,,,,,,,,,,,238.03780620101315,238.04757320100907,239.04899062101322,240.0478345520096,240.0478345520096,240.0478345520096,241.1326455810049,right,1.0754450679960428,None,,,,,,,,,,,,,,,,,,,,,,,,,,,,,,,,,,,,,,,,,,,752387,001,2024-12-05_12h06.32.676,Test,2024.2.1,60.25659935099452,2024-12-05 12h09.43.219640 +0100,
3,150,0,54,None,20,20,0,False,right,1.0734608710044995,None,,,,,,,,0,20,20,20,,,,,,,,,241.14750471300795,,,,,,,,,,,,,,,,,,,,,,,,,,,,,,,,,,,,,,241.1369503110036,241.14750471300795,242.1478004540113,243.1313468980079,243.1313468980079,243.1313468980079,244.21651809700415,right,1.0734608710044995,None,,,,,,,,,,,,,,,,,,,,,,,,,,,,,,,,,,,,,,,,,,,752387,001,2024-12-05_12h06.32.676,Test,2024.2.1,60.25659935099452,2024-12-05 12h09.43.219640 +0100,
46,150,60,47,None,21,21,0,True,right,1.7419906070135767,None,,,,,,,,0,21,21,21,,,,,,,,,244.2322309930023,,,,,,,,,,,,,,,,,,,,,,,,,,,,,,,,,,,,,,244.22329698200338,244.2322309930023,245.23203145401203,246.2319389070035,246.2319389070035,246.2319389070035,247.9830035930063,right,1.7419906070135767,None,,,,,,,,,,,,,,,,,,,,,,,,,,,,,,,,,,,,,,,,,,,752387,001,2024-12-05_12h06.32.676,Test,2024.2.1,60.25659935099452,2024-12-05 12h09.43.219640 +0100,
19,150,90,43,None,22,22,0,False,right,2.1255739829939557,None,,,,,,,,0,22,22,22,,,,,,,,,247.9977848270064,,,,,,,,,,,,,,,,,,,,,,,,,,,,,,,,,,,,,,247.98697609599913,247.9977848270064,248.9988786419999,249.98195751001185,249.98195751001185,249.98195751001185,252.11623008899915,right,2.1255739829939557,None,,,,,,,,,,,,,,,,,,,,,,,,,,,,,,,,,,,,,,,,,,,752387,001,2024-12-05_12h06.32.676,Test,2024.2.1,60.25659935099452,2024-12-05 12h09.43.219640 +0100,
48,150,60,5,None,23,23,0,True,left,1.365815430006478,None,,,,,,,,0,23,23,23,,,,,,,,,252.13168859900907,,,,,,,,,,,,,,,,,,,,,,,,,,,,,,,,,,,,,,252.12137541201082,252.13168859900907,253.13235960800375,254.1156480230129,254.1156480230129,254.1156480230129,255.48507286400127,left,1.365815430006478,None,,,,,,,,,,,,,,,,,,,,,,,,,,,,,,,,,,,,,,,,,,,752387,001,2024-12-05_12h06.32.676,Test,2024.2.1,60.25659935099452,2024-12-05 12h09.43.219640 +0100,
12,150,60,6,None,24,24,0,False,right,1.072149380997871,None,,,,,,,,0,24,24,24,,,,,,,,,255.4984884590085,,,,,,,,,,,,,,,,,,,,,,,,,,,,,,,,,,,,,,255.48846385000797,255.4984884590085,256.49943550101307,257.4992149210011,257.4992149210011,257.4992149210011,258.58360262399947,right,1.072149380997871,None,,,,,,,,,,,,,,,,,,,,,,,,,,,,,,,,,,,,,,,,,,,752387,001,2024-12-05_12h06.32.676,Test,2024.2.1,60.25659935099452,2024-12-05 12h09.43.219640 +0100,
49,150,60,42,None,25,25,0,True,right,1.5635497780021979,None,,,,,,,,0,25,25,25,,,,,,,,,258.5989139370067,,,,,,,,,,,,,,,,,,,,,,,,,,,,,,,,,,,,,,258.58904664200963,258.5989139370067,259.59921507201216,260.58356201200513,260.58356201200513,260.58356201200513,262.15154480200727,right,1.5635497780021979,None,,,,,,,,,,,,,,,,,,,,,,,,,,,,,,,,,,,,,,,,,,,752387,001,2024-12-05_12h06.32.676,Test,2024.2.1,60.25659935099452,2024-12-05 12h09.43.219640 +0100,
64,150,150,69,None,26,26,0,True,right,1.560306721003144,None,,,,,,,,0,26,26,26,,,,,,,,,262.1663381670078,,,,,,,,,,,,,,,,,,,,,,,,,,,,,,,,,,,,,,262.15770612400956,262.1663381670078,263.166420382011,264.16611950300285,264.16611950300285,264.16611950300285,265.736238618003,right,1.560306721003144,None,,,,,,,,,,,,,,,,,,,,,,,,,,,,,,,,,,,,,,,,,,,752387,001,2024-12-05_12h06.32.676,Test,2024.2.1,60.25659935099452,2024-12-05 12h09.43.219640 +0100,
69,150,180,26,None,27,27,0,True,left,1.416691599006299,None,,,,,,,,0,27,27,27,,,,,,,,,265.7502000280074,,,,,,,,,,,,,,,,,,,,,,,,,,,,,,,,,,,,,,265.7423629650002,265.7502000280074,266.749377457003,267.75043944500794,267.75043944500794,267.75043944500794,269.16955041800975,left,1.416691599006299,None,,,,,,,,,,,,,,,,,,,,,,,,,,,,,,,,,,,,,,,,,,,752387,001,2024-12-05_12h06.32.676,Test,2024.2.1,60.25659935099452,2024-12-05 12h09.43.219640 +0100,
47,150,60,14,None,28,28,0,True,left,1.1735239230038133,None,,,,,,,,0,28,28,28,,,,,,,,,269.1841325360001,,,,,,,,,,,,,,,,,,,,,,,,,,,,,,,,,,,,,,269.1747317590052,269.1841325360001,270.1828006380092,271.1841327680013,271.1841327680013,271.1841327680013,272.3679913030064,left,1.1735239230038133,None,,,,,,,,,,,,,,,,,,,,,,,,,,,,,,,,,,,,,,,,,,,752387,001,2024-12-05_12h06.32.676,Test,2024.2.1,60.25659935099452,2024-12-05 12h09.43.219640 +0100,
43,150,30,37,None,29,29,0,True,right,1.4511166310112458,None,,,,,,,,0,29,29,29,,,,,,,,,272.3826826709992,,,,,,,,,,,,,,,,,,,,,,,,,,,,,,,,,,,,,,272.37363926701073,272.3826826709992,273.3839900640014,274.38357176100544,274.38357176100544,274.38357176100544,275.85203657401144,right,1.4511166310112458,None,,,,,,,,,,,,,,,,,,,,,,,,,,,,,,,,,,,,,,,,,,,752387,001,2024-12-05_12h06.32.676,Test,2024.2.1,60.25659935099452,2024-12-05 12h09.43.219640 +0100,
6,150,30,67,None,30,30,0,False,left,1.3562993029918289,None,,,,,,,,0,30,30,30,,,,,,,,,275.8676012740034,,,,,,,,,,,,,,,,,,,,,,,,,,,,,,,,,,,,,,275.85817554000823,275.8676012740034,276.86729721601296,277.8676600190083,277.8676600190083,277.8676600190083,279.2355250840046,left,1.3562993029918289,None,,,,,,,,,,,,,,,,,,,,,,,,,,,,,,,,,,,,,,,,,,,752387,001,2024-12-05_12h06.32.676,Test,2024.2.1,60.25659935099452,2024-12-05 12h09.43.219640 +0100,
26,150,150,11,None,31,31,0,False,left,1.8189871089998633,None,,,,,,,,0,31,31,31,,,,,,,,,279.25052329500613,,,,,,,,,,,,,,,,,,,,,,,,,,,,,,,,,,,,,,279.23905841501255,279.25052329500613,280.2508413540054,281.2352175820124,281.2352175820124,281.2352175820124,283.070705806007,left,1.8189871089998633,None,,,,,,,,,,,,,,,,,,,,,,,,,,,,,,,,,,,,,,,,,,,752387,001,2024-12-05_12h06.32.676,Test,2024.2.1,60.25659935099452,2024-12-05 12h09.43.219640 +0100,
7,150,30,30,None,32,32,0,False,right,0.7808401279908139,None,,,,,,,,0,32,32,32,,,,,,,,,283.08485639700666,,,,,,,,,,,,,,,,,,,,,,,,,,,,,,,,,,,,,,283.07516412599944,283.08485639700666,284.0842768900038,285.0843662900006,285.0843662900006,285.0843662900006,285.87127947300905,right,0.7808401279908139,None,,,,,,,,,,,,,,,,,,,,,,,,,,,,,,,,,,,,,,,,,,,752387,001,2024-12-05_12h06.32.676,Test,2024.2.1,60.25659935099452,2024-12-05 12h09.43.219640 +0100,
4,150,0,64,None,33,33,0,False,right,0.8082545590004884,None,,,,,,,,0,33,33,33,,,,,,,,,285.8846731700032,,,,,,,,,,,,,,,,,,,,,,,,,,,,,,,,,,,,,,285.8748893390002,285.8846731700032,286.8847320280038,287.8848415800021,287.8848415800021,287.8848415800021,288.7035531850124,right,0.8082545590004884,None,,,,,,,,,,,,,,,,,,,,,,,,,,,,,,,,,,,,,,,,,,,752387,001,2024-12-05_12h06.32.676,Test,2024.2.1,60.25659935099452,2024-12-05 12h09.43.219640 +0100,
52,150,90,58,None,34,34,0,True,right,1.584054670005571,None,,,,,,,,0,34,34,34,,,,,,,,,288.718218850001,,,,,,,,,,,,,,,,,,,,,,,,,,,,,,,,,,,,,,288.70944478000456,288.718218850001,289.7179355840053,290.7176920990023,290.7176920990023,290.7176920990023,292.3043433010025,right,1.584054670005571,None,,,,,,,,,,,,,,,,,,,,,,,,,,,,,,,,,,,,,,,,,,,752387,001,2024-12-05_12h06.32.676,Test,2024.2.1,60.25659935099452,2024-12-05 12h09.43.219640 +0100,
45,150,30,7,None,35,35,0,True,right,0.853588567013503,None,,,,,,,,0,35,35,35,,,,,,,,,292.31765501100745,,,,,,,,,,,,,,,,,,,,,,,,,,,,,,,,,,,,,,292.30924642900936,292.31765501100745,293.3186385320005,294.31810045400925,294.31810045400925,294.31810045400925,295.18668188201264,right,0.853588567013503,None,,,,,,,,,,,,,,,,,,,,,,,,,,,,,,,,,,,,,,,,,,,752387,001,2024-12-05_12h06.32.676,Test,2024.2.1,60.25659935099452,2024-12-05 12h09.43.219640 +0100,
42,150,30,9,None,36,36,0,True,right,0.9184047489980003,None,,,,,,,,0,36,36,36,,,,,,,,,295.20221049200336,,,,,,,,,,,,,,,,,,,,,,,,,,,,,,,,,,,,,,295.1927965710056,295.20221049200336,296.2017658620025,297.2024223470071,297.2024223470071,297.2024223470071,298.1368790109991,right,0.9184047489980003,None,,,,,,,,,,,,,,,,,,,,,,,,,,,,,,,,,,,,,,,,,,,752387,001,2024-12-05_12h06.32.676,Test,2024.2.1,60.25659935099452,2024-12-05 12h09.43.219640 +0100,
59,150,120,4,None,37,37,0,True,left,1.183838258992182,None,,,,,,,,0,37,37,37,,,,,,,,,298.1599589890102,,,,,,,,,,,,,,,,,,,,,,,,,,,,,,,,,,,,,,298.1524274530093,298.1599589890102,299.1694023279997,300.1528350350127,300.1528350350127,300.1528350350127,301.35408863201155,left,1.183838258992182,None,,,,,,,,,,,,,,,,,,,,,,,,,,,,,,,,,,,,,,,,,,,752387,001,2024-12-05_12h06.32.676,Test,2024.2.1,60.25659935099452,2024-12-05 12h09.43.219640 +0100,
24,150,120,18,None,38,38,0,False,right,1.0691630670044105,None,,,,,,,,0,38,38,38,,,,,,,,,301.3684255230037,,,,,,,,,,,,,,,,,,,,,,,,,,,,,,,,,,,,,,301.35806492601114,301.3684255230037,302.36883101401327,303.3688624770002,303.3688624770002,303.3688624770002,304.4547523250076,right,1.0691630670044105,None,,,,,,,,,,,,,,,,,,,,,,,,,,,,,,,,,,,,,,,,,,,752387,001,2024-12-05_12h06.32.676,Test,2024.2.1,60.25659935099452,2024-12-05 12h09.43.219640 +0100,
17,150,90,59,None,39,39,0,False,left,1.4703362050058786,None,,,,,,,,0,39,39,39,,,,,,,,,304.4699968750065,,,,,,,,,,,,,,,,,,,,,,,,,,,,,,,,,,,,,,304.46160321299976,304.4699968750065,305.46919023100054,306.4695491279999,306.4695491279999,306.4695491279999,307.9546950840013,left,1.4703362050058786,None,,,,,,,,,,,,,,,,,,,,,,,,,,,,,,,,,,,,,,,,,,,752387,001,2024-12-05_12h06.32.676,Test,2024.2.1,60.25659935099452,2024-12-05 12h09.43.219640 +0100,
13,150,60,29,None,40,40,0,False,left,1.8069593160034856,None,,,,,,,,0,40,40,40,,,,,,,,,307.968739628006,,,,,,,,,,,,,,,,,,,,,,,,,,,,,,,,,,,,,,307.9583347590087,307.968739628006,308.96943152601307,309.96923239801254,309.96923239801254,309.96923239801254,311.78801701701013,left,1.8069593160034856,None,,,,,,,,,,,,,,,,,,,,,,,,,,,,,,,,,,,,,,,,,,,752387,001,2024-12-05_12h06.32.676,Test,2024.2.1,60.25659935099452,2024-12-05 12h09.43.219640 +0100,
23,150,120,33,None,41,41,0,False,right,1.0388995940011228,None,,,,,,,,0,41,41,41,,,,,,,,,311.8024112330022,,,,,,,,,,,,,,,,,,,,,,,,,,,,,,,,,,,,,,311.7917766090104,311.8024112330022,312.8035025220015,313.8031285340112,313.8031285340112,313.8031285340112,314.85519397701137,right,1.0388995940011228,None,,,,,,,,,,,,,,,,,,,,,,,,,,,,,,,,,,,,,,,,,,,752387,001,2024-12-05_12h06.32.676,Test,2024.2.1,60.25659935099452,2024-12-05 12h09.43.219640 +0100,
29,150,150,13,None,42,42,0,False,right,0.8686459140008083,None,,,,,,,,0,42,42,42,,,,,,,,,314.8695260860113,,,,,,,,,,,,,,,,,,,,,,,,,,,,,,,,,,,,,,314.85875278600724,314.8695260860113,315.8697539450077,316.8699302919995,316.8699302919995,316.8699302919995,317.7556614950008,right,0.8686459140008083,None,,,,,,,,,,,,,,,,,,,,,,,,,,,,,,,,,,,,,,,,,,,752387,001,2024-12-05_12h06.32.676,Test,2024.2.1,60.25659935099452,2024-12-05 12h09.43.219640 +0100,
70,150,180,61,None,43,43,0,True,left,1.1128725180024048,None,,,,,,,,0,43,43,43,,,,,,,,,317.772258270008,,,,,,,,,,,,,,,,,,,,,,,,,,,,,,,,,,,,,,317.7633493070025,317.772258270008,318.78686330000346,319.7708616970049,319.7708616970049,319.7708616970049,320.8887669800024,left,1.1128725180024048,None,,,,,,,,,,,,,,,,,,,,,,,,,,,,,,,,,,,,,,,,,,,752387,001,2024-12-05_12h06.32.676,Test,2024.2.1,60.25659935099452,2024-12-05 12h09.43.219640 +0100,
41,150,30,44,None,44,44,0,True,right,1.587818524989416,None,,,,,,,,0,44,44,44,,,,,,,,,320.90402956001344,,,,,,,,,,,,,,,,,,,,,,,,,,,,,,,,,,,,,,320.89533235800627,320.90402956001344,321.9031441190018,322.88797364100174,322.88797364100174,322.88797364100174,324.4879798470065,right,1.587818524989416,None,,,,,,,,,,,,,,,,,,,,,,,,,,,,,,,,,,,,,,,,,,,752387,001,2024-12-05_12h06.32.676,Test,2024.2.1,60.25659935099452,2024-12-05 12h09.43.219640 +0100,
38,150,0,3,None,45,45,0,True,left,2.5699636439967435,None,,,,,,,,0,45,45,45,,,,,,,,,324.5050823030033,,,,,,,,,,,,,,,,,,,,,,,,,,,,,,,,,,,,,,324.4959315730084,324.5050823030033,325.50447950900707,326.4871904890024,326.4871904890024,326.4871904890024,329.0728618080029,left,2.5699636439967435,None,,,,,,,,,,,,,,,,,,,,,,,,,,,,,,,,,,,,,,,,,,,752387,001,2024-12-05_12h06.32.676,Test,2024.2.1,60.25659935099452,2024-12-05 12h09.43.219640 +0100,
50,150,60,52,None,46,46,0,True,left,1.3342482169973664,None,,,,,,,,0,46,46,46,,,,,,,,,329.08961984900816,,,,,,,,,,,,,,,,,,,,,,,,,,,,,,,,,,,,,,329.08038936900266,329.08961984900816,330.10393632401247,331.0873017430131,331.0873017430131,331.0873017430131,332.42413952801144,left,1.3342482169973664,None,,,,,,,,,,,,,,,,,,,,,,,,,,,,,,,,,,,,,,,,,,,752387,001,2024-12-05_12h06.32.676,Test,2024.2.1,60.25659935099452,2024-12-05 12h09.43.219640 +0100,
10,150,30,45,None,47,47,0,False,right,0.9614434479881311,None,,,,,,,,0,47,47,47,,,,,,,,,332.43832950400247,,,,,,,,,,,,,,,,,,,,,,,,,,,,,,,,,,,,,,332.42775803200493,332.43832950400247,333.43822875201295,334.4376028120023,334.4376028120023,334.4376028120023,335.4063365430047,right,0.9614434479881311,None,,,,,,,,,,,,,,,,,,,,,,,,,,,,,,,,,,,,,,,,,,,752387,001,2024-12-05_12h06.32.676,Test,2024.2.1,60.25659935099452,2024-12-05 12h09.43.219640 +0100,
30,150,150,38,None,48,48,0,False,right,1.8152584849885898,None,,,,,,,,0,48,48,48,,,,,,,,,335.4204017390002,,,,,,,,,,,,,,,,,,,,,,,,,,,,,,,,,,,,,,335.41028051500325,335.4204017390002,336.42176156200003,337.4211334730062,337.4211334730062,337.4211334730062,339.2415080050123,right,1.8152584849885898,None,,,,,,,,,,,,,,,,,,,,,,,,,,,,,,,,,,,,,,,,,,,752387,001,2024-12-05_12h06.32.676,Test,2024.2.1,60.25659935099452,2024-12-05 12h09.43.219640 +0100,
65,150,150,55,None,49,49,0,True,left,1.1568425610021222,None,,,,,,,,0,49,49,49,,,,,,,,,339.25696801200684,,,,,,,,,,,,,,,,,,,,,,,,,,,,,,,,,,,,,,339.2475141650066,339.25696801200684,340.2723698500049,341.25605156800884,341.25605156800884,341.25605156800884,342.4223229180061,left,1.1568425610021222,None,,,,,,,,,,,,,,,,,,,,,,,,,,,,,,,,,,,,,,,,,,,752387,001,2024-12-05_12h06.32.676,Test,2024.2.1,60.25659935099452,2024-12-05 12h09.43.219640 +0100,
2,150,0,49,None,50,50,0,False,right,2.23010123000131,None,,,,,,,,0,50,50,50,,,,,,,,,342.4383977210091,,,,,,,,,,,,,,,,,,,,,,,,,,,,,,,,,,,,,,342.4259557690093,342.4383977210091,343.438302554001,344.4226908440032,344.4226908440032,344.4226908440032,346.65784478001297,right,2.23010123000131,None,,,,,,,,,,,,,,,,,,,,,,,,,,,,,,,,,,,,,,,,,,,752387,001,2024-12-05_12h06.32.676,Test,2024.2.1,60.25659935099452,2024-12-05 12h09.43.219640 +0100,
56,150,120,1,None,51,51,0,True,left,1.7980758069898002,None,,,,,,,,0,51,51,51,,,,,,,,,346.6728341560083,,,,,,,,,,,,,,,,,,,,,,,,,,,,,,,,,,,,,,346.66383390000556,346.6728341560083,347.6723661569995,348.6719888910011,348.6719888910011,348.6719888910011,350.4746466330107,left,1.7980758069898002,None,,,,,,,,,,,,,,,,,,,,,,,,,,,,,,,,,,,,,,,,,,,752387,001,2024-12-05_12h06.32.676,Test,2024.2.1,60.25659935099452,2024-12-05 12h09.43.219640 +0100,
63,150,150,19,None,52,52,0,True,left,0.9830851959995925,None,,,,,,,,0,52,52,52,,,,,,,,,350.49022401501134,,,,,,,,,,,,,,,,,,,,,,,,,,,,,,,,,,,,,,350.4814590780006,350.49022401501134,351.5051440120005,352.48981597000966,352.48981597000966,352.48981597000966,353.47534395800903,left,0.9830851959995925,None,,,,,,,,,,,,,,,,,,,,,,,,,,,,,,,,,,,,,,,,,,,752387,001,2024-12-05_12h06.32.676,Test,2024.2.1,60.25659935099452,2024-12-05 12h09.43.219640 +0100,
36,150,0,60,None,53,53,0,True,left,1.430494350992376,None,,,,,,,,0,53,53,53,,,,,,,,,353.49022181700275,,,,,,,,,,,,,,,,,,,,,,,,,,,,,,,,,,,,,,353.48095605900744,353.49022181700275,354.49007332000474,355.48925934301224,355.48925934301224,355.48925934301224,356.9247108520067,left,1.430494350992376,None,,,,,,,,,,,,,,,,,,,,,,,,,,,,,,,,,,,,,,,,,,,752387,001,2024-12-05_12h06.32.676,Test,2024.2.1,60.25659935099452,2024-12-05 12h09.43.219640 +0100,
11,150,60,65,None,54,54,0,False,right,0.9804585430101724,None,,,,,,,,0,54,54,54,,,,,,,,,356.93889820300683,,,,,,,,,,,,,,,,,,,,,,,,,,,,,,,,,,,,,,356.9282761020004,356.93889820300683,357.9394512860017,358.939340626006,358.939340626006,358.939340626006,359.9246406510065,right,0.9804585430101724,None,,,,,,,,,,,,,,,,,,,,,,,,,,,,,,,,,,,,,,,,,,,752387,001,2024-12-05_12h06.32.676,Test,2024.2.1,60.25659935099452,2024-12-05 12h09.43.219640 +0100,
67,150,180,50,None,55,55,0,True,right,2.396027224007412,None,,,,,,,,0,55,55,55,,,,,,,,,359.94069580601354,,,,,,,,,,,,,,,,,,,,,,,,,,,,,,,,,,,,,,359.93144289600605,359.94069580601354,360.9396993780101,361.9388998320064,361.9388998320064,361.9388998320064,364.34139897800924,right,2.396027224007412,None,,,,,,,,,,,,,,,,,,,,,,,,,,,,,,,,,,,,,,,,,,,752387,001,2024-12-05_12h06.32.676,Test,2024.2.1,60.25659935099452,2024-12-05 12h09.43.219640 +0100,
53,150,90,32,None,56,56,0,True,left,1.246831538999686,None,,,,,,,,0,56,56,56,,,,,,,,,364.35682942801213,,,,,,,,,,,,,,,,,,,,,,,,,,,,,,,,,,,,,,364.3470857760112,364.35682942801213,365.3566229210119,366.356897967009,366.356897967009,366.356897967009,367.6089701120072,left,1.246831538999686,None,,,,,,,,,,,,,,,,,,,,,,,,,,,,,,,,,,,,,,,,,,,752387,001,2024-12-05_12h06.32.676,Test,2024.2.1,60.25659935099452,2024-12-05 12h09.43.219640 +0100,
28,150,150,63,None,57,57,0,False,right,1.2413862550019985,None,,,,,,,,0,57,57,57,,,,,,,,,367.62456073300564,,,,,,,,,,,,,,,,,,,,,,,,,,,,,,,,,,,,,,367.6155949590029,367.62456073300564,368.6402018850058,369.6239533550106,369.6239533550106,369.6239533550106,370.87465336101013,right,1.2413862550019985,None,,,,,,,,,,,,,,,,,,,,,,,,,,,,,,,,,,,,,,,,,,,752387,001,2024-12-05_12h06.32.676,Test,2024.2.1,60.25659935099452,2024-12-05 12h09.43.219640 +0100,
62,150,150,28,None,58,58,0,True,left,1.4525106090004556,None,,,,,,,,0,58,58,58,,,,,,,,,370.8911025240086,,,,,,,,,,,,,,,,,,,,,,,,,,,,,,,,,,,,,,370.8815720240091,370.8911025240086,371.890617380006,372.87375980301294,372.87375980301294,372.87375980301294,374.342291220004,left,1.4525106090004556,None,,,,,,,,,,,,,,,,,,,,,,,,,,,,,,,,,,,,,,,,,,,752387,001,2024-12-05_12h06.32.676,Test,2024.2.1,60.25659935099452,2024-12-05 12h09.43.219640 +0100,
35,150,180,62,None,59,59,0,False,left,2.5432852689991705,None,,,,,,,,0,59,59,59,,,,,,,,,374.35713615200075,,,,,,,,,,,,,,,,,,,,,,,,,,,,,,,,,,,,,,374.3481406120118,374.35713615200075,375.3575688580022,376.3419003440067,376.3419003440067,376.3419003440067,378.8924870160117,left,2.5432852689991705,None,,,,,,,,,,,,,,,,,,,,,,,,,,,,,,,,,,,,,,,,,,,752387,001,2024-12-05_12h06.32.676,Test,2024.2.1,60.25659935099452,2024-12-05 12h09.43.219640 +0100,
15,150,60,56,None,60,60,0,False,right,1.7366350059892284,None,,,,,,,,0,60,60,60,,,,,,,,,378.90729152101267,,,,,,,,,,,,,,,,,,,,,,,,,,,,,,,,,,,,,,378.89595566201024,378.90729152101267,379.907815286002,380.9070366560045,380.9070366560045,380.9070366560045,382.65987478800525,right,1.7366350059892284,None,,,,,,,,,,,,,,,,,,,,,,,,,,,,,,,,,,,,,,,,,,,752387,001,2024-12-05_12h06.32.676,Test,2024.2.1,60.25659935099452,2024-12-05 12h09.43.219640 +0100,
27,150,150,51,None,61,61,0,False,right,4.642341279002721,None,,,,,,,,0,61,61,61,,,,,,,,,382.674375609,,,,,,,,,,,,,,,,,,,,,,,,,,,,,,,,,,,,,,382.66353805401013,382.674375609,383.6746067410131,384.67430121700454,384.67430121700454,384.67430121700454,389.32607473700773,right,4.642341279002721,None,387.67477739001333,387.67477739001333,387.67477739001333,,,,,,,,,,,,,,,,,,,,,,,,,,,,,,,,,,,,,,,,752387,001,2024-12-05_12h06.32.676,Test,2024.2.1,60.25659935099452,2024-12-05 12h09.43.219640 +0100,
66,150,180,24,None,62,62,0,True,left,1.6839679120021174,None,,,,,,,,0,62,62,62,,,,,,,,,389.3422730760067,,,,,,,,,,,,,,,,,,,,,,,,,,,,,,,,,,,,,,389.33347574900836,389.3422730760067,390.3415726030071,391.32491371801007,391.32491371801007,391.32491371801007,393.01124388900644,left,1.6839679120021174,None,,,,,,,,,,,,,,,,,,,,,,,,,,,,,,,,,,,,,,,,,,,752387,001,2024-12-05_12h06.32.676,Test,2024.2.1,60.25659935099452,2024-12-05 12h09.43.219640 +0100,
14,150,60,66,None,63,63,0,False,left,1.777290489000734,None,,,,,,,,0,63,63,63,,,,,,,,,393.02466142500634,,,,,,,,,,,,,,,,,,,,,,,,,,,,,,,,,,,,,,393.01497605199984,393.02466142500634,394.0250752360007,395.0255635030044,395.0255635030044,395.0255635030044,396.8100090799999,left,1.777290489000734,None,,,,,,,,,,,,,,,,,,,,,,,,,,,,,,,,,,,,,,,,,,,752387,001,2024-12-05_12h06.32.676,Test,2024.2.1,60.25659935099452,2024-12-05 12h09.43.219640 +0100,
34,150,180,15,None,64,64,0,False,right,2.267905194006744,None,,,,,,,,0,64,64,64,,,,,,,,,396.8256000100082,,,,,,,,,,,,,,,,,,,,,,,,,,,,,,,,,,,,,,396.81360412000504,396.8256000100082,397.8252916830097,398.8252260030131,398.8252260030131,398.8252260030131,401.1098450980062,right,2.267905194006744,None,,,,,,,,,,,,,,,,,,,,,,,,,,,,,,,,,,,,,,,,,,,752387,001,2024-12-05_12h06.32.676,Test,2024.2.1,60.25659935099452,2024-12-05 12h09.43.219640 +0100,
21,150,120,23,None,65,65,0,False,left,1.0357750410039444,None,,,,,,,,0,65,65,65,,,,,,,,,401.12511669201194,,,,,,,,,,,,,,,,,,,,,,,,,,,,,,,,,,,,,,401.11367712100036,401.12511669201194,402.12558461600565,403.12535520800157,403.12535520800157,403.12535520800157,404.17692951000936,left,1.0357750410039444,None,,,,,,,,,,,,,,,,,,,,,,,,,,,,,,,,,,,,,,,,,,,752387,001,2024-12-05_12h06.32.676,Test,2024.2.1,60.25659935099452,2024-12-05 12h09.43.219640 +0100,
68,150,180,16,None,66,66,0,True,left,0.8343969810084673,None,,,,,,,,0,66,66,66,,,,,,,,,404.19196050200844,,,,,,,,,,,,,,,,,,,,,,,,,,,,,,,,,,,,,,404.18189012800576,404.19196050200844,405.19223179000255,406.1928931840084,406.1928931840084,406.1928931840084,407.0447274140024,left,0.8343969810084673,None,,,,,,,,,,,,,,,,,,,,,,,,,,,,,,,,,,,,,,,,,,,752387,001,2024-12-05_12h06.32.676,Test,2024.2.1,60.25659935099452,2024-12-05 12h09.43.219640 +0100,
1,150,0,31,None,67,67,0,False,right,1.0386152630089782,None,,,,,,,,0,67,67,67,,,,,,,,,407.0589563350077,,,,,,,,,,,,,,,,,,,,,,,,,,,,,,,,,,,,,,407.048390957003,407.0589563350077,408.0594742670073,409.0593444140104,409.0593444140104,409.0593444140104,410.11190244401223,right,1.0386152630089782,None,,,,,,,,,,,,,,,,,,,,,,,,,,,,,,,,,,,,,,,,,,,752387,001,2024-12-05_12h06.32.676,Test,2024.2.1,60.25659935099452,2024-12-05 12h09.43.219640 +0100,
39,150,0,70,None,68,68,0,True,left,1.4904956800019136,None,,,,,,,,0,68,68,68,,,,,,,,,410.12898624800437,,,,,,,,,,,,,,,,,,,,,,,,,,,,,,,,,,,,,,410.1197958480043,410.12898624800437,411.1429323360062,412.12675257600495,412.12675257600495,412.12675257600495,413.6289305720129,left,1.4904956800019136,None,,,,,,,,,,,,,,,,,,,,,,,,,,,,,,,,,,,,,,,,,,,752387,001,2024-12-05_12h06.32.676,Test,2024.2.1,60.25659935099452,2024-12-05 12h09.43.219640 +0100,
40,150,0,25,None,69,69,0,True,right,0.9340445060079219,None,,,,,,,,0,69,69,69,,,,,,,,,413.64900808500533,,,,,,,,,,,,,,,,,,,,,,,,,,,,,,,,,,,,,,413.6414135740051,413.64900808500533,414.6603136900085,415.6433569410001,415.6433569410001,415.6433569410001,416.5952710870042,right,0.9340445060079219,None,,,,,,,,,,,,,,,,,,,,,,,,,,,,,,,,,,,,,,,,,,,752387,001,2024-12-05_12h06.32.676,Test,2024.2.1,60.25659935099452,2024-12-05 12h09.43.219640 +0100,
,,,,,,,,,,,,,,,,,,,,,,,,,,,,,,,,,,,,,,,,,,,,,,,,,,,,,,,,,,,,,,,,,,,,,,,,,,,,,,,,,,416.5955273030122,416.61017091599933,416.61017091599933,424.71177631900355,space,8.092111688005389,None,,,,,,,,,,,,,,,,,,,,,,,,,,,,,,,,,752387,001,2024-12-05_12h06.32.676,Test,2024.2.1,60.25659935099452,2024-12-05 12h09.43.219640 +0100,
10,150,30,45,None,0,0,0,,,,,,,,,,,,,,,,0,0,0,9,,,,,424.74116416501056,,,,,,,,,,,,,,,,,,,,,,,,,,,,,,,,,,,,,,,,,,,,,,,,,,,,,,,,,,424.73183479800355,424.74116416501056,424.92755673700594,424.92755673700594,424.94372864000616,426.6274830520124,426.6274830520124,426.6122101180081,,,,,,,,,,,,,,,,,,,,,,,,,752387,001,2024-12-05_12h06.32.676,Test,2024.2.1,60.25659935099452,2024-12-05 12h09.43.219640 +0100,
28,150,150,63,None,1,1,0,,,,,,,,,,,,,,,,0,1,1,27,,,,,426.6274830520124,,,,,,,,,,,,,,,,,,,,,,,,,,,,,,,,,,,,,,,,,,,,,,,,,,,,,,,,,,426.618825329002,426.6274830520124,426.81070764501055,426.81070764501055,426.82718532900617,428.51009596401127,428.51009596401127,428.494663837002,,,,,,,,,,,,,,,,,,,,,,,,,752387,001,2024-12-05_12h06.32.676,Test,2024.2.1,60.25659935099452,2024-12-05 12h09.43.219640 +0100,
9,150,30,10,None,2,2,0,,,,,,,,,,,,,,,,0,2,2,8,,,,,428.51009596401127,,,,,,,,,,,,,,,,,,,,,,,,,,,,,,,,,,,,,,,,,,,,,,,,,,,,,,,,,,428.5017328370013,428.5270537930046,428.71067661000416,428.71067661000416,428.72716147301253,430.4109225860011,430.4109225860011,430.3945680559991,,,,,,,,,,,,,,,,,,,,,,,,,752387,001,2024-12-05_12h06.32.676,Test,2024.2.1,60.25659935099452,2024-12-05 12h09.43.219640 +0100,
29,150,150,13,None,3,3,0,,,,,,,,,,,,,,,,0,3,3,28,,,,,430.4109225860011,,,,,,,,,,,,,,,,,,,,,,,,,,,,,,,,,,,,,,,,,,,,,,,,,,,,,,,,,,430.3993964750116,430.42818524000177,430.6111312430003,430.6111312430003,430.62785980600165,432.3111661360017,432.3111661360017,432.2947200380004,,,,,,,,,,,,,,,,,,,,,,,,,752387,001,2024-12-05_12h06.32.676,Test,2024.2.1,60.25659935099452,2024-12-05 12h09.43.219640 +0100,
6,150,30,67,None,4,4,0,,,,,,,,,,,,,,,,0,4,4,5,,,,,432.3111661360017,,,,,,,,,,,,,,,,,,,,,,,,,,,,,,,,,,,,,,,,,,,,,,,,,,,,,,,,,,432.30008472500776,432.3278566030058,432.5279433760006,432.5279433760006,432.5279433760006,434.2277939129999,434.2277939129999,434.21168736300024,,,,,,,,,,,,,,,,,,,,,,,,,752387,001,2024-12-05_12h06.32.676,Test,2024.2.1,60.25659935099452,2024-12-05 12h09.43.219640 +0100,
16,150,90,34,None,5,5,0,,,,,,,,,,,,,,,,0,5,5,15,,,,,434.2277939129999,,,,,,,,,,,,,,,,,,,,,,,,,,,,,,,,,,,,,,,,,,,,,,,,,,,,,,,,,,434.2171907190059,434.2277939129999,434.4109189600131,434.4109189600131,434.4279808430001,436.1110684870073,436.1110684870073,436.09582560100534,,,,,,,,,,,,,,,,,,,,,,,,,752387,001,2024-12-05_12h06.32.676,Test,2024.2.1,60.25659935099452,2024-12-05 12h09.43.219640 +0100,
20,150,90,2,None,6,6,0,,,,,,,,,,,,,,,,0,6,6,19,,,,,436.1110684870073,,,,,,,,,,,,,,,,,,,,,,,,,,,,,,,,,,,,,,,,,,,,,,,,,,,,,,,,,,436.10138443901087,436.1110684870073,436.3112284930103,436.3112284930103,436.3112284930103,438.0109338780021,438.0109338780021,437.99576092200004,,,,,,,,,,,,,,,,,,,,,,,,,752387,001,2024-12-05_12h06.32.676,Test,2024.2.1,60.25659935099452,2024-12-05 12h09.43.219640 +0100,
23,150,120,33,None,7,7,0,,,,,,,,,,,,,,,,0,7,7,22,,,,,438.0109338780021,,,,,,,,,,,,,,,,,,,,,,,,,,,,,,,,,,,,,,,,,,,,,,,,,,,,,,,,,,438.00207589800993,438.0109338780021,438.2115059790085,438.2115059790085,438.2115059790085,439.9117280240025,439.9117280240025,439.8957316990127,,,,,,,,,,,,,,,,,,,,,,,,,752387,001,2024-12-05_12h06.32.676,Test,2024.2.1,60.25659935099452,2024-12-05 12h09.43.219640 +0100,
15,150,60,56,None,8,8,0,,,,,,,,,,,,,,,,0,8,8,14,,,,,439.9117280240025,,,,,,,,,,,,,,,,,,,,,,,,,,,,,,,,,,,,,,,,,,,,,,,,,,,,,,,,,,439.9010573680134,439.9117280240025,440.11168750700017,440.11168750700017,440.11168750700017,441.81158730400784,441.81158730400784,441.79552121400775,,,,,,,,,,,,,,,,,,,,,,,,,752387,001,2024-12-05_12h06.32.676,Test,2024.2.1,60.25659935099452,2024-12-05 12h09.43.219640 +0100,
27,150,150,51,None,9,9,0,,,,,,,,,,,,,,,,0,9,9,26,,,,,441.81158730400784,,,,,,,,,,,,,,,,,,,,,,,,,,,,,,,,,,,,,,,,,,,,,,,,,,,,,,,,,,441.8009035640134,441.81158730400784,442.01174809200165,442.01174809200165,442.01174809200165,443.71163034001074,443.71163034001074,443.69612998800585,,,,,,,,,,,,,,,,,,,,,,,,,752387,001,2024-12-05_12h06.32.676,Test,2024.2.1,60.25659935099452,2024-12-05 12h09.43.219640 +0100,
8,150,30,35,None,10,10,0,,,,,,,,,,,,,,,,0,10,10,7,,,,,443.71163034001074,,,,,,,,,,,,,,,,,,,,,,,,,,,,,,,,,,,,,,,,,,,,,,,,,,,,,,,,,,443.70243777100404,443.71163034001074,443.9117183060007,443.9117183060007,443.9117183060007,445.6118688679999,445.6118688679999,445.5957732220122,,,,,,,,,,,,,,,,,,,,,,,,,752387,001,2024-12-05_12h06.32.676,Test,2024.2.1,60.25659935099452,2024-12-05 12h09.43.219640 +0100,
34,150,180,15,None,11,11,0,,,,,,,,,,,,,,,,0,11,11,33,,,,,445.6118688679999,,,,,,,,,,,,,,,,,,,,,,,,,,,,,,,,,,,,,,,,,,,,,,,,,,,,,,,,,,445.60119685200334,445.6118688679999,445.8121708430117,445.8121708430117,445.8121708430117,447.51203068600444,447.51203068600444,447.4962050750037,,,,,,,,,,,,,,,,,,,,,,,,,752387,001,2024-12-05_12h06.32.676,Test,2024.2.1,60.25659935099452,2024-12-05 12h09.43.219640 +0100,
5,150,0,68,None,12,12,0,,,,,,,,,,,,,,,,0,12,12,4,,,,,447.51203068600444,,,,,,,,,,,,,,,,,,,,,,,,,,,,,,,,,,,,,,,,,,,,,,,,,,,,,,,,,,447.50056528400455,447.51203068600444,447.7126574060094,447.7126574060094,447.7126574060094,449.41255972601357,449.41255972601357,449.39666554100404,,,,,,,,,,,,,,,,,,,,,,,,,752387,001,2024-12-05_12h06.32.676,Test,2024.2.1,60.25659935099452,2024-12-05 12h09.43.219640 +0100,
11,150,60,65,None,13,13,0,,,,,,,,,,,,,,,,0,13,13,10,,,,,449.41255972601357,,,,,,,,,,,,,,,,,,,,,,,,,,,,,,,,,,,,,,,,,,,,,,,,,,,,,,,,,,449.40447579800093,449.41255972601357,449.61240309500135,449.61240309500135,449.61240309500135,451.31258295400767,451.31258295400767,451.29654615800246,,,,,,,,,,,,,,,,,,,,,,,,,752387,001,2024-12-05_12h06.32.676,Test,2024.2.1,60.25659935099452,2024-12-05 12h09.43.219640 +0100,
24,150,120,18,None,14,14,0,,,,,,,,,,,,,,,,0,14,14,23,,,,,451.31258295400767,,,,,,,,,,,,,,,,,,,,,,,,,,,,,,,,,,,,,,,,,,,,,,,,,,,,,,,,,,451.3029346240073,451.31258295400767,451.5132686760044,451.5132686760044,451.5132686760044,453.21227373300644,453.21227373300644,453.19703595100145,,,,,,,,,,,,,,,,,,,,,,,,,752387,001,2024-12-05_12h06.32.676,Test,2024.2.1,60.25659935099452,2024-12-05 12h09.43.219640 +0100,
7,150,30,30,None,15,15,0,,,,,,,,,,,,,,,,0,15,15,6,,,,,453.21227373300644,,,,,,,,,,,,,,,,,,,,,,,,,,,,,,,,,,,,,,,,,,,,,,,,,,,,,,,,,,453.2040639980114,453.21227373300644,453.41181029401196,453.41181029401196,453.41181029401196,455.1134444960044,455.1134444960044,455.0967665400094,,,,,,,,,,,,,,,,,,,,,,,,,752387,001,2024-12-05_12h06.32.676,Test,2024.2.1,60.25659935099452,2024-12-05 12h09.43.219640 +0100,
26,150,150,11,None,16,16,0,,,,,,,,,,,,,,,,0,16,16,25,,,,,455.1134444960044,,,,,,,,,,,,,,,,,,,,,,,,,,,,,,,,,,,,,,,,,,,,,,,,,,,,,,,,,,455.1043888730055,455.1134444960044,455.31353027200385,455.31353027200385,455.31353027200385,457.01283289100684,457.01283289100684,456.99734931401326,,,,,,,,,,,,,,,,,,,,,,,,,752387,001,2024-12-05_12h06.32.676,Test,2024.2.1,60.25659935099452,2024-12-05 12h09.43.219640 +0100,
25,150,120,22,None,17,17,0,,,,,,,,,,,,,,,,0,17,17,24,,,,,457.01283289100684,,,,,,,,,,,,,,,,,,,,,,,,,,,,,,,,,,,,,,,,,,,,,,,,,,,,,,,,,,457.00454780401196,457.01283289100684,457.2127348510112,457.2127348510112,457.2127348510112,458.9127346390014,458.9127346390014,458.8974047869997,,,,,,,,,,,,,,,,,,,,,,,,,752387,001,2024-12-05_12h06.32.676,Test,2024.2.1,60.25659935099452,2024-12-05 12h09.43.219640 +0100,
21,150,120,23,None,18,18,0,,,,,,,,,,,,,,,,0,18,18,20,,,,,458.9127346390014,,,,,,,,,,,,,,,,,,,,,,,,,,,,,,,,,,,,,,,,,,,,,,,,,,,,,,,,,,458.903295895012,458.9127346390014,459.1139476829994,459.1139476829994,459.1139476829994,460.81253154799924,460.81253154799924,460.7969665700075,,,,,,,,,,,,,,,,,,,,,,,,,752387,001,2024-12-05_12h06.32.676,Test,2024.2.1,60.25659935099452,2024-12-05 12h09.43.219640 +0100,
14,150,60,66,None,19,19,0,,,,,,,,,,,,,,,,0,19,19,13,,,,,460.81253154799924,,,,,,,,,,,,,,,,,,,,,,,,,,,,,,,,,,,,,,,,,,,,,,,,,,,,,,,,,,460.802496675009,460.81253154799924,461.0129434640112,461.0129434640112,461.0129434640112,462.7140238819993,462.7140238819993,462.6978919710091,,,,,,,,,,,,,,,,,,,,,,,,,752387,001,2024-12-05_12h06.32.676,Test,2024.2.1,60.25659935099452,2024-12-05 12h09.43.219640 +0100,
13,150,60,29,None,20,20,0,,,,,,,,,,,,,,,,0,20,20,12,,,,,462.7140238819993,,,,,,,,,,,,,,,,,,,,,,,,,,,,,,,,,,,,,,,,,,,,,,,,,,,,,,,,,,462.70601531300053,462.7140238819993,462.91394211100123,462.91394211100123,462.91394211100123,464.6132256830024,464.6132256830024,464.5973632400128,,,,,,,,,,,,,,,,,,,,,,,,,752387,001,2024-12-05_12h06.32.676,Test,2024.2.1,60.25659935099452,2024-12-05 12h09.43.219640 +0100,
3,150,0,54,None,21,21,0,,,,,,,,,,,,,,,,0,21,21,2,,,,,464.6132256830024,,,,,,,,,,,,,,,,,,,,,,,,,,,,,,,,,,,,,,,,,,,,,,,,,,,,,,,,,,464.6021624109999,464.6132256830024,464.8131862930022,464.8131862930022,464.8131862930022,466.51696079800604,466.51696079800604,466.4987352970056,,,,,,,,,,,,,,,,,,,,,,,,,752387,001,2024-12-05_12h06.32.676,Test,2024.2.1,60.25659935099452,2024-12-05 12h09.43.219640 +0100,
17,150,90,59,None,22,22,0,,,,,,,,,,,,,,,,0,22,22,16,,,,,466.51696079800604,,,,,,,,,,,,,,,,,,,,,,,,,,,,,,,,,,,,,,,,,,,,,,,,,,,,,,,,,,466.50872620299924,466.51696079800604,466.7133741090074,466.7133741090074,466.73051226300595,468.4137896480097,468.4137896480097,468.39802364600473,,,,,,,,,,,,,,,,,,,,,,,,,752387,001,2024-12-05_12h06.32.676,Test,2024.2.1,60.25659935099452,2024-12-05 12h09.43.219640 +0100,
2,150,0,49,None,23,23,0,,,,,,,,,,,,,,,,0,23,23,1,,,,,468.4137896480097,,,,,,,,,,,,,,,,,,,,,,,,,,,,,,,,,,,,,,,,,,,,,,,,,,,,,,,,,,468.40394984401064,468.4137896480097,468.6147616800008,468.6147616800008,468.6147616800008,470.31343442801153,470.31343442801153,470.29796991900366,,,,,,,,,,,,,,,,,,,,,,,,,752387,001,2024-12-05_12h06.32.676,Test,2024.2.1,60.25659935099452,2024-12-05 12h09.43.219640 +0100,
18,150,90,17,None,24,24,0,,,,,,,,,,,,,,,,0,24,24,17,,,,,470.31343442801153,,,,,,,,,,,,,,,,,,,,,,,,,,,,,,,,,,,,,,,,,,,,,,,,,,,,,,,,,,470.3037042280048,470.31343442801153,470.51408959600667,470.51408959600667,470.51408959600667,472.2140957040101,472.2140957040101,472.1981711460103,,,,,,,,,,,,,,,,,,,,,,,,,752387,001,2024-12-05_12h06.32.676,Test,2024.2.1,60.25659935099452,2024-12-05 12h09.43.219640 +0100,
4,150,0,64,None,25,25,0,,,,,,,,,,,,,,,,0,25,25,3,,,,,472.2140957040101,,,,,,,,,,,,,,,,,,,,,,,,,,,,,,,,,,,,,,,,,,,,,,,,,,,,,,,,,,472.2059404190077,472.2140957040101,472.4142982360063,472.4142982360063,472.4142982360063,474.11417829600396,474.11417829600396,474.0984894410067,,,,,,,,,,,,,,,,,,,,,,,,,752387,001,2024-12-05_12h06.32.676,Test,2024.2.1,60.25659935099452,2024-12-05 12h09.43.219640 +0100,
19,150,90,43,None,26,26,0,,,,,,,,,,,,,,,,0,26,26,18,,,,,474.11417829600396,,,,,,,,,,,,,,,,,,,,,,,,,,,,,,,,,,,,,,,,,,,,,,,,,,,,,,,,,,474.10535821301164,474.11417829600396,474.31390317200567,474.31390317200567,474.31390317200567,476.0143412500038,476.0143412500038,475.99857171199983,,,,,,,,,,,,,,,,,,,,,,,,,752387,001,2024-12-05_12h06.32.676,Test,2024.2.1,60.25659935099452,2024-12-05 12h09.43.219640 +0100,
30,150,150,38,None,27,27,0,,,,,,,,,,,,,,,,0,27,27,29,,,,,476.0143412500038,,,,,,,,,,,,,,,,,,,,,,,,,,,,,,,,,,,,,,,,,,,,,,,,,,,,,,,,,,476.0064675419999,476.0143412500038,476.2143010340078,476.2143010340078,476.2143010340078,477.91383619800035,477.91383619800035,477.89821561900317,,,,,,,,,,,,,,,,,,,,,,,,,752387,001,2024-12-05_12h06.32.676,Test,2024.2.1,60.25659935099452,2024-12-05 12h09.43.219640 +0100,
22,150,120,12,None,28,28,0,,,,,,,,,,,,,,,,0,28,28,21,,,,,477.91383619800035,,,,,,,,,,,,,,,,,,,,,,,,,,,,,,,,,,,,,,,,,,,,,,,,,,,,,,,,,,477.90432651400624,477.91383619800035,478.11499912900035,478.11499912900035,478.11499912900035,479.81377474500914,479.81377474500914,479.7982999310043,,,,,,,,,,,,,,,,,,,,,,,,,752387,001,2024-12-05_12h06.32.676,Test,2024.2.1,60.25659935099452,2024-12-05 12h09.43.219640 +0100,
1,150,0,31,None,29,29,0,,,,,,,,,,,,,,,,0,29,29,0,,,,,479.81377474500914,,,,,,,,,,,,,,,,,,,,,,,,,,,,,,,,,,,,,,,,,,,,,,,,,,,,,,,,,,479.8055993670132,479.81377474500914,480.01474879001034,480.01474879001034,480.01474879001034,481.71436241301126,481.71436241301126,481.69926650500565,,,,,,,,,,,,,,,,,,,,,,,,,752387,001,2024-12-05_12h06.32.676,Test,2024.2.1,60.25659935099452,2024-12-05 12h09.43.219640 +0100,
32,150,180,41,None,30,30,0,,,,,,,,,,,,,,,,0,30,30,31,,,,,481.71436241301126,,,,,,,,,,,,,,,,,,,,,,,,,,,,,,,,,,,,,,,,,,,,,,,,,,,,,,,,,,481.7055760630028,481.71436241301126,481.9146676350065,481.9146676350065,481.9146676350065,483.6148723660008,483.6148723660008,483.59898025800067,,,,,,,,,,,,,,,,,,,,,,,,,752387,001,2024-12-05_12h06.32.676,Test,2024.2.1,60.25659935099452,2024-12-05 12h09.43.219640 +0100,
12,150,60,6,None,31,31,0,,,,,,,,,,,,,,,,0,31,31,11,,,,,483.6148723660008,,,,,,,,,,,,,,,,,,,,,,,,,,,,,,,,,,,,,,,,,,,,,,,,,,,,,,,,,,483.6060570860136,483.6148723660008,483.8145433210011,483.8145433210011,483.8145433210011,485.5146187950013,485.5146187950013,485.49903902001097,,,,,,,,,,,,,,,,,,,,,,,,,752387,001,2024-12-05_12h06.32.676,Test,2024.2.1,60.25659935099452,2024-12-05 12h09.43.219640 +0100,
33,150,180,20,None,32,32,0,,,,,,,,,,,,,,,,0,32,32,32,,,,,485.5146187950013,,,,,,,,,,,,,,,,,,,,,,,,,,,,,,,,,,,,,,,,,,,,,,,,,,,,,,,,,,485.5058476480044,485.5146187950013,485.71500352000294,485.71500352000294,485.71500352000294,487.4147138240078,487.4147138240078,487.3993640910048,,,,,,,,,,,,,,,,,,,,,,,,,752387,001,2024-12-05_12h06.32.676,Test,2024.2.1,60.25659935099452,2024-12-05 12h09.43.219640 +0100,
31,150,180,46,None,33,33,0,,,,,,,,,,,,,,,,0,33,33,30,,,,,487.4147138240078,,,,,,,,,,,,,,,,,,,,,,,,,,,,,,,,,,,,,,,,,,,,,,,,,,,,,,,,,,487.4052661230089,487.4147138240078,487.6150908390118,487.6150908390118,487.6150908390118,489.3174259660009,489.3174259660009,489.29965738600004,,,,,,,,,,,,,,,,,,,,,,,,,752387,001,2024-12-05_12h06.32.676,Test,2024.2.1,60.25659935099452,2024-12-05 12h09.43.219640 +0100,
35,150,180,62,None,34,34,0,,,,,,,,,,,,,,,,0,34,34,34,,,,,489.3174259660009,,,,,,,,,,,,,,,,,,,,,,,,,,,,,,,,,,,,,,,,,,,,,,,,,,,,,,,,,,489.30880023899954,489.3174259660009,489.5152939690015,489.5152939690015,489.53237017799984,491.215191056006,491.215191056006,491.19992455400643,,,,,,,,,,,,,,,,,,,,,,,,,752387,001,2024-12-05_12h06.32.676,Test,2024.2.1,60.25659935099452,2024-12-05 12h09.43.219640 +0100,
,,,,,,,,,,,,,,,,,,,,,,,,,,,,,,,,,,,,,,,,,,,,,,,,,,,,,,,,,,,,,,,,,,,,,,,,,,,,,,,,,,,,,,,,,,,,,,,,,491.2000696890027,491.215191056006,491.215191056006,495.567162020001,space,4.340599834002205,None,,,,,,,,,,,,,,,,,,752387,001,2024-12-05_12h06.32.676,Test,2024.2.1,60.25659935099452,2024-12-05 12h09.43.219640 +0100,
37,150,0,40,None,0,0,0,True,,,,left,0.8017406809958629,None,,,,,,,,,,,,,0,0,0,0,495.5913864000031,,,,,,,,,,,,,,,,,,,,,,,,,,,,,,,,,,,,,,,,,,,,,,,,,,,,,,,,,,,,,,,,,,,,,,,,,495.5823688170058,495.5913864000031,496.59934082200925,497.5664660580078,497.5664660580078,497.5664660580078,498.3833823550085,left,0.8017406809958629,None,,,,,,,,752387,001,2024-12-05_12h06.32.676,Test,2024.2.1,60.25659935099452,2024-12-05 12h09.43.219640 +0100,
16,150,90,34,None,1,1,0,False,,,,right,1.164167989991256,None,,,,,,,,,,,,,0,1,1,1,498.3989155599993,,,,,,,,,,,,,,,,,,,,,,,,,,,,,,,,,,,,,,,,,,,,,,,,,,,,,,,,,,,,,,,,,,,,,,,,,498.3897085130011,498.3989155599993,499.3990885400126,500.3828534730128,500.3828534730128,500.3828534730128,501.5516159990075,right,1.164167989991256,None,,,,,,,,752387,001,2024-12-05_12h06.32.676,Test,2024.2.1,60.25659935099452,2024-12-05 12h09.43.219640 +0100,
51,150,90,48,None,2,2,0,True,,,,right,1.6269352560047992,None,,,,,,,,,,,,,0,2,2,2,501.5670161599992,,,,,,,,,,,,,,,,,,,,,,,,,,,,,,,,,,,,,,,,,,,,,,,,,,,,,,,,,,,,,,,,,,,,,,,,,501.5578061740089,501.5670161599992,502.5665498160088,503.56644824999967,503.56644824999967,503.56644824999967,505.2028865880129,right,1.6269352560047992,None,,,,,,,,752387,001,2024-12-05_12h06.32.676,Test,2024.2.1,60.25659935099452,2024-12-05 12h09.43.219640 +0100,
54,150,90,27,None,3,3,0,True,,,,left,1.6887647890107473,None,,,,,,,,,,,,,0,3,3,3,505.2199055180099,,,,,,,,,,,,,,,,,,,,,,,,,,,,,,,,,,,,,,,,,,,,,,,,,,,,,,,,,,,,,,,,,,,,,,,,,505.21094271300535,505.2199055180099,506.23307066300185,507.21669503100566,507.21669503100566,507.21669503100566,508.9174933070026,left,1.6887647890107473,None,,,,,,,,752387,001,2024-12-05_12h06.32.676,Test,2024.2.1,60.25659935099452,2024-12-05 12h09.43.219640 +0100,
25,150,120,22,None,4,4,0,False,,,,right,2.380404843002907,None,,,,,,,,,,,,,0,4,4,4,508.9327530520095,,,,,,,,,,,,,,,,,,,,,,,,,,,,,,,,,,,,,,,,,,,,,,,,,,,,,,,,,,,,,,,,,,,,,,,,,508.9211666750052,508.9327530520095,509.93362243901356,510.9165507360012,510.9165507360012,510.9165507360012,513.3018215710035,right,2.380404843002907,None,,,,,,,,752387,001,2024-12-05_12h06.32.676,Test,2024.2.1,60.25659935099452,2024-12-05 12h09.43.219640 +0100,
20,150,90,2,None,5,5,0,False,,,,right,0.784432550004567,None,,,,,,,,,,,,,0,5,5,5,513.3174408890045,,,,,,,,,,,,,,,,,,,,,,,,,,,,,,,,,,,,,,,,,,,,,,,,,,,,,,,,,,,,,,,,,,,,,,,,,513.3080966690031,513.3174408890045,514.3326759600022,515.2999593520071,515.2999593520071,515.2999593520071,516.1017617980106,right,0.784432550004567,None,,,,,,,,752387,001,2024-12-05_12h06.32.676,Test,2024.2.1,60.25659935099452,2024-12-05 12h09.43.219640 +0100,
61,150,150,8,None,6,6,0,True,,,,right,2.1788026860012906,None,,,,,,,,,,,,,0,6,6,6,516.1166906700091,,,,,,,,,,,,,,,,,,,,,,,,,,,,,,,,,,,,,,,,,,,,,,,,,,,,,,,,,,,,,,,,,,,,,,,,,516.1071631510131,516.1166906700091,517.1172636450065,518.1171565719997,518.1171565719997,518.1171565719997,520.3024329140026,right,2.1788026860012906,None,,,,,,,,752387,001,2024-12-05_12h06.32.676,Test,2024.2.1,60.25659935099452,2024-12-05 12h09.43.219640 +0100,
22,150,120,12,None,7,7,0,False,,,,right,1.1217752400116296,None,,,,,,,,,,,,,0,7,7,7,520.3167531020008,,,,,,,,,,,,,,,,,,,,,,,,,,,,,,,,,,,,,,,,,,,,,,,,,,,,,,,,,,,,,,,,,,,,,,,,,520.305806660006,520.3167531020008,521.3175006160018,522.3167773020105,522.3167773020105,522.3167773020105,523.452876411,right,1.1217752400116296,None,,,,,,,,752387,001,2024-12-05_12h06.32.676,Test,2024.2.1,60.25659935099452,2024-12-05 12h09.43.219640 +0100,
33,150,180,20,None,8,8,0,False,,,,right,1.5135159759956878,None,,,,,,,,,,,,,0,8,8,8,523.4671258100134,,,,,,,,,,,,,,,,,,,,,,,,,,,,,,,,,,,,,,,,,,,,,,,,,,,,,,,,,,,,,,,,,,,,,,,,,523.4563933700119,523.4671258100134,524.4697689450113,525.4679303510056,525.4679303510056,525.4679303510056,526.9863133320032,right,1.5135159759956878,None,,,,,,,,752387,001,2024-12-05_12h06.32.676,Test,2024.2.1,60.25659935099452,2024-12-05 12h09.43.219640 +0100,
58,150,120,39,None,9,9,0,True,,,,right,1.4219307660096092,None,,,,,,,,,,,,,0,9,9,9,527.0013493450097,,,,,,,,,,,,,,,,,,,,,,,,,,,,,,,,,,,,,,,,,,,,,,,,,,,,,,,,,,,,,,,,,,,,,,,,,526.9925077740045,527.0013493450097,528.0010376920109,529.0018104330084,529.0018104330084,529.0018104330084,530.4361812100105,right,1.4219307660096092,None,,,,,,,,752387,001,2024-12-05_12h06.32.676,Test,2024.2.1,60.25659935099452,2024-12-05 12h09.43.219640 +0100,
32,150,180,41,None,10,10,0,False,,,,right,1.0896586399903754,None,,,,,,,,,,,,,0,10,10,10,530.4510399850114,,,,,,,,,,,,,,,,,,,,,,,,,,,,,,,,,,,,,,,,,,,,,,,,,,,,,,,,,,,,,,,,,,,,,,,,,530.4399782800028,530.4510399850114,531.4510823650053,532.4506172980036,532.4506172980036,532.4506172980036,533.553603073,right,1.0896586399903754,None,,,,,,,,752387,001,2024-12-05_12h06.32.676,Test,2024.2.1,60.25659935099452,2024-12-05 12h09.43.219640 +0100,
44,150,30,36,None,11,11,0,True,,,,left,1.7139903280040016,None,,,,,,,,,,,,,0,11,11,11,533.5685270030081,,,,,,,,,,,,,,,,,,,,,,,,,,,,,,,,,,,,,,,,,,,,,,,,,,,,,,,,,,,,,,,,,,,,,,,,,533.5596037530049,533.5685270030081,534.5678931430011,535.5684456020099,535.5684456020099,535.5684456020099,537.2873539790016,left,1.7139903280040016,None,,,,,,,,752387,001,2024-12-05_12h06.32.676,Test,2024.2.1,60.25659935099452,2024-12-05 12h09.43.219640 +0100,
31,150,180,46,None,12,12,0,False,,,,right,0.8582857379951747,None,,,,,,,,,,,,,0,12,12,12,537.3014338810026,,,,,,,,,,,,,,,,,,,,,,,,,,,,,,,,,,,,,,,,,,,,,,,,,,,,,,,,,,,,,,,,,,,,,,,,,537.2908515340096,537.3014338810026,538.3020834310009,539.3026093560038,539.3026093560038,539.3026093560038,540.1698910630075,right,0.8582857379951747,None,,,,,,,,752387,001,2024-12-05_12h06.32.676,Test,2024.2.1,60.25659935099452,2024-12-05 12h09.43.219640 +0100,
8,150,30,35,None,13,13,0,False,,,,right,1.2522955460008234,None,,,,,,,,,,,,,0,13,13,13,540.1846434530016,,,,,,,,,,,,,,,,,,,,,,,,,,,,,,,,,,,,,,,,,,,,,,,,,,,,,,,,,,,,,,,,,,,,,,,,,540.1733353279997,540.1846434530016,541.1855896120105,542.1859063390002,542.1859063390002,542.1859063390002,543.4541421540052,right,1.2522955460008234,None,,,,,,,,752387,001,2024-12-05_12h06.32.676,Test,2024.2.1,60.25659935099452,2024-12-05 12h09.43.219640 +0100,
60,150,120,53,None,14,14,0,True,,,,right,1.3671118450001813,None,,,,,,,,,,,,,0,14,14,14,543.4693707260012,,,,,,,,,,,,,,,,,,,,,,,,,,,,,,,,,,,,,,,,,,,,,,,,,,,,,,,,,,,,,,,,,,,,,,,,,543.4601369570009,543.4693707260012,544.4688632360048,545.453229486011,545.453229486011,545.453229486011,546.8380176940118,right,1.3671118450001813,None,,,,,,,,752387,001,2024-12-05_12h06.32.676,Test,2024.2.1,60.25659935099452,2024-12-05 12h09.43.219640 +0100,
18,150,90,17,None,15,15,0,False,,,,right,1.1951236599998083,None,,,,,,,,,,,,,0,15,15,15,546.852536107006,,,,,,,,,,,,,,,,,,,,,,,,,,,,,,,,,,,,,,,,,,,,,,,,,,,,,,,,,,,,,,,,,,,,,,,,,546.841581147004,546.852536107006,547.8523338990053,548.8529231920111,548.8529231920111,548.8529231920111,550.0544906430005,right,1.1951236599998083,None,,,,,,,,752387,001,2024-12-05_12h06.32.676,Test,2024.2.1,60.25659935099452,2024-12-05 12h09.43.219640 +0100,
5,150,0,68,None,16,16,0,False,,,,right,0.671638391999295,None,,,,,,,,,,,,,0,16,16,16,550.0689421760035,,,,,,,,,,,,,,,,,,,,,,,,,,,,,,,,,,,,,,,,,,,,,,,,,,,,,,,,,,,,,,,,,,,,,,,,,550.0578366490081,550.0689421760035,551.0694748880051,552.0693970540015,552.0693970540015,552.0693970540015,552.7547821080079,right,0.671638391999295,None,,,,,,,,752387,001,2024-12-05_12h06.32.676,Test,2024.2.1,60.25659935099452,2024-12-05 12h09.43.219640 +0100,
55,150,90,57,None,17,17,0,True,,,,left,1.2672916099982103,None,,,,,,,,,,,,,0,17,17,17,552.7701474330097,,,,,,,,,,,,,,,,,,,,,,,,,,,,,,,,,,,,,,,,,,,,,,,,,,,,,,,,,,,,,,,,,,,,,,,,,552.7602840910113,552.7701474330097,553.7702756340004,554.7694807450025,554.7694807450025,554.7694807450025,556.0392360860133,left,1.2672916099982103,None,,,,,,,,752387,001,2024-12-05_12h06.32.676,Test,2024.2.1,60.25659935099452,2024-12-05 12h09.43.219640 +0100,
57,150,120,21,None,18,18,0,True,,,,right,2.001531089001219,None,,,,,,,,,,,,,0,18,18,18,556.0540786850033,,,,,,,,,,,,,,,,,,,,,,,,,,,,,,,,,,,,,,,,,,,,,,,,,,,,,,,,,,,,,,,,,,,,,,,,,556.0453358190134,556.0540786850033,557.0701827150042,558.0534332030074,558.0534332030074,558.0534332030074,560.0705475980067,right,2.001531089001219,None,,,,,,,,752387,001,2024-12-05_12h06.32.676,Test,2024.2.1,60.25659935099452,2024-12-05 12h09.43.219640 +0100,
9,150,30,10,None,19,19,0,False,,,,left,1.6508984270039946,None,,,,,,,,,,,,,0,19,19,19,560.086991854012,,,,,,,,,,,,,,,,,,,,,,,,,,,,,,,,,,,,,,,,,,,,,,,,,,,,,,,,,,,,,,,,,,,,,,,,,560.0782908399997,560.086991854012,561.0879083309992,562.0700893419998,562.0700893419998,562.0700893419998,563.7230278000061,left,1.6508984270039946,None,,,,,,,,752387,001,2024-12-05_12h06.32.676,Test,2024.2.1,60.25659935099452,2024-12-05 12h09.43.219640 +0100,
3,150,0,54,None,20,20,0,False,,,,right,1.0828227260062704,None,,,,,,,,,,,,,0,20,20,20,563.7370690970129,,,,,,,,,,,,,,,,,,,,,,,,,,,,,,,,,,,,,,,,,,,,,,,,,,,,,,,,,,,,,,,,,,,,,,,,,563.7283672760095,563.7370690970129,564.7374381130066,565.737532212006,565.737532212006,565.737532212006,566.8226411630021,right,1.0828227260062704,None,,,,,,,,752387,001,2024-12-05_12h06.32.676,Test,2024.2.1,60.25659935099452,2024-12-05 12h09.43.219640 +0100,
46,150,60,47,None,21,21,0,True,,,,left,2.041120102003333,None,,,,,,,,,,,,,0,21,21,21,566.8380827240035,,,,,,,,,,,,,,,,,,,,,,,,,,,,,,,,,,,,,,,,,,,,,,,,,,,,,,,,,,,,,,,,,,,,,,,,,566.8291400740127,566.8380827240035,567.8376968869998,568.8382780400134,568.8382780400134,568.8382780400134,570.888893003008,left,2.041120102003333,None,,,,,,,,752387,001,2024-12-05_12h06.32.676,Test,2024.2.1,60.25659935099452,2024-12-05 12h09.43.219640 +0100,
19,150,90,43,None,22,22,0,False,,,,right,1.000311530995532,None,,,,,,,,,,,,,0,22,22,22,570.9042826570076,,,,,,,,,,,,,,,,,,,,,,,,,,,,,,,,,,,,,,,,,,,,,,,,,,,,,,,,,,,,,,,,,,,,,,,,,570.8945944410079,570.9042826570076,571.9051516170002,572.9049991089996,572.9049991089996,572.9049991089996,573.9228612150036,right,1.000311530995532,None,,,,,,,,752387,001,2024-12-05_12h06.32.676,Test,2024.2.1,60.25659935099452,2024-12-05 12h09.43.219640 +0100,
48,150,60,5,None,23,23,0,True,,,,right,2.4007443379960023,None,,,,,,,,,,,,,0,23,23,23,573.9378045400081,,,,,,,,,,,,,,,,,,,,,,,,,,,,,,,,,,,,,,,,,,,,,,,,,,,,,,,,,,,,,,,,,,,,,,,,,573.9285019430099,573.9378045400081,574.9385736920085,575.9376431300043,575.9376431300043,575.9376431300043,578.3406987600029,right,2.4007443379960023,None,,,,,,,,752387,001,2024-12-05_12h06.32.676,Test,2024.2.1,60.25659935099452,2024-12-05 12h09.43.219640 +0100,
12,150,60,6,None,24,24,0,False,,,,left,1.4554091559984954,None,,,,,,,,,,,,,0,24,24,24,578.3558232990035,,,,,,,,,,,,,,,,,,,,,,,,,,,,,,,,,,,,,,,,,,,,,,,,,,,,,,,,,,,,,,,,,,,,,,,,,578.346572917013,578.3558232990035,579.3557480200107,580.3545110960113,580.3545110960113,580.3545110960113,581.8240764020011,left,1.4554091559984954,None,,,,,,,,752387,001,2024-12-05_12h06.32.676,Test,2024.2.1,60.25659935099452,2024-12-05 12h09.43.219640 +0100,
49,150,60,42,None,25,25,0,True,,,,left,2.27229393000016,None,,,,,,,,,,,,,0,25,25,25,581.8402525710117,,,,,,,,,,,,,,,,,,,,,,,,,,,,,,,,,,,,,,,,,,,,,,,,,,,,,,,,,,,,,,,,,,,,,,,,,581.8309573260049,581.8402525710117,582.8549214020022,583.8384585320018,583.8384585320018,583.8384585320018,586.1230772530107,left,2.27229393000016,None,,,,,,,,752387,001,2024-12-05_12h06.32.676,Test,2024.2.1,60.25659935099452,2024-12-05 12h09.43.219640 +0100,
64,150,150,69,None,26,26,0,True,,,,right,2.541930826002499,None,,,,,,,,,,,,,0,26,26,26,586.138738329013,,,,,,,,,,,,,,,,,,,,,,,,,,,,,,,,,,,,,,,,,,,,,,,,,,,,,,,,,,,,,,,,,,,,,,,,,586.1297226050083,586.138738329013,587.1387978070125,588.1217243350111,588.1217243350111,588.1217243350111,590.6730040270049,right,2.541930826002499,None,,,,,,,,752387,001,2024-12-05_12h06.32.676,Test,2024.2.1,60.25659935099452,2024-12-05 12h09.43.219640 +0100,
69,150,180,26,None,27,27,0,True,,,,left,2.3169437080068747,None,,,,,,,,,,,,,0,27,27,27,590.6892567130126,,,,,,,,,,,,,,,,,,,,,,,,,,,,,,,,,,,,,,,,,,,,,,,,,,,,,,,,,,,,,,,,,,,,,,,,,590.679921035,590.6892567130126,591.6884030240035,592.6725135710003,592.6725135710003,592.6725135710003,594.9918370520027,left,2.3169437080068747,None,,,,,,,,752387,001,2024-12-05_12h06.32.676,Test,2024.2.1,60.25659935099452,2024-12-05 12h09.43.219640 +0100,
47,150,60,14,None,28,28,0,True,,,,left,2.184641632993589,None,,,,,,,,,,,,,0,28,28,28,595.0066890779999,,,,,,,,,,,,,,,,,,,,,,,,,,,,,,,,,,,,,,,,,,,,,,,,,,,,,,,,,,,,,,,,,,,,,,,,,594.9976228430023,595.0066890779999,596.0066955440125,597.0063058830128,597.0063058830128,597.0063058830128,599.2074912600074,left,2.184641632993589,None,,,,,,,,752387,001,2024-12-05_12h06.32.676,Test,2024.2.1,60.25659935099452,2024-12-05 12h09.43.219640 +0100,
43,150,30,37,None,29,29,0,True,,,,right,0.9786026349902386,None,,,,,,,,,,,,,0,29,29,29,599.2229989260086,,,,,,,,,,,,,,,,,,,,,,,,,,,,,,,,,,,,,,,,,,,,,,,,,,,,,,,,,,,,,,,,,,,,,,,,,599.2133103640081,599.2229989260086,600.2231902440108,601.2226942790003,601.2226942790003,601.2226942790003,602.2079507450107,right,0.9786026349902386,None,,,,,,,,752387,001,2024-12-05_12h06.32.676,Test,2024.2.1,60.25659935099452,2024-12-05 12h09.43.219640 +0100,
6,150,30,67,None,30,30,0,False,,,,left,0.9000375230098143,None,,,,,,,,,,,,,0,30,30,30,602.2227590290131,,,,,,,,,,,,,,,,,,,,,,,,,,,,,,,,,,,,,,,,,,,,,,,,,,,,,,,,,,,,,,,,,,,,,,,,,602.2128246990032,602.2227590290131,603.2229355540039,604.2230293560133,604.2230293560133,604.2230293560133,605.1258195980045,left,0.9000375230098143,None,,,,,,,,752387,001,2024-12-05_12h06.32.676,Test,2024.2.1,60.25659935099452,2024-12-05 12h09.43.219640 +0100,
26,150,150,11,None,31,31,0,False,,,,right,1.5557616320002126,None,,,,,,,,,,,,,0,31,31,31,605.1425978960033,,,,,,,,,,,,,,,,,,,,,,,,,,,,,,,,,,,,,,,,,,,,,,,,,,,,,,,,,,,,,,,,,,,,,,,,,605.1333191400045,605.1425978960033,606.15610117701,607.1392944580002,607.1392944580002,607.1392944580002,608.7079831560113,right,1.5557616320002126,None,,,,,,,,752387,001,2024-12-05_12h06.32.676,Test,2024.2.1,60.25659935099452,2024-12-05 12h09.43.219640 +0100,
7,150,30,30,None,32,32,0,False,,,,right,1.3676893089868827,None,,,,,,,,,,,,,0,32,32,32,608.7229073230119,,,,,,,,,,,,,,,,,,,,,,,,,,,,,,,,,,,,,,,,,,,,,,,,,,,,,,,,,,,,,,,,,,,,,,,,,608.7144574530103,608.7229073230119,609.7232731750119,610.7227999580064,610.7227999580064,610.7227999580064,612.10830458501,right,1.3676893089868827,None,,,,,,,,752387,001,2024-12-05_12h06.32.676,Test,2024.2.1,60.25659935099452,2024-12-05 12h09.43.219640 +0100,
4,150,0,64,None,33,33,0,False,,,,right,1.0582207730039954,None,,,,,,,,,,,,,0,33,33,33,612.122728798,,,,,,,,,,,,,,,,,,,,,,,,,,,,,,,,,,,,,,,,,,,,,,,,,,,,,,,,,,,,,,,,,,,,,,,,,612.1147158180102,612.122728798,613.123256196006,614.1234683580115,614.1234683580115,614.1234683580115,615.1923569680075,right,1.0582207730039954,None,,,,,,,,752387,001,2024-12-05_12h06.32.676,Test,2024.2.1,60.25659935099452,2024-12-05 12h09.43.219640 +0100,
52,150,90,58,None,34,34,0,True,,,,left,1.9766977350082016,None,,,,,,,,,,,,,0,34,34,34,615.2072343870095,,,,,,,,,,,,,,,,,,,,,,,,,,,,,,,,,,,,,,,,,,,,,,,,,,,,,,,,,,,,,,,,,,,,,,,,,615.1981396880001,615.2072343870095,616.2070575060061,617.2076047910086,617.2076047910086,617.2076047910086,619.1931923850061,left,1.9766977350082016,None,,,,,,,,752387,001,2024-12-05_12h06.32.676,Test,2024.2.1,60.25659935099452,2024-12-05 12h09.43.219640 +0100,
45,150,30,7,None,35,35,0,True,,,,left,0.9739109369984362,None,,,,,,,,,,,,,0,35,35,35,619.2085408500134,,,,,,,,,,,,,,,,,,,,,,,,,,,,,,,,,,,,,,,,,,,,,,,,,,,,,,,,,,,,,,,,,,,,,,,,,619.1992409520026,619.2085408500134,620.2084112840093,621.2074762240081,621.2074762240081,621.2074762240081,622.1927954870043,left,0.9739109369984362,None,,,,,,,,752387,001,2024-12-05_12h06.32.676,Test,2024.2.1,60.25659935099452,2024-12-05 12h09.43.219640 +0100,
42,150,30,9,None,36,36,0,True,,,,left,1.3351902159920428,None,,,,,,,,,,,,,0,36,36,36,622.2094413040031,,,,,,,,,,,,,,,,,,,,,,,,,,,,,,,,,,,,,,,,,,,,,,,,,,,,,,,,,,,,,,,,,,,,,,,,,622.2004661470128,622.2094413040031,623.2246962150093,624.2077981280017,624.2077981280017,624.2077981280017,625.5603280180076,left,1.3351902159920428,None,,,,,,,,752387,001,2024-12-05_12h06.32.676,Test,2024.2.1,60.25659935099452,2024-12-05 12h09.43.219640 +0100,
59,150,120,4,None,37,37,0,True,,,,right,2.1584479979937896,None,,,,,,,,,,,,,0,37,37,37,625.5768319570052,,,,,,,,,,,,,,,,,,,,,,,,,,,,,,,,,,,,,,,,,,,,,,,,,,,,,,,,,,,,,,,,,,,,,,,,,625.567992590004,625.5768319570052,626.5911716140108,627.5746227510099,627.5746227510099,627.5746227510099,629.7424835500133,right,2.1584479979937896,None,,,,,,,,752387,001,2024-12-05_12h06.32.676,Test,2024.2.1,60.25659935099452,2024-12-05 12h09.43.219640 +0100,
24,150,120,18,None,38,38,0,False,,,,left,1.762092439996195,None,,,,,,,,,,,,,0,38,38,38,629.7578017560008,,,,,,,,,,,,,,,,,,,,,,,,,,,,,,,,,,,,,,,,,,,,,,,,,,,,,,,,,,,,,,,,,,,,,,,,,629.7483414610033,629.7578017560008,630.7582672380086,631.7585406740109,631.7585406740109,631.7585406740109,633.526639432006,left,1.762092439996195,None,,,,,,,,752387,001,2024-12-05_12h06.32.676,Test,2024.2.1,60.25659935099452,2024-12-05 12h09.43.219640 +0100,
17,150,90,59,None,39,39,0,False,,,,right,1.317437471006997,None,,,,,,,,,,,,,0,39,39,39,633.5423990820127,,,,,,,,,,,,,,,,,,,,,,,,,,,,,,,,,,,,,,,,,,,,,,,,,,,,,,,,,,,,,,,,,,,,,,,,,633.5329161310074,633.5423990820127,634.5416315260081,635.5423120210035,635.5423120210035,635.5423120210035,636.877330776013,right,1.317437471006997,None,,,,,,,,752387,001,2024-12-05_12h06.32.676,Test,2024.2.1,60.25659935099452,2024-12-05 12h09.43.219640 +0100,
13,150,60,29,None,40,40,0,False,,,,right,2.0724416930024745,None,,,,,,,,,,,,,0,40,40,40,636.8929382420029,,,,,,,,,,,,,,,,,,,,,,,,,,,,,,,,,,,,,,,,,,,,,,,,,,,,,,,,,,,,,,,,,,,,,,,,,636.8834562870034,636.8929382420029,637.8930703190126,638.8924327220011,638.8924327220011,638.8924327220011,640.9767916010023,right,2.0724416930024745,None,,,,,,,,752387,001,2024-12-05_12h06.32.676,Test,2024.2.1,60.25659935099452,2024-12-05 12h09.43.219640 +0100,
23,150,120,33,None,41,41,0,False,,,,right,0.8069161280000117,None,,,,,,,,,,,,,0,41,41,41,640.9918187600124,,,,,,,,,,,,,,,,,,,,,,,,,,,,,,,,,,,,,,,,,,,,,,,,,,,,,,,,,,,,,,,,,,,,,,,,,640.9827556700038,640.9918187600124,641.9926679850032,642.9934882650123,642.9934882650123,642.9934882650123,643.8101607680001,right,0.8069161280000117,None,,,,,,,,752387,001,2024-12-05_12h06.32.676,Test,2024.2.1,60.25659935099452,2024-12-05 12h09.43.219640 +0100,
29,150,150,13,None,42,42,0,False,,,,left,0.9051558439969085,None,,,,,,,,,,,,,0,42,42,42,643.8265116110124,,,,,,,,,,,,,,,,,,,,,,,,,,,,,,,,,,,,,,,,,,,,,,,,,,,,,,,,,,,,,,,,,,,,,,,,,643.8174829930067,643.8265116110124,644.8259525200119,645.8090133660007,645.8090133660007,645.8090133660007,646.7278537960083,left,0.9051558439969085,None,,,,,,,,752387,001,2024-12-05_12h06.32.676,Test,2024.2.1,60.25659935099452,2024-12-05 12h09.43.219640 +0100,
70,150,180,61,None,43,43,0,True,,,,right,1.4172687500104075,None,,,,,,,,,,,,,0,43,43,43,646.7432329600124,,,,,,,,,,,,,,,,,,,,,,,,,,,,,,,,,,,,,,,,,,,,,,,,,,,,,,,,,,,,,,,,,,,,,,,,,646.7343261370115,646.7432329600124,647.7431541110127,648.7429155990103,648.7429155990103,648.7429155990103,650.162225980006,right,1.4172687500104075,None,,,,,,,,752387,001,2024-12-05_12h06.32.676,Test,2024.2.1,60.25659935099452,2024-12-05 12h09.43.219640 +0100,
41,150,30,44,None,44,44,0,True,,,,left,1.372116319995257,None,,,,,,,,,,,,,0,44,44,44,650.1781984210102,,,,,,,,,,,,,,,,,,,,,,,,,,,,,,,,,,,,,,,,,,,,,,,,,,,,,,,,,,,,,,,,,,,,,,,,,650.1693058100063,650.1781984210102,651.1933469979995,652.1766610310005,652.1766610310005,652.1766610310005,653.5614036160114,left,1.372116319995257,None,,,,,,,,752387,001,2024-12-05_12h06.32.676,Test,2024.2.1,60.25659935099452,2024-12-05 12h09.43.219640 +0100,
38,150,0,3,None,45,45,0,True,,,,left,1.0363864259998081,None,,,,,,,,,,,,,0,45,45,45,653.5764322060131,,,,,,,,,,,,,,,,,,,,,,,,,,,,,,,,,,,,,,,,,,,,,,,,,,,,,,,,,,,,,,,,,,,,,,,,,653.5668772710051,653.5764322060131,654.5763117320021,655.5764914900064,655.5764914900064,655.5764914900064,656.6292288040131,left,1.0363864259998081,None,,,,,,,,752387,001,2024-12-05_12h06.32.676,Test,2024.2.1,60.25659935099452,2024-12-05 12h09.43.219640 +0100,
50,150,60,52,None,46,46,0,True,,,,left,1.5839341480022995,None,,,,,,,,,,,,,0,46,46,46,656.6467157060106,,,,,,,,,,,,,,,,,,,,,,,,,,,,,,,,,,,,,,,,,,,,,,,,,,,,,,,,,,,,,,,,,,,,,,,,,656.6370724740118,656.6467157060106,657.6601344820083,658.6442682070046,658.6442682070046,658.6442682070046,660.2449256370019,left,1.5839341480022995,None,,,,,,,,752387,001,2024-12-05_12h06.32.676,Test,2024.2.1,60.25659935099452,2024-12-05 12h09.43.219640 +0100,
10,150,30,45,None,47,47,0,False,,,,left,1.4986408950062469,None,,,,,,,,,,,,,0,47,47,47,660.259871332004,,,,,,,,,,,,,,,,,,,,,,,,,,,,,,,,,,,,,,,,,,,,,,,,,,,,,,,,,,,,,,,,,,,,,,,,,660.2505993049999,660.259871332004,661.2604543350026,662.2607119000022,662.2607119000022,662.2607119000022,663.762977647013,left,1.4986408950062469,None,,,,,,,,752387,001,2024-12-05_12h06.32.676,Test,2024.2.1,60.25659935099452,2024-12-05 12h09.43.219640 +0100,
30,150,150,38,None,48,48,0,False,,,,right,2.5114346360060154,None,,,,,,,,,,,,,0,48,48,48,663.7795022950013,,,,,,,,,,,,,,,,,,,,,,,,,,,,,,,,,,,,,,,,,,,,,,,,,,,,,,,,,,,,,,,,,,,,,,,,,663.7702587150125,663.7795022950013,664.7938758600067,665.7773441590107,665.7773441590107,665.7773441590107,668.29580136601,right,2.5114346360060154,None,,,,,,,,752387,001,2024-12-05_12h06.32.676,Test,2024.2.1,60.25659935099452,2024-12-05 12h09.43.219640 +0100,
65,150,150,55,None,49,49,0,True,,,,left,1.7880392109946115,None,,,,,,,,,,,,,0,49,49,49,668.3110301210108,,,,,,,,,,,,,,,,,,,,,,,,,,,,,,,,,,,,,,,,,,,,,,,,,,,,,,,,,,,,,,,,,,,,,,,,,668.3017027810129,668.3110301210108,669.3112921020074,670.2955653120007,670.2955653120007,670.2955653120007,672.0961997020058,left,1.7880392109946115,None,,,,,,,,752387,001,2024-12-05_12h06.32.676,Test,2024.2.1,60.25659935099452,2024-12-05 12h09.43.219640 +0100,
2,150,0,49,None,50,50,0,False,,,,right,1.0644320930005051,None,,,,,,,,,,,,,0,50,50,50,672.1119117860071,,,,,,,,,,,,,,,,,,,,,,,,,,,,,,,,,,,,,,,,,,,,,,,,,,,,,,,,,,,,,,,,,,,,,,,,,672.1021259640111,672.1119117860071,673.1110725790058,674.1113892310095,674.1113892310095,674.1113892310095,675.1827907789993,right,1.0644320930005051,None,,,,,,,,752387,001,2024-12-05_12h06.32.676,Test,2024.2.1,60.25659935099452,2024-12-05 12h09.43.219640 +0100,
56,150,120,1,None,51,51,0,True,,,,right,1.3513627989887027,None,,,,,,,,,,,,,0,51,51,51,675.2002475540066,,,,,,,,,,,,,,,,,,,,,,,,,,,,,,,,,,,,,,,,,,,,,,,,,,,,,,,,,,,,,,,,,,,,,,,,,675.1921701240062,675.2002475540066,676.2125448690058,677.1948479730054,677.1948479730054,677.1948479730054,678.5632461940113,right,1.3513627989887027,None,,,,,,,,752387,001,2024-12-05_12h06.32.676,Test,2024.2.1,60.25659935099452,2024-12-05 12h09.43.219640 +0100,
63,150,150,19,None,52,52,0,True,,,,right,1.1881660840008408,None,,,,,,,,,,,,,0,52,52,52,678.5781719299994,,,,,,,,,,,,,,,,,,,,,,,,,,,,,,,,,,,,,,,,,,,,,,,,,,,,,,,,,,,,,,,,,,,,,,,,,678.569227193002,678.5781719299994,679.5787087200006,680.5782661300036,680.5782661300036,680.5782661300036,681.7791578160104,right,1.1881660840008408,None,,,,,,,,752387,001,2024-12-05_12h06.32.676,Test,2024.2.1,60.25659935099452,2024-12-05 12h09.43.219640 +0100,
36,150,0,60,None,53,53,0,True,,,,left,2.770762404994457,None,,,,,,,,,,,,,0,53,53,53,681.7944523690094,,,,,,,,,,,,,,,,,,,,,,,,,,,,,,,,,,,,,,,,,,,,,,,,,,,,,,,,,,,,,,,,,,,,,,,,,681.7851140920102,681.7944523690094,682.794967246009,683.778634399001,683.778634399001,683.778634399001,686.5639085360017,left,2.770762404994457,None,,,,,,,,752387,001,2024-12-05_12h06.32.676,Test,2024.2.1,60.25659935099452,2024-12-05 12h09.43.219640 +0100,
11,150,60,65,None,54,54,0,False,,,,right,0.8434598210005788,None,,,,,,,,,,,,,0,54,54,54,686.578982898005,,,,,,,,,,,,,,,,,,,,,,,,,,,,,,,,,,,,,,,,,,,,,,,,,,,,,,,,,,,,,,,,,,,,,,,,,686.5696161850065,686.578982898005,687.5789066210127,688.5783409220021,688.5783409220021,688.5783409220021,689.4306026930135,right,0.8434598210005788,None,,,,,,,,752387,001,2024-12-05_12h06.32.676,Test,2024.2.1,60.25659935099452,2024-12-05 12h09.43.219640 +0100,
67,150,180,50,None,55,55,0,True,,,,right,2.4718915930134244,None,,,,,,,,,,,,,0,55,55,55,689.4452531560091,,,,,,,,,,,,,,,,,,,,,,,,,,,,,,,,,,,,,,,,,,,,,,,,,,,,,,,,,,,,,,,,,,,,,,,,,689.4359048000042,689.4452531560091,690.4453853140003,691.4300704840134,691.4300704840134,691.4300704840134,693.913871420009,right,2.4718915930134244,None,,,,,,,,752387,001,2024-12-05_12h06.32.676,Test,2024.2.1,60.25659935099452,2024-12-05 12h09.43.219640 +0100,
53,150,90,32,None,56,56,0,True,,,,left,1.2926093480054988,None,,,,,,,,,,,,,0,56,56,56,693.9291962490097,,,,,,,,,,,,,,,,,,,,,,,,,,,,,,,,,,,,,,,,,,,,,,,,,,,,,,,,,,,,,,,,,,,,,,,,,693.9195014400029,693.9291962490097,694.9291353950102,695.9295794350037,695.9295794350037,695.9295794350037,697.2316633570008,left,1.2926093480054988,None,,,,,,,,752387,001,2024-12-05_12h06.32.676,Test,2024.2.1,60.25659935099452,2024-12-05 12h09.43.219640 +0100,
28,150,150,63,None,57,57,0,False,,,,right,2.1913800170004833,None,,,,,,,,,,,,,0,57,57,57,697.2494651599991,,,,,,,,,,,,,,,,,,,,,,,,,,,,,,,,,,,,,,,,,,,,,,,,,,,,,,,,,,,,,,,,,,,,,,,,,697.2386827090086,697.2494651599991,698.2636719090078,699.2459927360032,699.2459927360032,699.2459927360032,701.4475291109993,right,2.1913800170004833,None,,,,,,,,752387,001,2024-12-05_12h06.32.676,Test,2024.2.1,60.25659935099452,2024-12-05 12h09.43.219640 +0100,
62,150,150,28,None,58,58,0,True,,,,right,1.5922085519996472,None,,,,,,,,,,,,,0,58,58,58,701.4630234260112,,,,,,,,,,,,,,,,,,,,,,,,,,,,,,,,,,,,,,,,,,,,,,,,,,,,,,,,,,,,,,,,,,,,,,,,,701.453508851002,701.4630234260112,702.4637356070016,703.4475821390079,703.4475821390079,703.4475821390079,705.0479711940134,right,1.5922085519996472,None,,,,,,,,752387,001,2024-12-05_12h06.32.676,Test,2024.2.1,60.25659935099452,2024-12-05 12h09.43.219640 +0100,
35,150,180,62,None,59,59,0,False,,,,right,1.1706063790043117,None,,,,,,,,,,,,,0,59,59,59,705.0641694460064,,,,,,,,,,,,,,,,,,,,,,,,,,,,,,,,,,,,,,,,,,,,,,,,,,,,,,,,,,,,,,,,,,,,,,,,,705.0544409720023,705.0641694460064,706.063317764012,707.046810631,707.046810631,707.046810631,708.2313177940086,right,1.1706063790043117,None,,,,,,,,752387,001,2024-12-05_12h06.32.676,Test,2024.2.1,60.25659935099452,2024-12-05 12h09.43.219640 +0100,
15,150,60,56,None,60,60,0,False,,,,right,1.3155542550084647,None,,,,,,,,,,,,,0,60,60,60,708.2484683270013,,,,,,,,,,,,,,,,,,,,,,,,,,,,,,,,,,,,,,,,,,,,,,,,,,,,,,,,,,,,,,,,,,,,,,,,,708.2396452230023,708.2484683270013,709.2640858689992,710.2475000670092,710.2475000670092,710.2475000670092,711.56644632401,right,1.3155542550084647,None,,,,,,,,752387,001,2024-12-05_12h06.32.676,Test,2024.2.1,60.25659935099452,2024-12-05 12h09.43.219640 +0100,
27,150,150,51,None,61,61,0,False,,,,left,1.2207700139988447,None,,,,,,,,,,,,,0,61,61,61,711.5810159070097,,,,,,,,,,,,,,,,,,,,,,,,,,,,,,,,,,,,,,,,,,,,,,,,,,,,,,,,,,,,,,,,,,,,,,,,,711.5722283760115,711.5810159070097,712.5808688430116,713.5805007529998,713.5805007529998,713.5805007529998,714.814815220001,left,1.2207700139988447,None,,,,,,,,752387,001,2024-12-05_12h06.32.676,Test,2024.2.1,60.25659935099452,2024-12-05 12h09.43.219640 +0100,
66,150,180,24,None,62,62,0,True,,,,right,1.3338085980067262,None,,,,,,,,,,,,,0,62,62,62,714.8303958739998,,,,,,,,,,,,,,,,,,,,,,,,,,,,,,,,,,,,,,,,,,,,,,,,,,,,,,,,,,,,,,,,,,,,,,,,,714.8203228730126,714.8303958739998,715.831074206013,716.8138153700129,716.8138153700129,716.8138153700129,718.1504032470111,right,1.3338085980067262,None,,,,,,,,752387,001,2024-12-05_12h06.32.676,Test,2024.2.1,60.25659935099452,2024-12-05 12h09.43.219640 +0100,
14,150,60,66,None,63,63,0,False,,,,right,1.7906627710035536,None,,,,,,,,,,,,,0,63,63,63,718.1655960380012,,,,,,,,,,,,,,,,,,,,,,,,,,,,,,,,,,,,,,,,,,,,,,,,,,,,,,,,,,,,,,,,,,,,,,,,,718.1568590860115,718.1655960380012,719.1807723870006,720.1649078290066,720.1649078290066,720.1649078290066,721.9659548060008,right,1.7906627710035536,None,,,,,,,,752387,001,2024-12-05_12h06.32.676,Test,2024.2.1,60.25659935099452,2024-12-05 12h09.43.219640 +0100,
34,150,180,15,None,64,64,0,False,,,,right,1.644265581999207,None,,,,,,,,,,,,,0,64,64,64,721.9806425650022,,,,,,,,,,,,,,,,,,,,,,,,,,,,,,,,,,,,,,,,,,,,,,,,,,,,,,,,,,,,,,,,,,,,,,,,,721.9716831330006,721.9806425650022,722.9811910220014,723.9816296110075,723.9816296110075,723.9816296110075,725.6331345820072,right,1.644265581999207,None,,,,,,,,752387,001,2024-12-05_12h06.32.676,Test,2024.2.1,60.25659935099452,2024-12-05 12h09.43.219640 +0100,
21,150,120,23,None,65,65,0,False,,,,left,1.1584331550111528,None,,,,,,,,,,,,,0,65,65,65,725.6486339170078,,,,,,,,,,,,,,,,,,,,,,,,,,,,,,,,,,,,,,,,,,,,,,,,,,,,,,,,,,,,,,,,,,,,,,,,,725.6391351670027,725.6486339170078,726.6481311970128,727.6482635930006,727.6482635930006,727.6482635930006,728.8163744090125,left,1.1584331550111528,None,,,,,,,,752387,001,2024-12-05_12h06.32.676,Test,2024.2.1,60.25659935099452,2024-12-05 12h09.43.219640 +0100,
68,150,180,16,None,66,66,0,True,,,,left,1.3554470259987283,None,,,,,,,,,,,,,0,66,66,66,728.8313949500007,,,,,,,,,,,,,,,,,,,,,,,,,,,,,,,,,,,,,,,,,,,,,,,,,,,,,,,,,,,,,,,,,,,,,,,,,728.8219661690091,728.8313949500007,729.8318659890065,730.8149972680112,730.8149972680112,730.8149972680112,732.1839779840084,left,1.3554470259987283,None,,,,,,,,752387,001,2024-12-05_12h06.32.676,Test,2024.2.1,60.25659935099452,2024-12-05 12h09.43.219640 +0100,
1,150,0,31,None,67,67,0,False,,,,right,1.118412340991199,None,,,,,,,,,,,,,0,67,67,67,732.1993833620072,,,,,,,,,,,,,,,,,,,,,,,,,,,,,,,,,,,,,,,,,,,,,,,,,,,,,,,,,,,,,,,,,,,,,,,,,732.1899817060039,732.1993833620072,733.1993819020136,734.1983458110044,734.1983458110044,734.1983458110044,735.3342632060085,right,1.118412340991199,None,,,,,,,,752387,001,2024-12-05_12h06.32.676,Test,2024.2.1,60.25659935099452,2024-12-05 12h09.43.219640 +0100,
39,150,0,70,None,68,68,0,True,,,,left,1.5489187649945961,None,,,,,,,,,,,,,0,68,68,68,735.3502714050119,,,,,,,,,,,,,,,,,,,,,,,,,,,,,,,,,,,,,,,,,,,,,,,,,,,,,,,,,,,,,,,,,,,,,,,,,735.3412404840055,735.3502714050119,736.3659504050011,737.3498473380023,737.3498473380023,737.3498473380023,738.9015257970023,left,1.5489187649945961,None,,,,,,,,752387,001,2024-12-05_12h06.32.676,Test,2024.2.1,60.25659935099452,2024-12-05 12h09.43.219640 +0100,
40,150,0,25,None,69,69,0,True,,,,left,0.9276275230076862,None,,,,,,,,,,,,,0,69,69,69,738.9165279640001,,,,,,,,,,,,,,,,,,,,,,,,,,,,,,,,,,,,,,,,,,,,,,,,,,,,,,,,,,,,,,,,,,,,,,,,,738.9076669680071,738.9165279640001,739.9161142830126,740.9156713440025,740.9156713440025,740.9156713440025,741.8507140389993,left,0.9276275230076862,None,,,,,,,,752387,001,2024-12-05_12h06.32.676,Test,2024.2.1,60.25659935099452,2024-12-05 12h09.43.219640 +0100,
,,,,,,,,,,,,,,,,,,,,,,,,,,,,,,,,,,,,,,,,,,,,,,,,,,,,,,,,,,,,,,,,,,,,,,,,,,,,,,,,,,,,,,,,,,,,,,,,,,,,,,,,,,,,,,,,,,741.8508817600086,741.8658544310019,741.8658544310019,744.4508984690037,space,2.5754852579993894,None,752387,001,2024-12-05_12h06.32.676,Test,2024.2.1,60.25659935099452,2024-12-05 12h09.43.219640 +0100,
