Trial_Number,Exposure_Duration,Displacement_Angle,Stimulus,Response,thisN,thisTrialN,thisRepN,Is_Distractor,key_resp_3.keys,key_resp_3.rt,key_resp_3.duration,key_resp_7.keys,key_resp_7.rt,key_resp_7.duration,trials.thisRepN,trials.thisTrialN,trials.thisN,trials.thisIndex,trials_2.thisRepN,trials_2.thisTrialN,trials_2.thisN,trials_2.thisIndex,trials_3.thisRepN,trials_3.thisTrialN,trials_3.thisN,trials_3.thisIndex,trials_4.thisRepN,trials_4.thisTrialN,trials_4.thisN,trials_4.thisIndex,thisRow.t,notes,Intro_to_experiment.started,important1_2.started,key_resp_8.started,Intro_to_experiment.stopped,key_resp_8.keys,key_resp_8.rt,key_resp_8.duration,important.started,important1.started,key_resp_4.started,important.stopped,key_resp_4.keys,key_resp_4.rt,key_resp_4.duration,instruction.started,text_7.started,key_resp_9.started,text_7.stopped,instruction.stopped,key_resp_9.keys,key_resp_9.rt,key_resp_9.duration,training_trial.started,cross.started,image.started,aperture.started,cross.stopped,image.stopped,aperture.stopped,training_trial.stopped,New_instruction.started,text.started,key_resp_2.started,New_instruction.stopped,key_resp_2.keys,key_resp_2.rt,key_resp_2.duration,test_trial.started,cross2.started,cross2.stopped,image_2.started,key_resp_3.started,aperture_2.started,test_trial.stopped,trials_2.key_resp_3.keys,trials_2.key_resp_3.rt,trials_2.key_resp_3.duration,image_2.stopped,text_3.started,aperture_2.stopped,start_blok_2.started,key_resp_5.started,text_4.started,start_blok_2.stopped,key_resp_5.keys,key_resp_5.rt,key_resp_5.duration,training_2.started,cross_2.started,image_3.started,aperture_3.started,cross_2.stopped,image_3.stopped,aperture_3.stopped,training_2.stopped,nyeste_instruks.started,text_5.started,key_resp_6.started,nyeste_instruks.stopped,key_resp_6.keys,key_resp_6.rt,key_resp_6.duration,test_2.started,cross2_2.started,cross2_2.stopped,image_4.started,key_resp_7.started,aperture_4.started,test_2.stopped,trials_4.key_resp_7.keys,trials_4.key_resp_7.rt,trials_4.key_resp_7.duration,Instruction1.started,Instruktion.started,key_resp.started,Instruction1.stopped,key_resp.keys,key_resp.rt,key_resp.duration,participant,session,date,expName,psychopyVersion,frameRate,expStart,
,,,,,,,,,,,,,,,,,,,,,,,,,,,,,,,,,0.015080723000210128,0.027263603000392322,0.027263603000392322,244.14283589300067,space,244.08992898399993,None,,,,,,,,,,,,,,,,,,,,,,,,,,,,,,,,,,,,,,,,,,,,,,,,,,,,,,,,,,,,,,,,,,,,,,,,,,,,,,,,,,,756978,001,2024-11-28_10h39.14.985,Test,2024.2.1,59.64384346883427,2024-11-28 10h39.34.743843 +0100,
,,,,,,,,,,,,,,,,,,,,,,,,,,,,,,,,,,,,,,,,244.14292715400006,244.16785161200096,244.16785161200096,266.1325007529995,space,21.961893624000368,None,,,,,,,,,,,,,,,,,,,,,,,,,,,,,,,,,,,,,,,,,,,,,,,,,,,,,,,,,,,,,,,,,,,,,,,,,,,,756978,001,2024-11-28_10h39.14.985,Test,2024.2.1,59.64384346883427,2024-11-28 10h39.34.743843 +0100,
,,,,,,,,,,,,,,,,,,,,,,,,,,,,,,,,,,,,,,,,,,,,,,,266.13255000199933,266.14647732699996,266.14647732699996,267.1468434260005,279.98240669200095,space,13.825541633001194,None,,,,,,,,,,,,,,,,,,,,,,,,,,,,,,,,,,,,,,,,,,,,,,,,,,,,,,,,,,,,,,,,,,,,756978,001,2024-11-28_10h39.14.985,Test,2024.2.1,59.64384346883427,2024-11-28 10h39.34.743843 +0100,
3,150,0,50,None,0,0,0,,,,,,,,0,0,0,2,,,,,,,,,,,,,280.04831616699994,,,,,,,,,,,,,,,,,,,,,,,,280.0392249659999,280.04831616699994,280.18136120300005,280.18136120300005,280.2480500260008,281.88090373200066,281.88090373200066,281.86487156600015,,,,,,,,,,,,,,,,,,,,,,,,,,,,,,,,,,,,,,,,,,,,,,,,,,,,,,,,,,,,756978,001,2024-11-28_10h39.14.985,Test,2024.2.1,59.64384346883427,2024-11-28 10h39.34.743843 +0100,
29,150,150,46,None,1,1,0,,,,,,,,0,1,1,28,,,,,,,,,,,,,281.88090373200066,,,,,,,,,,,,,,,,,,,,,,,,281.8711662759997,281.8974671720007,282.0820713939993,282.0820713939993,282.09853071900034,283.7817325270007,283.7817325270007,283.76520569700006,,,,,,,,,,,,,,,,,,,,,,,,,,,,,,,,,,,,,,,,,,,,,,,,,,,,,,,,,,,,756978,001,2024-11-28_10h39.14.985,Test,2024.2.1,59.64384346883427,2024-11-28 10h39.34.743843 +0100,
6,150,30,30,None,2,2,0,,,,,,,,0,2,2,5,,,,,,,,,,,,,283.7817325270007,,,,,,,,,,,,,,,,,,,,,,,,283.77155357000083,283.798047237,283.9810846370001,283.9810846370001,283.99800110199976,285.6807249329995,285.6807249329995,285.6654861349998,,,,,,,,,,,,,,,,,,,,,,,,,,,,,,,,,,,,,,,,,,,,,,,,,,,,,,,,,,,,756978,001,2024-11-28_10h39.14.985,Test,2024.2.1,59.64384346883427,2024-11-28 10h39.34.743843 +0100,
18,150,90,11,None,3,3,0,,,,,,,,0,3,3,17,,,,,,,,,,,,,285.6807249329995,,,,,,,,,,,,,,,,,,,,,,,,285.67271260300004,285.69804402299997,285.8987969480004,285.8987969480004,285.8987969480004,287.5978015649998,287.5978015649998,287.5821207930003,,,,,,,,,,,,,,,,,,,,,,,,,,,,,,,,,,,,,,,,,,,,,,,,,,,,,,,,,,,,756978,001,2024-11-28_10h39.14.985,Test,2024.2.1,59.64384346883427,2024-11-28 10h39.34.743843 +0100,
2,150,0,41,None,4,4,0,,,,,,,,0,4,4,1,,,,,,,,,,,,,287.5978015649998,,,,,,,,,,,,,,,,,,,,,,,,287.58782745999997,287.5978015649998,287.798349648001,287.798349648001,287.798349648001,289.4983867530009,289.4983867530009,289.48220005800067,,,,,,,,,,,,,,,,,,,,,,,,,,,,,,,,,,,,,,,,,,,,,,,,,,,,,,,,,,,,756978,001,2024-11-28_10h39.14.985,Test,2024.2.1,59.64384346883427,2024-11-28 10h39.34.743843 +0100,
31,150,180,22,None,5,5,0,,,,,,,,0,5,5,30,,,,,,,,,,,,,289.4983867530009,,,,,,,,,,,,,,,,,,,,,,,,289.4876335099998,289.4983867530009,289.6815287949994,289.6815287949994,289.69866335500046,291.3812089969997,291.3812089969997,291.36597617500047,,,,,,,,,,,,,,,,,,,,,,,,,,,,,,,,,,,,,,,,,,,,,,,,,,,,,,,,,,,,756978,001,2024-11-28_10h39.14.985,Test,2024.2.1,59.64384346883427,2024-11-28 10h39.34.743843 +0100,
9,150,30,70,None,6,6,0,,,,,,,,0,6,6,8,,,,,,,,,,,,,291.3812089969997,,,,,,,,,,,,,,,,,,,,,,,,291.37177682699985,291.3812089969997,291.5829774060003,291.5829774060003,291.5829774060003,293.2843394579995,293.2843394579995,293.26798648300064,,,,,,,,,,,,,,,,,,,,,,,,,,,,,,,,,,,,,,,,,,,,,,,,,,,,,,,,,,,,756978,001,2024-11-28_10h39.14.985,Test,2024.2.1,59.64384346883427,2024-11-28 10h39.34.743843 +0100,
1,150,0,17,None,7,7,0,,,,,,,,0,7,7,0,,,,,,,,,,,,,293.2843394579995,,,,,,,,,,,,,,,,,,,,,,,,293.27621590200033,293.2843394579995,293.48168041400095,293.48168041400095,293.49939203400027,295.18603268100014,295.18603268100014,295.16703533500004,,,,,,,,,,,,,,,,,,,,,,,,,,,,,,,,,,,,,,,,,,,,,,,,,,,,,,,,,,,,756978,001,2024-11-28_10h39.14.985,Test,2024.2.1,59.64384346883427,2024-11-28 10h39.34.743843 +0100,
4,150,0,8,None,8,8,0,,,,,,,,0,8,8,3,,,,,,,,,,,,,295.18603268100014,,,,,,,,,,,,,,,,,,,,,,,,295.1771508260008,295.18603268100014,295.38196424799935,295.38196424799935,295.398799984001,297.0819731770007,297.0819731770007,297.06547978900016,,,,,,,,,,,,,,,,,,,,,,,,,,,,,,,,,,,,,,,,,,,,,,,,,,,,,,,,,,,,756978,001,2024-11-28_10h39.14.985,Test,2024.2.1,59.64384346883427,2024-11-28 10h39.34.743843 +0100,
30,150,150,66,None,9,9,0,,,,,,,,0,9,9,29,,,,,,,,,,,,,297.0819731770007,,,,,,,,,,,,,,,,,,,,,,,,297.0706384900004,297.0819731770007,297.28198766900096,297.28198766900096,297.28198766900096,298.9817676729999,298.9817676729999,298.9665876960007,,,,,,,,,,,,,,,,,,,,,,,,,,,,,,,,,,,,,,,,,,,,,,,,,,,,,,,,,,,,756978,001,2024-11-28_10h39.14.985,Test,2024.2.1,59.64384346883427,2024-11-28 10h39.34.743843 +0100,
22,150,120,32,None,10,10,0,,,,,,,,0,10,10,21,,,,,,,,,,,,,298.9817676729999,,,,,,,,,,,,,,,,,,,,,,,,298.9726849559993,298.9817676729999,299.18233909899936,299.18233909899936,299.18233909899936,300.885659259,300.885659259,300.867598887,,,,,,,,,,,,,,,,,,,,,,,,,,,,,,,,,,,,,,,,,,,,,,,,,,,,,,,,,,,,756978,001,2024-11-28_10h39.14.985,Test,2024.2.1,59.64384346883427,2024-11-28 10h39.34.743843 +0100,
25,150,120,26,None,11,11,0,,,,,,,,0,11,11,24,,,,,,,,,,,,,300.885659259,,,,,,,,,,,,,,,,,,,,,,,,300.87687262500003,300.885659259,301.082787274001,301.082787274001,301.0992525109996,302.78643171899967,302.78643171899967,302.767721481001,,,,,,,,,,,,,,,,,,,,,,,,,,,,,,,,,,,,,,,,,,,,,,,,,,,,,,,,,,,,756978,001,2024-11-28_10h39.14.985,Test,2024.2.1,59.64384346883427,2024-11-28 10h39.34.743843 +0100,
11,150,60,49,None,12,12,0,,,,,,,,0,12,12,10,,,,,,,,,,,,,302.78643171899967,,,,,,,,,,,,,,,,,,,,,,,,302.77756723700077,302.78643171899967,302.98254300200097,302.98254300200097,302.99903402900054,304.6865712830004,304.6865712830004,304.66782063400024,,,,,,,,,,,,,,,,,,,,,,,,,,,,,,,,,,,,,,,,,,,,,,,,,,,,,,,,,,,,756978,001,2024-11-28_10h39.14.985,Test,2024.2.1,59.64384346883427,2024-11-28 10h39.34.743843 +0100,
28,150,150,36,None,13,13,0,,,,,,,,0,13,13,27,,,,,,,,,,,,,304.6865712830004,,,,,,,,,,,,,,,,,,,,,,,,304.6777836279998,304.6865712830004,304.88371085200015,304.88371085200015,304.90045268799986,306.582719688,306.582719688,306.56734192300064,,,,,,,,,,,,,,,,,,,,,,,,,,,,,,,,,,,,,,,,,,,,,,,,,,,,,,,,,,,,756978,001,2024-11-28_10h39.14.985,Test,2024.2.1,59.64384346883427,2024-11-28 10h39.34.743843 +0100,
20,150,90,38,None,14,14,0,,,,,,,,0,14,14,19,,,,,,,,,,,,,306.582719688,,,,,,,,,,,,,,,,,,,,,,,,306.5741560580009,306.582719688,306.7826687050001,306.7826687050001,306.7826687050001,308.4822800710008,308.4822800710008,308.46698631800064,,,,,,,,,,,,,,,,,,,,,,,,,,,,,,,,,,,,,,,,,,,,,,,,,,,,,,,,,,,,756978,001,2024-11-28_10h39.14.985,Test,2024.2.1,59.64384346883427,2024-11-28 10h39.34.743843 +0100,
16,150,90,54,None,15,15,0,,,,,,,,0,15,15,15,,,,,,,,,,,,,308.4822800710008,,,,,,,,,,,,,,,,,,,,,,,,308.4726969639996,308.4822800710008,308.6831152550003,308.6831152550003,308.6831152550003,310.3824919239996,310.3824919239996,310.36730807800086,,,,,,,,,,,,,,,,,,,,,,,,,,,,,,,,,,,,,,,,,,,,,,,,,,,,,,,,,,,,756978,001,2024-11-28_10h39.14.985,Test,2024.2.1,59.64384346883427,2024-11-28 10h39.34.743843 +0100,
17,150,90,58,None,16,16,0,,,,,,,,0,16,16,16,,,,,,,,,,,,,310.3824919239996,,,,,,,,,,,,,,,,,,,,,,,,310.37337591600044,310.3824919239996,310.58373859399944,310.58373859399944,310.58373859399944,312.2832954309997,312.2832954309997,312.2673550599993,,,,,,,,,,,,,,,,,,,,,,,,,,,,,,,,,,,,,,,,,,,,,,,,,,,,,,,,,,,,756978,001,2024-11-28_10h39.14.985,Test,2024.2.1,59.64384346883427,2024-11-28 10h39.34.743843 +0100,
15,150,60,55,None,17,17,0,,,,,,,,0,17,17,14,,,,,,,,,,,,,312.2832954309997,,,,,,,,,,,,,,,,,,,,,,,,312.2732625740009,312.2832954309997,312.4837024080007,312.4837024080007,312.4837024080007,314.18272493599943,314.18272493599943,314.16710628200053,,,,,,,,,,,,,,,,,,,,,,,,,,,,,,,,,,,,,,,,,,,,,,,,,,,,,,,,,,,,756978,001,2024-11-28_10h39.14.985,Test,2024.2.1,59.64384346883427,2024-11-28 10h39.34.743843 +0100,
8,150,30,43,None,18,18,0,,,,,,,,0,18,18,7,,,,,,,,,,,,,314.18272493599943,,,,,,,,,,,,,,,,,,,,,,,,314.172886843,314.18272493599943,314.38322806699944,314.38322806699944,314.38322806699944,316.08347337399937,316.08347337399937,316.0682077500005,,,,,,,,,,,,,,,,,,,,,,,,,,,,,,,,,,,,,,,,,,,,,,,,,,,,,,,,,,,,756978,001,2024-11-28_10h39.14.985,Test,2024.2.1,59.64384346883427,2024-11-28 10h39.34.743843 +0100,
35,150,180,1,None,19,19,0,,,,,,,,0,19,19,34,,,,,,,,,,,,,316.08347337399937,,,,,,,,,,,,,,,,,,,,,,,,316.07515389000037,316.08347337399937,316.28427067099983,316.28427067099983,316.28427067099983,317.9836299489998,317.9836299489998,317.96744143900105,,,,,,,,,,,,,,,,,,,,,,,,,,,,,,,,,,,,,,,,,,,,,,,,,,,,,,,,,,,,756978,001,2024-11-28_10h39.14.985,Test,2024.2.1,59.64384346883427,2024-11-28 10h39.34.743843 +0100,
23,150,120,16,None,20,20,0,,,,,,,,0,20,20,22,,,,,,,,,,,,,317.9836299489998,,,,,,,,,,,,,,,,,,,,,,,,317.97331200699955,317.9836299489998,318.18349427199973,318.18349427199973,318.18349427199973,319.88327942199976,319.88327942199976,319.86828536199937,,,,,,,,,,,,,,,,,,,,,,,,,,,,,,,,,,,,,,,,,,,,,,,,,,,,,,,,,,,,756978,001,2024-11-28_10h39.14.985,Test,2024.2.1,59.64384346883427,2024-11-28 10h39.34.743843 +0100,
13,150,60,23,None,21,21,0,,,,,,,,0,21,21,12,,,,,,,,,,,,,319.88327942199976,,,,,,,,,,,,,,,,,,,,,,,,319.8742686639998,319.88327942199976,320.0837134939993,320.0837134939993,320.0837134939993,321.7870314510001,321.7870314510001,321.76923739800077,,,,,,,,,,,,,,,,,,,,,,,,,,,,,,,,,,,,,,,,,,,,,,,,,,,,,,,,,,,,756978,001,2024-11-28_10h39.14.985,Test,2024.2.1,59.64384346883427,2024-11-28 10h39.34.743843 +0100,
5,150,0,69,None,22,22,0,,,,,,,,0,22,22,4,,,,,,,,,,,,,321.7870314510001,,,,,,,,,,,,,,,,,,,,,,,,321.7790882210011,321.7870314510001,321.9850921500001,321.9850921500001,322.0016049400001,,,323.6841679570007,,,,,,,,,,,,,,,,,,,,,,,,,,,,,,,,,,,,,,,,,,,,,,,,,,,,,,,,,,,,756978,001,2024-11-28_10h39.14.985,Test,2024.2.1,59.64384346883427,2024-11-28 10h39.34.743843 +0100,
14,150,60,29,None,23,23,0,,,,,,,,0,23,23,13,,,,,,,,,,,,,323.7009508530009,,,,,,,,,,,,,,,,,,,,,,,,323.69010826700105,323.7009508530009,323.8848995440003,323.8848995440003,323.9014712339995,,,325.58420200600085,,,,,,,,,,,,,,,,,,,,,,,,,,,,,,,,,,,,,,,,,,,,,,,,,,,,,,,,,,,,756978,001,2024-11-28_10h39.14.985,Test,2024.2.1,59.64384346883427,2024-11-28 10h39.34.743843 +0100,
32,150,180,25,None,24,24,0,,,,,,,,0,24,24,31,,,,,,,,,,,,,325.60074396100026,,,,,,,,,,,,,,,,,,,,,,,,325.5900234290002,325.60074396100026,325.7844111810009,325.7844111810009,325.80181330900086,327.48451876299987,327.48451876299987,327.4683249480004,,,,,,,,,,,,,,,,,,,,,,,,,,,,,,,,,,,,,,,,,,,,,,,,,,,,,,,,,,,,756978,001,2024-11-28_10h39.14.985,Test,2024.2.1,59.64384346883427,2024-11-28 10h39.34.743843 +0100,
24,150,120,6,None,25,25,0,,,,,,,,0,25,25,23,,,,,,,,,,,,,327.48451876299987,,,,,,,,,,,,,,,,,,,,,,,,327.47621789799996,327.48451876299987,327.6841179380008,327.6841179380008,327.6841179380008,329.38439628200103,329.38439628200103,329.36907922799946,,,,,,,,,,,,,,,,,,,,,,,,,,,,,,,,,,,,,,,,,,,,,,,,,,,,,,,,,,,,756978,001,2024-11-28_10h39.14.985,Test,2024.2.1,59.64384346883427,2024-11-28 10h39.34.743843 +0100,
7,150,30,15,None,26,26,0,,,,,,,,0,26,26,6,,,,,,,,,,,,,329.38439628200103,,,,,,,,,,,,,,,,,,,,,,,,329.3762783410002,329.38439628200103,329.58443580600033,329.58443580600033,329.58443580600033,331.28521650100083,331.28521650100083,331.26967918800074,,,,,,,,,,,,,,,,,,,,,,,,,,,,,,,,,,,,,,,,,,,,,,,,,,,,,,,,,,,,756978,001,2024-11-28_10h39.14.985,Test,2024.2.1,59.64384346883427,2024-11-28 10h39.34.743843 +0100,
27,150,150,4,None,27,27,0,,,,,,,,0,27,27,26,,,,,,,,,,,,,331.28521650100083,,,,,,,,,,,,,,,,,,,,,,,,331.2769514390002,331.28521650100083,331.4854965930008,331.4854965930008,331.4854965930008,333.18465675900006,333.18465675900006,333.1688320789999,,,,,,,,,,,,,,,,,,,,,,,,,,,,,,,,,,,,,,,,,,,,,,,,,,,,,,,,,,,,756978,001,2024-11-28_10h39.14.985,Test,2024.2.1,59.64384346883427,2024-11-28 10h39.34.743843 +0100,
26,150,150,12,None,28,28,0,,,,,,,,0,28,28,25,,,,,,,,,,,,,333.18465675900006,,,,,,,,,,,,,,,,,,,,,,,,333.17449321999993,333.18465675900006,333.3844971010003,333.3844971010003,333.3844971010003,335.0883739180008,335.0883739180008,335.06998553300036,,,,,,,,,,,,,,,,,,,,,,,,,,,,,,,,,,,,,,,,,,,,,,,,,,,,,,,,,,,,756978,001,2024-11-28_10h39.14.985,Test,2024.2.1,59.64384346883427,2024-11-28 10h39.34.743843 +0100,
12,150,60,62,None,29,29,0,,,,,,,,0,29,29,11,,,,,,,,,,,,,335.0883739180008,,,,,,,,,,,,,,,,,,,,,,,,335.0793407960009,335.0883739180008,335.28461389100084,335.28461389100084,335.31156384600035,336.9856591349999,336.9856591349999,336.9692314799995,,,,,,,,,,,,,,,,,,,,,,,,,,,,,,,,,,,,,,,,,,,,,,,,,,,,,,,,,,,,756978,001,2024-11-28_10h39.14.985,Test,2024.2.1,59.64384346883427,2024-11-28 10h39.34.743843 +0100,
33,150,180,59,None,30,30,0,,,,,,,,0,30,30,32,,,,,,,,,,,,,336.9856591349999,,,,,,,,,,,,,,,,,,,,,,,,336.9772147590011,336.9856591349999,337.1860643809996,337.1860643809996,337.1860643809996,338.88513606000015,338.88513606000015,338.8693136769998,,,,,,,,,,,,,,,,,,,,,,,,,,,,,,,,,,,,,,,,,,,,,,,,,,,,,,,,,,,,756978,001,2024-11-28_10h39.14.985,Test,2024.2.1,59.64384346883427,2024-11-28 10h39.34.743843 +0100,
19,150,90,45,None,31,31,0,,,,,,,,0,31,31,18,,,,,,,,,,,,,338.88513606000015,,,,,,,,,,,,,,,,,,,,,,,,338.87720701500075,338.88513606000015,339.08553369999936,339.08553369999936,339.08553369999936,340.7852439449998,340.7852439449998,340.7690796370007,,,,,,,,,,,,,,,,,,,,,,,,,,,,,,,,,,,,,,,,,,,,,,,,,,,,,,,,,,,,756978,001,2024-11-28_10h39.14.985,Test,2024.2.1,59.64384346883427,2024-11-28 10h39.34.743843 +0100,
34,150,180,57,None,32,32,0,,,,,,,,0,32,32,33,,,,,,,,,,,,,340.7852439449998,,,,,,,,,,,,,,,,,,,,,,,,340.7748307029997,340.7852439449998,340.9859013990008,340.9859013990008,340.9859013990008,342.68472170600035,342.68472170600035,342.66954365499987,,,,,,,,,,,,,,,,,,,,,,,,,,,,,,,,,,,,,,,,,,,,,,,,,,,,,,,,,,,,756978,001,2024-11-28_10h39.14.985,Test,2024.2.1,59.64384346883427,2024-11-28 10h39.34.743843 +0100,
10,150,30,21,None,33,33,0,,,,,,,,0,33,33,9,,,,,,,,,,,,,342.68472170600035,,,,,,,,,,,,,,,,,,,,,,,,342.6757849660007,342.68472170600035,342.8852236090006,342.8852236090006,342.8852236090006,344.59725065600105,344.59725065600105,344.5705823490007,,,,,,,,,,,,,,,,,,,,,,,,,,,,,,,,,,,,,,,,,,,,,,,,,,,,,,,,,,,,756978,001,2024-11-28_10h39.14.985,Test,2024.2.1,59.64384346883427,2024-11-28 10h39.34.743843 +0100,
21,150,120,34,None,34,34,0,,,,,,,,0,34,34,20,,,,,,,,,,,,,344.59725065600105,,,,,,,,,,,,,,,,,,,,,,,,344.58908424999936,344.59725065600105,344.7855915550008,344.7855915550008,344.8021718500004,346.486361139001,346.486361139001,346.47085427599995,,,,,,,,,,,,,,,,,,,,,,,,,,,,,,,,,,,,,,,,,,,,,,,,,,,,,,,,,,,,756978,001,2024-11-28_10h39.14.985,Test,2024.2.1,59.64384346883427,2024-11-28 10h39.34.743843 +0100,
,,,,,,,,,,,,,,,,,,,,,,,,,,,,,,,,,,,,,,,,,,,,,,,,,,,,,,,,,,,,,,,346.47106355300093,346.486361139001,346.486361139001,365.9726090280001,space,19.4705674300003,None,,,,,,,,,,,,,,,,,,,,,,,,,,,,,,,,,,,,,,,,,,,,,,,,,,,,,756978,001,2024-11-28_10h39.14.985,Test,2024.2.1,59.64384346883427,2024-11-28 10h39.34.743843 +0100,
15,150,60,55,None,0,0,0,False,right,1.1588807400003134,None,,,,,,,,0,0,0,0,,,,,,,,,365.9962875780002,,,,,,,,,,,,,,,,,,,,,,,,,,,,,,,,,,,,,,,365.9876580679993,365.9962875780002,367.00402676700105,367.98672668200015,367.98672668200015,367.98672668200015,369.15560058700066,right,1.1588807400003134,None,,,,,,,,,,,,,,,,,,,,,,,,,,,,,,,,,,,,,,,,,,,756978,001,2024-11-28_10h39.14.985,Test,2024.2.1,59.64384346883427,2024-11-28 10h39.34.743843 +0100,
55,150,90,35,None,1,1,0,True,left,1.2704940080002416,None,,,,,,,,0,1,1,1,,,,,,,,,369.20075480200103,,,,,,,,,,,,,,,,,,,,,,,,,,,,,,,,,,,,,,,369.161362017001,369.20075480200103,370.20448358500107,371.1707299190002,371.1707299190002,371.1707299190002,372.45523486899947,left,1.2704940080002416,None,,,,,,,,,,,,,,,,,,,,,,,,,,,,,,,,,,,,,,,,,,,756978,001,2024-11-28_10h39.14.985,Test,2024.2.1,59.64384346883427,2024-11-28 10h39.34.743843 +0100,
38,150,0,37,None,2,2,0,True,left,1.2563623579990235,None,,,,,,,,0,2,2,2,,,,,,,,,372.47025100500105,,,,,,,,,,,,,,,,,,,,,,,,,,,,,,,,,,,,,,,372.46101044200077,372.47025100500105,373.47115438699984,374.45512479699937,374.45512479699937,374.45512479699937,375.7229794350005,left,1.2563623579990235,None,,,,,,,,,,,,,,,,,,,,,,,,,,,,,,,,,,,,,,,,,,,756978,001,2024-11-28_10h39.14.985,Test,2024.2.1,59.64384346883427,2024-11-28 10h39.34.743843 +0100,
60,150,120,3,None,3,3,0,True,right,1.017530913999508,None,,,,,,,,0,3,3,3,,,,,,,,,375.7394062019994,,,,,,,,,,,,,,,,,,,,,,,,,,,,,,,,,,,,,,,375.7304649930011,375.7394062019994,376.7549621529997,377.7383767350002,377.7383767350002,377.7383767350002,378.7594521179999,right,1.017530913999508,None,,,,,,,,,,,,,,,,,,,,,,,,,,,,,,,,,,,,,,,,,,,756978,001,2024-11-28_10h39.14.985,Test,2024.2.1,59.64384346883427,2024-11-28 10h39.34.743843 +0100,
36,150,0,14,None,4,4,0,True,left,0.9395981149991712,None,,,,,,,,0,4,4,4,,,,,,,,,378.7761548510007,,,,,,,,,,,,,,,,,,,,,,,,,,,,,,,,,,,,,,,378.768612844,378.7761548510007,379.7886628390006,380.77184842799943,380.77184842799943,380.77184842799943,381.72265585900095,left,0.9395981149991712,None,,,,,,,,,,,,,,,,,,,,,,,,,,,,,,,,,,,,,,,,,,,756978,001,2024-11-28_10h39.14.985,Test,2024.2.1,59.64384346883427,2024-11-28 10h39.34.743843 +0100,
52,150,90,7,None,5,5,0,True,right,2.545099057999323,None,,,,,,,,0,5,5,5,,,,,,,,,381.7379380349994,,,,,,,,,,,,,,,,,,,,,,,,,,,,,,,,,,,,,,,381.72863329100073,381.7379380349994,382.7389609540005,383.7377870199998,383.7377870199998,383.7377870199998,386.28984012900037,right,2.545099057999323,None,,,,,,,,,,,,,,,,,,,,,,,,,,,,,,,,,,,,,,,,,,,756978,001,2024-11-28_10h39.14.985,Test,2024.2.1,59.64384346883427,2024-11-28 10h39.34.743843 +0100,
69,150,180,18,None,6,6,0,True,left,1.1003963939983805,None,,,,,,,,0,6,6,6,,,,,,,,,386.305474064,,,,,,,,,,,,,,,,,,,,,,,,,,,,,,,,,,,,,,,386.295837392001,386.305474064,387.3056166759998,388.2890219639994,388.2890219639994,388.2890219639994,389.4072080440001,left,1.1003963939983805,None,,,,,,,,,,,,,,,,,,,,,,,,,,,,,,,,,,,,,,,,,,,756978,001,2024-11-28_10h39.14.985,Test,2024.2.1,59.64384346883427,2024-11-28 10h39.34.743843 +0100,
2,150,0,41,None,7,7,0,False,right,1.1079657390000648,None,,,,,,,,0,7,7,7,,,,,,,,,389.4213080059999,,,,,,,,,,,,,,,,,,,,,,,,,,,,,,,,,,,,,,,389.410719644,389.4213080059999,390.4227142,391.42293895700095,391.42293895700095,391.42293895700095,392.5396085040011,right,1.1079657390000648,None,,,,,,,,,,,,,,,,,,,,,,,,,,,,,,,,,,,,,,,,,,,756978,001,2024-11-28_10h39.14.985,Test,2024.2.1,59.64384346883427,2024-11-28 10h39.34.743843 +0100,
62,150,150,24,None,8,8,0,True,right,1.3972328540003218,None,,,,,,,,0,8,8,8,,,,,,,,,392.5556060250001,,,,,,,,,,,,,,,,,,,,,,,,,,,,,,,,,,,,,,,392.5454087340004,392.5556060250001,393.5563300220001,394.5396943369997,394.5396943369997,394.5396943369997,395.9410010800002,right,1.3972328540003218,None,,,,,,,,,,,,,,,,,,,,,,,,,,,,,,,,,,,,,,,,,,,756978,001,2024-11-28_10h39.14.985,Test,2024.2.1,59.64384346883427,2024-11-28 10h39.34.743843 +0100,
8,150,30,43,None,9,9,0,False,right,2.1280154880005284,None,,,,,,,,0,9,9,9,,,,,,,,,395.9551578570008,,,,,,,,,,,,,,,,,,,,,,,,,,,,,,,,,,,,,,,395.94439836700076,395.9551578570008,396.95637898899986,397.9558847499993,397.9558847499993,397.9558847499993,400.09299844400084,right,2.1280154880005284,None,,,,,,,,,,,,,,,,,,,,,,,,,,,,,,,,,,,,,,,,,,,756978,001,2024-11-28_10h39.14.985,Test,2024.2.1,59.64384346883427,2024-11-28 10h39.34.743843 +0100,
46,150,60,13,None,10,10,0,True,left,1.1015145370001846,None,,,,,,,,0,10,10,10,,,,,,,,,400.11004164599944,,,,,,,,,,,,,,,,,,,,,,,,,,,,,,,,,,,,,,,400.1013073939994,400.11004164599944,401.12284455900044,402.1059553790001,402.1059553790001,402.1059553790001,403.2248739309998,left,1.1015145370001846,None,,,,,,,,,,,,,,,,,,,,,,,,,,,,,,,,,,,,,,,,,,,756978,001,2024-11-28_10h39.14.985,Test,2024.2.1,59.64384346883427,2024-11-28 10h39.34.743843 +0100,
4,150,0,8,None,11,11,0,False,left,1.1842185860004975,None,,,,,,,,0,11,11,11,,,,,,,,,403.239007907001,,,,,,,,,,,,,,,,,,,,,,,,,,,,,,,,,,,,,,,403.22891867600083,403.239007907001,404.23938925400034,405.23966279399974,405.23966279399974,405.23966279399974,406.44050631900063,left,1.1842185860004975,None,,,,,,,,,,,,,,,,,,,,,,,,,,,,,,,,,,,,,,,,,,,756978,001,2024-11-28_10h39.14.985,Test,2024.2.1,59.64384346883427,2024-11-28 10h39.34.743843 +0100,
48,150,60,39,None,12,12,0,True,left,0.9514197509997757,None,,,,,,,,0,12,12,12,,,,,,,,,406.4564851489995,,,,,,,,,,,,,,,,,,,,,,,,,,,,,,,,,,,,,,,406.44633810100095,406.4564851489995,407.4563012050003,408.43953192499976,408.43953192499976,408.43953192499976,409.4077755039998,left,0.9514197509997757,None,,,,,,,,,,,,,,,,,,,,,,,,,,,,,,,,,,,,,,,,,,,756978,001,2024-11-28_10h39.14.985,Test,2024.2.1,59.64384346883427,2024-11-28 10h39.34.743843 +0100,
43,150,30,44,None,13,13,0,True,left,1.2872066179988906,None,,,,,,,,0,13,13,13,,,,,,,,,409.42362221700023,,,,,,,,,,,,,,,,,,,,,,,,,,,,,,,,,,,,,,,409.41540192200046,409.42362221700023,410.42310930500025,411.42319689299984,411.42319689299984,411.42319689299984,412.72526342200035,left,1.2872066179988906,None,,,,,,,,,,,,,,,,,,,,,,,,,,,,,,,,,,,,,,,,,,,756978,001,2024-11-28_10h39.14.985,Test,2024.2.1,59.64384346883427,2024-11-28 10h39.34.743843 +0100,
29,150,150,46,None,14,14,0,False,left,1.4560210700001335,None,,,,,,,,0,14,14,14,,,,,,,,,412.7397656079993,,,,,,,,,,,,,,,,,,,,,,,,,,,,,,,,,,,,,,,412.72873497399996,412.7397656079993,413.7409083580005,414.74091656100063,414.74091656100063,414.74091656100063,416.2089613019998,left,1.4560210700001335,None,,,,,,,,,,,,,,,,,,,,,,,,,,,,,,,,,,,,,,,,,,,756978,001,2024-11-28_10h39.14.985,Test,2024.2.1,59.64384346883427,2024-11-28 10h39.34.743843 +0100,
21,150,120,34,None,15,15,0,False,right,1.0474295010008063,None,,,,,,,,0,15,15,15,,,,,,,,,416.2242047430009,,,,,,,,,,,,,,,,,,,,,,,,,,,,,,,,,,,,,,,416.2142301040003,416.2242047430009,417.22349467800086,418.20823943399955,418.20823943399955,418.20823943399955,419.2595577920001,right,1.0474295010008063,None,,,,,,,,,,,,,,,,,,,,,,,,,,,,,,,,,,,,,,,,,,,756978,001,2024-11-28_10h39.14.985,Test,2024.2.1,59.64384346883427,2024-11-28 10h39.34.743843 +0100,
3,150,0,50,None,16,16,0,False,left,1.444292129999667,None,,,,,,,,0,16,16,16,,,,,,,,,419.27482278800017,,,,,,,,,,,,,,,,,,,,,,,,,,,,,,,,,,,,,,,419.2649678300004,419.27482278800017,420.2740213920006,421.27406127200084,421.27406127200084,421.27406127200084,422.72566533200006,left,1.444292129999667,None,,,,,,,,,,,,,,,,,,,,,,,,,,,,,,,,,,,,,,,,,,,756978,001,2024-11-28_10h39.14.985,Test,2024.2.1,59.64384346883427,2024-11-28 10h39.34.743843 +0100,
18,150,90,11,None,17,17,0,False,right,1.183513549000054,None,,,,,,,,0,17,17,17,,,,,,,,,422.74023419399964,,,,,,,,,,,,,,,,,,,,,,,,,,,,,,,,,,,,,,,422.7291305460003,422.74023419399964,423.740876717,424.7253525489996,424.7253525489996,424.7253525489996,425.9265836850009,right,1.183513549000054,None,,,,,,,,,,,,,,,,,,,,,,,,,,,,,,,,,,,,,,,,,,,756978,001,2024-11-28_10h39.14.985,Test,2024.2.1,59.64384346883427,2024-11-28 10h39.34.743843 +0100,
31,150,180,22,None,18,18,0,False,left,1.4849390810013574,None,,,,,,,,0,18,18,18,,,,,,,,,425.94051339200087,,,,,,,,,,,,,,,,,,,,,,,,,,,,,,,,,,,,,,,425.92996018399936,425.94051339200087,426.94136044100014,427.9253158749998,427.9253158749998,427.9253158749998,429.4262737680001,left,1.4849390810013574,None,,,,,,,,,,,,,,,,,,,,,,,,,,,,,,,,,,,,,,,,,,,756978,001,2024-11-28_10h39.14.985,Test,2024.2.1,59.64384346883427,2024-11-28 10h39.34.743843 +0100,
35,150,180,1,None,19,19,0,False,left,2.3247442279989627,None,,,,,,,,0,19,19,19,,,,,,,,,429.4415333399993,,,,,,,,,,,,,,,,,,,,,,,,,,,,,,,,,,,,,,,429.4299532420009,429.4415333399993,430.4412399869998,431.44157020500097,431.44157020500097,431.44157020500097,433.7767209600006,left,2.3247442279989627,None,,,,,,,,,,,,,,,,,,,,,,,,,,,,,,,,,,,,,,,,,,,756978,001,2024-11-28_10h39.14.985,Test,2024.2.1,59.64384346883427,2024-11-28 10h39.34.743843 +0100,
22,150,120,32,None,20,20,0,False,right,1.312811812000291,None,,,,,,,,0,20,20,20,,,,,,,,,433.79117380000025,,,,,,,,,,,,,,,,,,,,,,,,,,,,,,,,,,,,,,,433.7802329549995,433.79117380000025,434.7921738929999,435.79237672899944,435.79237672899944,435.79237672899944,437.1102787460004,right,1.312811812000291,None,,,,,,,,,,,,,,,,,,,,,,,,,,,,,,,,,,,,,,,,,,,756978,001,2024-11-28_10h39.14.985,Test,2024.2.1,59.64384346883427,2024-11-28 10h39.34.743843 +0100,
54,150,90,33,None,21,21,0,True,right,2.335030010999617,None,,,,,,,,0,21,21,21,,,,,,,,,437.12500118299977,,,,,,,,,,,,,,,,,,,,,,,,,,,,,,,,,,,,,,,437.11579017999975,437.12500118299977,438.1260721939998,439.1259133099993,439.1259133099993,439.1259133099993,441.47716978100107,right,2.335030010999617,None,,,,,,,,,,,,,,,,,,,,,,,,,,,,,,,,,,,,,,,,,,,756978,001,2024-11-28_10h39.14.985,Test,2024.2.1,59.64384346883427,2024-11-28 10h39.34.743843 +0100,
33,150,180,59,None,22,22,0,False,right,1.421237956999903,None,,,,,,,,0,22,22,22,,,,,,,,,441.4921410709994,,,,,,,,,,,,,,,,,,,,,,,,,,,,,,,,,,,,,,,441.4810089069997,441.4921410709994,442.49282238399974,443.4764679489999,443.4764679489999,443.4764679489999,444.910447061,right,1.421237956999903,None,,,,,,,,,,,,,,,,,,,,,,,,,,,,,,,,,,,,,,,,,,,756978,001,2024-11-28_10h39.14.985,Test,2024.2.1,59.64384346883427,2024-11-28 10h39.34.743843 +0100,
65,150,150,68,None,23,23,0,True,left,1.1488404120009363,None,,,,,,,,0,23,23,23,,,,,,,,,444.9250919820006,,,,,,,,,,,,,,,,,,,,,,,,,,,,,,,,,,,,,,,444.91589677900083,444.9250919820006,445.92686338400017,446.90945230000034,446.90945230000034,446.90945230000034,448.0615392359996,left,1.1488404120009363,None,,,,,,,,,,,,,,,,,,,,,,,,,,,,,,,,,,,,,,,,,,,756978,001,2024-11-28_10h39.14.985,Test,2024.2.1,59.64384346883427,2024-11-28 10h39.34.743843 +0100,
17,150,90,58,None,24,24,0,False,right,0.8191866209999716,None,,,,,,,,0,24,24,24,,,,,,,,,448.07556122200003,,,,,,,,,,,,,,,,,,,,,,,,,,,,,,,,,,,,,,,448.06503185099973,448.07556122200003,449.0766972900001,450.0767838510001,450.0767838510001,450.0767838510001,450.91151799100044,right,0.8191866209999716,None,,,,,,,,,,,,,,,,,,,,,,,,,,,,,,,,,,,,,,,,,,,756978,001,2024-11-28_10h39.14.985,Test,2024.2.1,59.64384346883427,2024-11-28 10h39.34.743843 +0100,
10,150,30,21,None,25,25,0,False,right,0.9587437610007328,None,,,,,,,,0,25,25,25,,,,,,,,,450.92578817899994,,,,,,,,,,,,,,,,,,,,,,,,,,,,,,,,,,,,,,,450.9151517699993,450.92578817899994,451.927061589,452.9260580179998,452.9260580179998,452.9260580179998,453.8950139589997,right,0.9587437610007328,None,,,,,,,,,,,,,,,,,,,,,,,,,,,,,,,,,,,,,,,,,,,756978,001,2024-11-28_10h39.14.985,Test,2024.2.1,59.64384346883427,2024-11-28 10h39.34.743843 +0100,
5,150,0,69,None,26,26,0,False,right,1.8655359519998456,None,,,,,,,,0,26,26,26,,,,,,,,,453.90969497100014,,,,,,,,,,,,,,,,,,,,,,,,,,,,,,,,,,,,,,,453.89841528299985,453.90969497100014,454.9104381220004,455.9095797539994,455.9095797539994,455.9095797539994,457.77914956099994,right,1.8655359519998456,None,,,,,,,,,,,,,,,,,,,,,,,,,,,,,,,,,,,,,,,,,,,756978,001,2024-11-28_10h39.14.985,Test,2024.2.1,59.64384346883427,2024-11-28 10h39.34.743843 +0100,
59,150,120,40,None,27,27,0,True,right,1.1203023449998,None,,,,,,,,0,27,27,27,,,,,,,,,457.79402945900074,,,,,,,,,,,,,,,,,,,,,,,,,,,,,,,,,,,,,,,457.7849294530006,457.79402945900074,458.7941183740004,459.7944875280009,459.7944875280009,459.7944875280009,460.92880520499966,right,1.1203023449998,None,,,,,,,,,,,,,,,,,,,,,,,,,,,,,,,,,,,,,,,,,,,756978,001,2024-11-28_10h39.14.985,Test,2024.2.1,59.64384346883427,2024-11-28 10h39.34.743843 +0100,
64,150,150,27,None,28,28,0,True,right,1.0680625189997954,None,,,,,,,,0,28,28,28,,,,,,,,,460.94333379400086,,,,,,,,,,,,,,,,,,,,,,,,,,,,,,,,,,,,,,,460.9343470679996,460.94333379400086,461.94384635999995,462.9435241379997,462.9435241379997,462.9435241379997,464.02946686500036,right,1.0680625189997954,None,,,,,,,,,,,,,,,,,,,,,,,,,,,,,,,,,,,,,,,,,,,756978,001,2024-11-28_10h39.14.985,Test,2024.2.1,59.64384346883427,2024-11-28 10h39.34.743843 +0100,
66,150,180,52,None,29,29,0,True,left,0.9528506490005384,None,,,,,,,,0,29,29,29,,,,,,,,,464.0442910620004,,,,,,,,,,,,,,,,,,,,,,,,,,,,,,,,,,,,,,,464.0347999990008,464.0442910620004,465.0446072329996,466.044705757,466.044705757,466.044705757,467.0125660100002,left,0.9528506490005384,None,,,,,,,,,,,,,,,,,,,,,,,,,,,,,,,,,,,,,,,,,,,756978,001,2024-11-28_10h39.14.985,Test,2024.2.1,59.64384346883427,2024-11-28 10h39.34.743843 +0100,
37,150,0,48,None,30,30,0,True,left,0.8877267380012199,None,,,,,,,,0,30,30,30,,,,,,,,,467.027444112,,,,,,,,,,,,,,,,,,,,,,,,,,,,,,,,,,,,,,,467.0183065000001,467.027444112,468.0279744590007,469.02805165599966,469.02805165599966,469.02805165599966,469.9295071859997,left,0.8877267380012199,None,,,,,,,,,,,,,,,,,,,,,,,,,,,,,,,,,,,,,,,,,,,756978,001,2024-11-28_10h39.14.985,Test,2024.2.1,59.64384346883427,2024-11-28 10h39.34.743843 +0100,
25,150,120,26,None,31,31,0,False,right,1.7192410749994451,None,,,,,,,,0,31,31,31,,,,,,,,,469.9441831660006,,,,,,,,,,,,,,,,,,,,,,,,,,,,,,,,,,,,,,,469.9330253099997,469.9441831660006,470.9450996279993,471.9439936559993,471.9439936559993,471.9439936559993,473.6780794139995,right,1.7192410749994451,None,,,,,,,,,,,,,,,,,,,,,,,,,,,,,,,,,,,,,,,,,,,756978,001,2024-11-28_10h39.14.985,Test,2024.2.1,59.64384346883427,2024-11-28 10h39.34.743843 +0100,
7,150,30,15,None,32,32,0,False,left,1.2657160109993129,None,,,,,,,,0,32,32,32,,,,,,,,,473.6941714029999,,,,,,,,,,,,,,,,,,,,,,,,,,,,,,,,,,,,,,,473.68151673600005,473.6941714029999,474.69504778400005,475.67871998900046,475.67871998900046,475.67871998900046,476.94695741599935,left,1.2657160109993129,None,,,,,,,,,,,,,,,,,,,,,,,,,,,,,,,,,,,,,,,,,,,756978,001,2024-11-28_10h39.14.985,Test,2024.2.1,59.64384346883427,2024-11-28 10h39.34.743843 +0100,
24,150,120,6,None,33,33,0,False,left,2.571412314999179,None,,,,,,,,0,33,33,33,,,,,,,,,476.9604832549994,,,,,,,,,,,,,,,,,,,,,,,,,,,,,,,,,,,,,,,476.9503941769999,476.9604832549994,477.96124059900103,478.9611346340007,478.9611346340007,478.9611346340007,481.54650703100015,left,2.571412314999179,None,,,,,,,,,,,,,,,,,,,,,,,,,,,,,,,,,,,,,,,,,,,756978,001,2024-11-28_10h39.14.985,Test,2024.2.1,59.64384346883427,2024-11-28 10h39.34.743843 +0100,
6,150,30,30,None,34,34,0,False,right,1.279443937999531,None,,,,,,,,0,34,34,34,,,,,,,,,481.561156957001,,,,,,,,,,,,,,,,,,,,,,,,,,,,,,,,,,,,,,,481.5504453129997,481.561156957001,482.5626613959994,483.5460212279995,483.5460212279995,483.5460212279995,484.8304014059995,right,1.279443937999531,None,,,,,,,,,,,,,,,,,,,,,,,,,,,,,,,,,,,,,,,,,,,756978,001,2024-11-28_10h39.14.985,Test,2024.2.1,59.64384346883427,2024-11-28 10h39.34.743843 +0100,
51,150,90,5,None,35,35,0,True,left,1.617503740999382,None,,,,,,,,0,35,35,35,,,,,,,,,484.8450982869999,,,,,,,,,,,,,,,,,,,,,,,,,,,,,,,,,,,,,,,484.83597612499943,484.8450982869999,485.84507591799957,486.8460267240007,486.8460267240007,486.8460267240007,488.46763454100073,left,1.617503740999382,None,,,,,,,,,,,,,,,,,,,,,,,,,,,,,,,,,,,,,,,,,,,756978,001,2024-11-28_10h39.14.985,Test,2024.2.1,59.64384346883427,2024-11-28 10h39.34.743843 +0100,
1,150,0,17,None,36,36,0,False,left,3.116825195000274,None,,,,,,,,0,36,36,36,,,,,,,,,488.48147345600046,,,,,,,,,,,,,,,,,,,,,,,,,,,,,,,,,,,,,,,488.4726707310001,488.48147345600046,489.4961517219999,490.47997703700094,490.47997703700094,490.47997703700094,493.6146229700007,left,3.116825195000274,None,493.4790338160001,493.4790338160001,493.4790338160001,,,,,,,,,,,,,,,,,,,,,,,,,,,,,,,,,,,,,,,,756978,001,2024-11-28_10h39.14.985,Test,2024.2.1,59.64384346883427,2024-11-28 10h39.34.743843 +0100,
11,150,60,49,None,37,37,0,False,left,3.173883071000091,None,,,,,,,,0,37,37,37,,,,,,,,,493.6285509270001,,,,,,,,,,,,,,,,,,,,,,,,,,,,,,,,,,,,,,,493.61825103500087,493.6285509270001,494.6298494570001,495.6294085410009,495.6294085410009,495.6294085410009,498.813666678001,left,3.173883071000091,None,498.6292836049997,498.6292836049997,498.6292836049997,,,,,,,,,,,,,,,,,,,,,,,,,,,,,,,,,,,,,,,,756978,001,2024-11-28_10h39.14.985,Test,2024.2.1,59.64384346883427,2024-11-28 10h39.34.743843 +0100,
32,150,180,25,None,38,38,0,False,right,1.4531265140012692,None,,,,,,,,0,38,38,38,,,,,,,,,498.8297077620009,,,,,,,,,,,,,,,,,,,,,,,,,,,,,,,,,,,,,,,498.81708678200084,498.8297077620009,499.8304685940002,500.8135539690011,500.8135539690011,500.8135539690011,502.28157833800105,right,1.4531265140012692,None,,,,,,,,,,,,,,,,,,,,,,,,,,,,,,,,,,,,,,,,,,,756978,001,2024-11-28_10h39.14.985,Test,2024.2.1,59.64384346883427,2024-11-28 10h39.34.743843 +0100,
56,150,120,31,None,39,39,0,True,left,1.452485464998972,None,,,,,,,,0,39,39,39,,,,,,,,,502.2973922700003,,,,,,,,,,,,,,,,,,,,,,,,,,,,,,,,,,,,,,,502.2882692790008,502.2973922700003,503.3131682940002,504.2967178430008,504.2967178430008,504.2967178430008,505.7652769769993,left,1.452485464998972,None,,,,,,,,,,,,,,,,,,,,,,,,,,,,,,,,,,,,,,,,,,,756978,001,2024-11-28_10h39.14.985,Test,2024.2.1,59.64384346883427,2024-11-28 10h39.34.743843 +0100,
14,150,60,29,None,40,40,0,False,right,1.1519774259995756,None,,,,,,,,0,40,40,40,,,,,,,,,505.78001874599977,,,,,,,,,,,,,,,,,,,,,,,,,,,,,,,,,,,,,,,505.768687021,505.78001874599977,506.78044401199986,507.78108417899966,507.78108417899966,507.78108417899966,508.9483309040006,right,1.1519774259995756,None,,,,,,,,,,,,,,,,,,,,,,,,,,,,,,,,,,,,,,,,,,,756978,001,2024-11-28_10h39.14.985,Test,2024.2.1,59.64384346883427,2024-11-28 10h39.34.743843 +0100,
30,150,150,66,None,41,41,0,False,right,0.9996416210015013,None,,,,,,,,0,41,41,41,,,,,,,,,508.9628292130001,,,,,,,,,,,,,,,,,,,,,,,,,,,,,,,,,,,,,,,508.95174144200064,508.9628292130001,509.9642530380006,510.94791969200014,510.94791969200014,510.94791969200014,511.94999143600035,right,0.9996416210015013,None,,,,,,,,,,,,,,,,,,,,,,,,,,,,,,,,,,,,,,,,,,,756978,001,2024-11-28_10h39.14.985,Test,2024.2.1,59.64384346883427,2024-11-28 10h39.34.743843 +0100,
45,150,30,9,None,42,42,0,True,left,0.9859356280012435,None,,,,,,,,0,42,42,42,,,,,,,,,511.96479906900095,,,,,,,,,,,,,,,,,,,,,,,,,,,,,,,,,,,,,,,511.95562682700074,511.96479906900095,512.9633608090007,513.9641624939995,513.9641624939995,513.9641624939995,514.9659021919997,left,0.9859356280012435,None,,,,,,,,,,,,,,,,,,,,,,,,,,,,,,,,,,,,,,,,,,,756978,001,2024-11-28_10h39.14.985,Test,2024.2.1,59.64384346883427,2024-11-28 10h39.34.743843 +0100,
42,150,30,28,None,43,43,0,True,right,1.2921517440008756,None,,,,,,,,0,43,43,43,,,,,,,,,514.9815147999998,,,,,,,,,,,,,,,,,,,,,,,,,,,,,,,,,,,,,,,514.9720410350001,514.9815147999998,515.9815248369996,516.9805682719998,516.9805682719998,516.9805682719998,518.2816170059996,right,1.2921517440008756,None,,,,,,,,,,,,,,,,,,,,,,,,,,,,,,,,,,,,,,,,,,,756978,001,2024-11-28_10h39.14.985,Test,2024.2.1,59.64384346883427,2024-11-28 10h39.34.743843 +0100,
16,150,90,54,None,44,44,0,False,right,0.9515412710006785,None,,,,,,,,0,44,44,44,,,,,,,,,518.2978225179995,,,,,,,,,,,,,,,,,,,,,,,,,,,,,,,,,,,,,,,518.2851132529995,518.2978225179995,519.2983408649998,520.2806922050004,520.2806922050004,520.2806922050004,521.2492808679999,right,0.9515412710006785,None,,,,,,,,,,,,,,,,,,,,,,,,,,,,,,,,,,,,,,,,,,,756978,001,2024-11-28_10h39.14.985,Test,2024.2.1,59.64384346883427,2024-11-28 10h39.34.743843 +0100,
44,150,30,2,None,45,45,0,True,left,1.1826362000010704,None,,,,,,,,0,45,45,45,,,,,,,,,521.2647077849997,,,,,,,,,,,,,,,,,,,,,,,,,,,,,,,,,,,,,,,521.2557029079999,521.2647077849997,522.265350044001,523.2656158240006,523.2656158240006,523.2656158240006,524.4501762470009,left,1.1826362000010704,None,,,,,,,,,,,,,,,,,,,,,,,,,,,,,,,,,,,,,,,,,,,756978,001,2024-11-28_10h39.14.985,Test,2024.2.1,59.64384346883427,2024-11-28 10h39.34.743843 +0100,
27,150,150,4,None,46,46,0,False,right,1.6888471040001605,None,,,,,,,,0,46,46,46,,,,,,,,,524.4647286130003,,,,,,,,,,,,,,,,,,,,,,,,,,,,,,,,,,,,,,,524.453793652001,524.4647286130003,525.4652456929998,526.4656026690009,526.4656026690009,526.4656026690009,528.1663036730006,right,1.6888471040001605,None,,,,,,,,,,,,,,,,,,,,,,,,,,,,,,,,,,,,,,,,,,,756978,001,2024-11-28_10h39.14.985,Test,2024.2.1,59.64384346883427,2024-11-28 10h39.34.743843 +0100,
58,150,120,42,None,47,47,0,True,right,1.2518629490004969,None,,,,,,,,0,47,47,47,,,,,,,,,528.1812838740007,,,,,,,,,,,,,,,,,,,,,,,,,,,,,,,,,,,,,,,528.1723143809995,528.1812838740007,529.1813654540001,530.1655691720007,530.1655691720007,530.1655691720007,531.4319060020007,right,1.2518629490004969,None,,,,,,,,,,,,,,,,,,,,,,,,,,,,,,,,,,,,,,,,,,,756978,001,2024-11-28_10h39.14.985,Test,2024.2.1,59.64384346883427,2024-11-28 10h39.34.743843 +0100,
68,150,180,63,None,48,48,0,True,left,0.8576970659996732,None,,,,,,,,0,48,48,48,,,,,,,,,531.4481598189996,,,,,,,,,,,,,,,,,,,,,,,,,,,,,,,,,,,,,,,531.4379514789998,531.4481598189996,532.449081185001,533.4326596890005,533.4326596890005,533.4326596890005,534.3011287440004,left,0.8576970659996732,None,,,,,,,,,,,,,,,,,,,,,,,,,,,,,,,,,,,,,,,,,,,756978,001,2024-11-28_10h39.14.985,Test,2024.2.1,59.64384346883427,2024-11-28 10h39.34.743843 +0100,
67,150,180,65,None,49,49,0,True,right,1.4681962499998917,None,,,,,,,,0,49,49,49,,,,,,,,,534.316857107,,,,,,,,,,,,,,,,,,,,,,,,,,,,,,,,,,,,,,,534.3080633099999,534.316857107,535.3317388440009,536.3153455150004,536.3153455150004,536.3153455150004,537.8002559230008,right,1.4681962499998917,None,,,,,,,,,,,,,,,,,,,,,,,,,,,,,,,,,,,,,,,,,,,756978,001,2024-11-28_10h39.14.985,Test,2024.2.1,59.64384346883427,2024-11-28 10h39.34.743843 +0100,
19,150,90,45,None,50,50,0,False,left,1.0551355600000534,None,,,,,,,,0,50,50,50,,,,,,,,,537.8148545429995,,,,,,,,,,,,,,,,,,,,,,,,,,,,,,,,,,,,,,,537.8038970859998,537.8148545429995,538.8157222610007,539.7997950600002,539.7997950600002,539.7997950600002,540.8671344539998,left,1.0551355600000534,None,,,,,,,,,,,,,,,,,,,,,,,,,,,,,,,,,,,,,,,,,,,756978,001,2024-11-28_10h39.14.985,Test,2024.2.1,59.64384346883427,2024-11-28 10h39.34.743843 +0100,
40,150,0,61,None,51,51,0,True,left,1.3689232100005029,None,,,,,,,,0,51,51,51,,,,,,,,,540.8824532929993,,,,,,,,,,,,,,,,,,,,,,,,,,,,,,,,,,,,,,,540.8732262419999,540.8824532929993,541.8836775920008,542.8672318259996,542.8672318259996,542.8672318259996,544.2505583679995,left,1.3689232100005029,None,,,,,,,,,,,,,,,,,,,,,,,,,,,,,,,,,,,,,,,,,,,756978,001,2024-11-28_10h39.14.985,Test,2024.2.1,59.64384346883427,2024-11-28 10h39.34.743843 +0100,
63,150,150,67,None,52,52,0,True,right,1.03072795800108,None,,,,,,,,0,52,52,52,,,,,,,,,544.2658420210009,,,,,,,,,,,,,,,,,,,,,,,,,,,,,,,,,,,,,,,544.2565404939996,544.2658420210009,545.2663468780011,546.2493176459993,546.2493176459993,546.2493176459993,547.2851419439994,right,1.03072795800108,None,,,,,,,,,,,,,,,,,,,,,,,,,,,,,,,,,,,,,,,,,,,756978,001,2024-11-28_10h39.14.985,Test,2024.2.1,59.64384346883427,2024-11-28 10h39.34.743843 +0100,
61,150,150,53,None,53,53,0,True,left,0.9685991610003839,None,,,,,,,,0,53,53,53,,,,,,,,,547.3001900109994,,,,,,,,,,,,,,,,,,,,,,,,,,,,,,,,,,,,,,,547.2907015580004,547.3001900109994,548.3005466129998,549.3002381269998,549.3002381269998,549.3002381269998,550.2840372770006,left,0.9685991610003839,None,,,,,,,,,,,,,,,,,,,,,,,,,,,,,,,,,,,,,,,,,,,756978,001,2024-11-28_10h39.14.985,Test,2024.2.1,59.64384346883427,2024-11-28 10h39.34.743843 +0100,
49,150,60,20,None,54,54,0,True,left,1.0332764260001568,None,,,,,,,,0,54,54,54,,,,,,,,,550.2999302499993,,,,,,,,,,,,,,,,,,,,,,,,,,,,,,,,,,,,,,,550.2899817500002,550.2999302499993,551.3001697620002,552.2838844550006,552.2838844550006,552.2838844550006,553.3345419220004,left,1.0332764260001568,None,,,,,,,,,,,,,,,,,,,,,,,,,,,,,,,,,,,,,,,,,,,756978,001,2024-11-28_10h39.14.985,Test,2024.2.1,59.64384346883427,2024-11-28 10h39.34.743843 +0100,
13,150,60,23,None,55,55,0,False,left,1.8837102849993244,None,,,,,,,,0,55,55,55,,,,,,,,,553.3495950050001,,,,,,,,,,,,,,,,,,,,,,,,,,,,,,,,,,,,,,,553.3383212400004,553.3495950050001,554.3496637450007,555.3344389079994,555.3344389079994,555.3344389079994,557.2354133200006,left,1.8837102849993244,None,,,,,,,,,,,,,,,,,,,,,,,,,,,,,,,,,,,,,,,,,,,756978,001,2024-11-28_10h39.14.985,Test,2024.2.1,59.64384346883427,2024-11-28 10h39.34.743843 +0100,
28,150,150,36,None,56,56,0,False,right,0.9479973190009332,None,,,,,,,,0,56,56,56,,,,,,,,,557.2494711849995,,,,,,,,,,,,,,,,,,,,,,,,,,,,,,,,,,,,,,,557.2387590489998,557.2494711849995,558.2509059610002,559.2504358890001,559.2504358890001,559.2504358890001,560.2025648859999,right,0.9479973190009332,None,,,,,,,,,,,,,,,,,,,,,,,,,,,,,,,,,,,,,,,,,,,756978,001,2024-11-28_10h39.14.985,Test,2024.2.1,59.64384346883427,2024-11-28 10h39.34.743843 +0100,
57,150,120,64,None,57,57,0,True,right,2.565520514999662,None,,,,,,,,0,57,57,57,,,,,,,,,560.2172745330008,,,,,,,,,,,,,,,,,,,,,,,,,,,,,,,,,,,,,,,560.2087160659994,560.2172745330008,561.2340649230009,562.2180623530003,562.2180623530003,562.2180623530003,564.7866105510002,right,2.565520514999662,None,,,,,,,,,,,,,,,,,,,,,,,,,,,,,,,,,,,,,,,,,,,756978,001,2024-11-28_10h39.14.985,Test,2024.2.1,59.64384346883427,2024-11-28 10h39.34.743843 +0100,
47,150,60,10,None,58,58,0,True,left,0.7432390579997445,None,,,,,,,,0,58,58,58,,,,,,,,,564.8026644370002,,,,,,,,,,,,,,,,,,,,,,,,,,,,,,,,,,,,,,,564.7941357910004,564.8026644370002,565.8173176769997,566.8011993740001,566.8011993740001,566.8011993740001,567.5522449510008,left,0.7432390579997445,None,,,,,,,,,,,,,,,,,,,,,,,,,,,,,,,,,,,,,,,,,,,756978,001,2024-11-28_10h39.14.985,Test,2024.2.1,59.64384346883427,2024-11-28 10h39.34.743843 +0100,
53,150,90,51,None,59,59,0,True,left,0.9183424780003406,None,,,,,,,,0,59,59,59,,,,,,,,,567.5677969589997,,,,,,,,,,,,,,,,,,,,,,,,,,,,,,,,,,,,,,,567.5583593659994,567.5677969589997,568.5686587920009,569.5686535660006,569.5686535660006,569.5686535660006,570.5024255370008,left,0.9183424780003406,None,,,,,,,,,,,,,,,,,,,,,,,,,,,,,,,,,,,,,,,,,,,756978,001,2024-11-28_10h39.14.985,Test,2024.2.1,59.64384346883427,2024-11-28 10h39.34.743843 +0100,
70,150,180,56,None,60,60,0,True,left,1.1183286080013204,None,,,,,,,,0,60,60,60,,,,,,,,,570.5181440979995,,,,,,,,,,,,,,,,,,,,,,,,,,,,,,,,,,,,,,,570.5090670000009,570.5181440979995,571.5184761979999,572.5021476399997,572.5021476399997,572.5021476399997,573.6354808319993,left,1.1183286080013204,None,,,,,,,,,,,,,,,,,,,,,,,,,,,,,,,,,,,,,,,,,,,756978,001,2024-11-28_10h39.14.985,Test,2024.2.1,59.64384346883427,2024-11-28 10h39.34.743843 +0100,
39,150,0,60,None,61,61,0,True,left,1.6131942909996724,None,,,,,,,,0,61,61,61,,,,,,,,,573.6510781830002,,,,,,,,,,,,,,,,,,,,,,,,,,,,,,,,,,,,,,,573.642783878,573.6510781830002,574.6523515589997,575.6355072320002,575.6355072320002,575.6355072320002,577.2538293800008,left,1.6131942909996724,None,,,,,,,,,,,,,,,,,,,,,,,,,,,,,,,,,,,,,,,,,,,756978,001,2024-11-28_10h39.14.985,Test,2024.2.1,59.64384346883427,2024-11-28 10h39.34.743843 +0100,
34,150,180,57,None,62,62,0,False,left,1.6516246489991318,None,,,,,,,,0,62,62,62,,,,,,,,,577.2681779859995,,,,,,,,,,,,,,,,,,,,,,,,,,,,,,,,,,,,,,,577.2572593260011,577.2681779859995,578.2681514129999,579.267749345001,579.267749345001,579.267749345001,580.9371444490007,left,1.6516246489991318,None,,,,,,,,,,,,,,,,,,,,,,,,,,,,,,,,,,,,,,,,,,,756978,001,2024-11-28_10h39.14.985,Test,2024.2.1,59.64384346883427,2024-11-28 10h39.34.743843 +0100,
12,150,60,62,None,63,63,0,False,right,0.957027525999365,None,,,,,,,,0,63,63,63,,,,,,,,,580.9509836289999,,,,,,,,,,,,,,,,,,,,,,,,,,,,,,,,,,,,,,,580.9405319130001,580.9509836289999,581.9528202399997,582.9529016840006,582.9529016840006,582.9529016840006,583.9199750000007,right,0.957027525999365,None,,,,,,,,,,,,,,,,,,,,,,,,,,,,,,,,,,,,,,,,,,,756978,001,2024-11-28_10h39.14.985,Test,2024.2.1,59.64384346883427,2024-11-28 10h39.34.743843 +0100,
26,150,150,12,None,64,64,0,False,right,0.885104508999575,None,,,,,,,,0,64,64,64,,,,,,,,,583.9348841570009,,,,,,,,,,,,,,,,,,,,,,,,,,,,,,,,,,,,,,,583.9235543499999,583.9348841570009,584.9353030620005,585.9186841739993,585.9186841739993,585.9186841739993,586.8208198440007,right,0.885104508999575,None,,,,,,,,,,,,,,,,,,,,,,,,,,,,,,,,,,,,,,,,,,,756978,001,2024-11-28_10h39.14.985,Test,2024.2.1,59.64384346883427,2024-11-28 10h39.34.743843 +0100,
9,150,30,70,None,65,65,0,False,right,1.1639471429989499,None,,,,,,,,0,65,65,65,,,,,,,,,586.8349492190009,,,,,,,,,,,,,,,,,,,,,,,,,,,,,,,,,,,,,,,586.8244388980002,586.8349492190009,587.835502494001,588.8355185269993,588.8355185269993,588.8355185269993,590.0042983839994,right,1.1639471429989499,None,,,,,,,,,,,,,,,,,,,,,,,,,,,,,,,,,,,,,,,,,,,756978,001,2024-11-28_10h39.14.985,Test,2024.2.1,59.64384346883427,2024-11-28 10h39.34.743843 +0100,
23,150,120,16,None,66,66,0,False,right,0.9220014799993805,None,,,,,,,,0,66,66,66,,,,,,,,,590.0183277449996,,,,,,,,,,,,,,,,,,,,,,,,,,,,,,,,,,,,,,,590.0077809960003,590.0183277449996,591.0196379330009,592.0190566769998,592.0190566769998,592.0190566769998,592.9540338639999,right,0.9220014799993805,None,,,,,,,,,,,,,,,,,,,,,,,,,,,,,,,,,,,,,,,,,,,756978,001,2024-11-28_10h39.14.985,Test,2024.2.1,59.64384346883427,2024-11-28 10h39.34.743843 +0100,
41,150,30,19,None,67,67,0,True,right,1.3253247789998568,None,,,,,,,,0,67,67,67,,,,,,,,,592.9699734919996,,,,,,,,,,,,,,,,,,,,,,,,,,,,,,,,,,,,,,,592.9615948850005,592.9699734919996,593.9701145859999,594.9536585370006,594.9536585370006,594.9536585370006,596.2886072260007,right,1.3253247789998568,None,,,,,,,,,,,,,,,,,,,,,,,,,,,,,,,,,,,,,,,,,,,756978,001,2024-11-28_10h39.14.985,Test,2024.2.1,59.64384346883427,2024-11-28 10h39.34.743843 +0100,
50,150,60,47,None,68,68,0,True,left,1.0643005769998126,None,,,,,,,,0,68,68,68,,,,,,,,,596.3034088280001,,,,,,,,,,,,,,,,,,,,,,,,,,,,,,,,,,,,,,,596.2946611070001,596.3034088280001,597.303023153001,598.303050984001,598.303050984001,598.303050984001,599.3718845359999,left,1.0643005769998126,None,,,,,,,,,,,,,,,,,,,,,,,,,,,,,,,,,,,,,,,,,,,756978,001,2024-11-28_10h39.14.985,Test,2024.2.1,59.64384346883427,2024-11-28 10h39.34.743843 +0100,
20,150,90,38,None,69,69,0,False,right,1.441120127999966,None,,,,,,,,0,69,69,69,,,,,,,,,599.3856007880004,,,,,,,,,,,,,,,,,,,,,,,,,,,,,,,,,,,,,,,599.3752367390007,599.3856007880004,600.3872009810002,601.3871262470002,601.3871262470002,601.3871262470002,602.8378430770008,right,1.441120127999966,None,,,,,,,,,,,,,,,,,,,,,,,,,,,,,,,,,,,,,,,,,,,756978,001,2024-11-28_10h39.14.985,Test,2024.2.1,59.64384346883427,2024-11-28 10h39.34.743843 +0100,
,,,,,,,,,,,,,,,,,,,,,,,,,,,,,,,,,,,,,,,,,,,,,,,,,,,,,,,,,,,,,,,,,,,,,,,,,,,,,,,,,,,602.8380061019998,602.8534421469994,602.8534421469994,606.2391420889999,space,3.380672290999428,None,,,,,,,,,,,,,,,,,,,,,,,,,,,,,,,,,756978,001,2024-11-28_10h39.14.985,Test,2024.2.1,59.64384346883427,2024-11-28 10h39.34.743843 +0100,
21,150,120,34,None,0,0,0,,,,,,,,,,,,,,,,0,0,0,20,,,,,606.2608102100003,,,,,,,,,,,,,,,,,,,,,,,,,,,,,,,,,,,,,,,,,,,,,,,,,,,,,,,,,,,606.2520093820003,606.2608102100003,606.4541800730003,606.4541800730003,606.4708737870005,608.157197257,608.157197257,608.1388114029996,,,,,,,,,,,,,,,,,,,,,,,,,756978,001,2024-11-28_10h39.14.985,Test,2024.2.1,59.64384346883427,2024-11-28 10h39.34.743843 +0100,
1,150,0,17,None,1,1,0,,,,,,,,,,,,,,,,0,1,1,0,,,,,608.157197257,,,,,,,,,,,,,,,,,,,,,,,,,,,,,,,,,,,,,,,,,,,,,,,,,,,,,,,,,,,608.1491526570007,608.157197257,608.3534658019998,608.3534658019998,608.3707808350009,610.0544709120004,610.0544709120004,610.0384242270011,,,,,,,,,,,,,,,,,,,,,,,,,756978,001,2024-11-28_10h39.14.985,Test,2024.2.1,59.64384346883427,2024-11-28 10h39.34.743843 +0100,
25,150,120,26,None,2,2,0,,,,,,,,,,,,,,,,0,2,2,24,,,,,610.0544709120004,,,,,,,,,,,,,,,,,,,,,,,,,,,,,,,,,,,,,,,,,,,,,,,,,,,,,,,,,,,610.0459962700006,610.0544709120004,610.2545125140005,610.2545125140005,610.2545125140005,611.9570503680006,611.9570503680006,611.9392570199998,,,,,,,,,,,,,,,,,,,,,,,,,756978,001,2024-11-28_10h39.14.985,Test,2024.2.1,59.64384346883427,2024-11-28 10h39.34.743843 +0100,
10,150,30,21,None,3,3,0,,,,,,,,,,,,,,,,0,3,3,9,,,,,611.9570503680006,,,,,,,,,,,,,,,,,,,,,,,,,,,,,,,,,,,,,,,,,,,,,,,,,,,,,,,,,,,611.9489932640008,611.9570503680006,612.1545198250005,612.1545198250005,612.1710143460004,613.8540374860004,613.8540374860004,613.8381157300009,,,,,,,,,,,,,,,,,,,,,,,,,756978,001,2024-11-28_10h39.14.985,Test,2024.2.1,59.64384346883427,2024-11-28 10h39.34.743843 +0100,
35,150,180,1,None,4,4,0,,,,,,,,,,,,,,,,0,4,4,34,,,,,613.8540374860004,,,,,,,,,,,,,,,,,,,,,,,,,,,,,,,,,,,,,,,,,,,,,,,,,,,,,,,,,,,613.8450179230003,613.8540374860004,614.0540259749996,614.0540259749996,614.0540259749996,615.7545789310007,615.7545789310007,615.738515944,,,,,,,,,,,,,,,,,,,,,,,,,756978,001,2024-11-28_10h39.14.985,Test,2024.2.1,59.64384346883427,2024-11-28 10h39.34.743843 +0100,
32,150,180,25,None,5,5,0,,,,,,,,,,,,,,,,0,5,5,31,,,,,615.7545789310007,,,,,,,,,,,,,,,,,,,,,,,,,,,,,,,,,,,,,,,,,,,,,,,,,,,,,,,,,,,615.7460209540004,615.7545789310007,615.954025246001,615.954025246001,615.954025246001,617.6536146310009,617.6536146310009,617.6383249760001,,,,,,,,,,,,,,,,,,,,,,,,,756978,001,2024-11-28_10h39.14.985,Test,2024.2.1,59.64384346883427,2024-11-28 10h39.34.743843 +0100,
4,150,0,8,None,6,6,0,,,,,,,,,,,,,,,,0,6,6,3,,,,,617.6536146310009,,,,,,,,,,,,,,,,,,,,,,,,,,,,,,,,,,,,,,,,,,,,,,,,,,,,,,,,,,,617.6440726729998,617.6536146310009,617.8544475790004,617.8544475790004,617.8544475790004,619.5545381819993,619.5545381819993,619.5389180740003,,,,,,,,,,,,,,,,,,,,,,,,,756978,001,2024-11-28_10h39.14.985,Test,2024.2.1,59.64384346883427,2024-11-28 10h39.34.743843 +0100,
23,150,120,16,None,7,7,0,,,,,,,,,,,,,,,,0,7,7,22,,,,,619.5545381819993,,,,,,,,,,,,,,,,,,,,,,,,,,,,,,,,,,,,,,,,,,,,,,,,,,,,,,,,,,,619.545213972,619.5545381819993,619.7547683020002,619.7547683020002,619.7547683020002,621.4541985100004,621.4541985100004,621.4388387039999,,,,,,,,,,,,,,,,,,,,,,,,,756978,001,2024-11-28_10h39.14.985,Test,2024.2.1,59.64384346883427,2024-11-28 10h39.34.743843 +0100,
28,150,150,36,None,8,8,0,,,,,,,,,,,,,,,,0,8,8,27,,,,,621.4541985100004,,,,,,,,,,,,,,,,,,,,,,,,,,,,,,,,,,,,,,,,,,,,,,,,,,,,,,,,,,,621.4454703890005,621.4541985100004,621.6377201790001,621.6377201790001,621.6550226489999,623.3405588189999,623.3405588189999,623.3229204479994,,,,,,,,,,,,,,,,,,,,,,,,,756978,001,2024-11-28_10h39.14.985,Test,2024.2.1,59.64384346883427,2024-11-28 10h39.34.743843 +0100,
30,150,150,66,None,9,9,0,,,,,,,,,,,,,,,,0,9,9,29,,,,,623.3405588189999,,,,,,,,,,,,,,,,,,,,,,,,,,,,,,,,,,,,,,,,,,,,,,,,,,,,,,,,,,,623.3321907070003,623.3405588189999,623.5546179249995,623.5546179249995,623.5546179249995,625.2586439099996,625.2586439099996,625.239901125,,,,,,,,,,,,,,,,,,,,,,,,,756978,001,2024-11-28_10h39.14.985,Test,2024.2.1,59.64384346883427,2024-11-28 10h39.34.743843 +0100,
15,150,60,55,None,10,10,0,,,,,,,,,,,,,,,,0,10,10,14,,,,,625.2586439099996,,,,,,,,,,,,,,,,,,,,,,,,,,,,,,,,,,,,,,,,,,,,,,,,,,,,,,,,,,,625.2497414419995,625.2586439099996,625.438921207,625.438921207,625.4725936619998,627.1419442320002,627.1419442320002,627.1233854519996,,,,,,,,,,,,,,,,,,,,,,,,,756978,001,2024-11-28_10h39.14.985,Test,2024.2.1,59.64384346883427,2024-11-28 10h39.34.743843 +0100,
22,150,120,32,None,11,11,0,,,,,,,,,,,,,,,,0,11,11,21,,,,,627.1419442320002,,,,,,,,,,,,,,,,,,,,,,,,,,,,,,,,,,,,,,,,,,,,,,,,,,,,,,,,,,,627.1332298449997,627.1419442320002,627.3550860430005,627.3550860430005,627.3550860430005,629.0544674430002,629.0544674430002,629.0389841110009,,,,,,,,,,,,,,,,,,,,,,,,,756978,001,2024-11-28_10h39.14.985,Test,2024.2.1,59.64384346883427,2024-11-28 10h39.34.743843 +0100,
29,150,150,46,None,12,12,0,,,,,,,,,,,,,,,,0,12,12,28,,,,,629.0544674430002,,,,,,,,,,,,,,,,,,,,,,,,,,,,,,,,,,,,,,,,,,,,,,,,,,,,,,,,,,,629.0447832000009,629.0544674430002,629.2385307500008,629.2385307500008,629.254848953,630.9411104560004,630.9411104560004,630.9236449420005,,,,,,,,,,,,,,,,,,,,,,,,,756978,001,2024-11-28_10h39.14.985,Test,2024.2.1,59.64384346883427,2024-11-28 10h39.34.743843 +0100,
5,150,0,69,None,13,13,0,,,,,,,,,,,,,,,,0,13,13,4,,,,,630.9411104560004,,,,,,,,,,,,,,,,,,,,,,,,,,,,,,,,,,,,,,,,,,,,,,,,,,,,,,,,,,,630.9327609280008,630.9411104560004,631.1393287680003,631.1393287680003,631.1560233649998,632.838318909,632.838318909,632.8232703310005,,,,,,,,,,,,,,,,,,,,,,,,,756978,001,2024-11-28_10h39.14.985,Test,2024.2.1,59.64384346883427,2024-11-28 10h39.34.743843 +0100,
9,150,30,70,None,14,14,0,,,,,,,,,,,,,,,,0,14,14,8,,,,,632.838318909,,,,,,,,,,,,,,,,,,,,,,,,,,,,,,,,,,,,,,,,,,,,,,,,,,,,,,,,,,,632.8294213280005,632.838318909,633.0386206340008,633.0386206340008,633.0386206340008,634.7388183940002,634.7388183940002,634.7225031300004,,,,,,,,,,,,,,,,,,,,,,,,,756978,001,2024-11-28_10h39.14.985,Test,2024.2.1,59.64384346883427,2024-11-28 10h39.34.743843 +0100,
8,150,30,43,None,15,15,0,,,,,,,,,,,,,,,,0,15,15,7,,,,,634.7388183940002,,,,,,,,,,,,,,,,,,,,,,,,,,,,,,,,,,,,,,,,,,,,,,,,,,,,,,,,,,,634.7281569669994,634.7388183940002,634.9385970809999,634.9385970809999,634.9385970809999,636.6391375700005,636.6391375700005,636.623261312001,,,,,,,,,,,,,,,,,,,,,,,,,756978,001,2024-11-28_10h39.14.985,Test,2024.2.1,59.64384346883427,2024-11-28 10h39.34.743843 +0100,
19,150,90,45,None,16,16,0,,,,,,,,,,,,,,,,0,16,16,18,,,,,636.6391375700005,,,,,,,,,,,,,,,,,,,,,,,,,,,,,,,,,,,,,,,,,,,,,,,,,,,,,,,,,,,636.6302077210003,636.6391375700005,636.8393176869995,636.8393176869995,636.8393176869995,638.5421010509999,638.5421010509999,638.5241258389997,,,,,,,,,,,,,,,,,,,,,,,,,756978,001,2024-11-28_10h39.14.985,Test,2024.2.1,59.64384346883427,2024-11-28 10h39.34.743843 +0100,
17,150,90,58,None,17,17,0,,,,,,,,,,,,,,,,0,17,17,16,,,,,638.5421010509999,,,,,,,,,,,,,,,,,,,,,,,,,,,,,,,,,,,,,,,,,,,,,,,,,,,,,,,,,,,638.5336020539999,638.5421010509999,638.7388790370005,638.7388790370005,638.7554968019995,640.4388817840008,640.4388817840008,640.4233245699997,,,,,,,,,,,,,,,,,,,,,,,,,756978,001,2024-11-28_10h39.14.985,Test,2024.2.1,59.64384346883427,2024-11-28 10h39.34.743843 +0100,
14,150,60,29,None,18,18,0,,,,,,,,,,,,,,,,0,18,18,13,,,,,640.4388817840008,,,,,,,,,,,,,,,,,,,,,,,,,,,,,,,,,,,,,,,,,,,,,,,,,,,,,,,,,,,640.4291113189993,640.4388817840008,640.6391159440009,640.6391159440009,640.6391159440009,642.3428522659997,642.3428522659997,642.3245344059997,,,,,,,,,,,,,,,,,,,,,,,,,756978,001,2024-11-28_10h39.14.985,Test,2024.2.1,59.64384346883427,2024-11-28 10h39.34.743843 +0100,
11,150,60,49,None,19,19,0,,,,,,,,,,,,,,,,0,19,19,10,,,,,642.3428522659997,,,,,,,,,,,,,,,,,,,,,,,,,,,,,,,,,,,,,,,,,,,,,,,,,,,,,,,,,,,642.3346787970004,642.3428522659997,642.539425772,642.539425772,642.5558609740001,644.2388065619998,644.2388065619998,644.2233560679997,,,,,,,,,,,,,,,,,,,,,,,,,756978,001,2024-11-28_10h39.14.985,Test,2024.2.1,59.64384346883427,2024-11-28 10h39.34.743843 +0100,
27,150,150,4,None,20,20,0,,,,,,,,,,,,,,,,0,20,20,26,,,,,644.2388065619998,,,,,,,,,,,,,,,,,,,,,,,,,,,,,,,,,,,,,,,,,,,,,,,,,,,,,,,,,,,644.2294557669993,644.2388065619998,644.4393592199995,644.4393592199995,644.4393592199995,646.1393200309994,646.1393200309994,646.123589842,,,,,,,,,,,,,,,,,,,,,,,,,756978,001,2024-11-28_10h39.14.985,Test,2024.2.1,59.64384346883427,2024-11-28 10h39.34.743843 +0100,
33,150,180,59,None,21,21,0,,,,,,,,,,,,,,,,0,21,21,32,,,,,646.1393200309994,,,,,,,,,,,,,,,,,,,,,,,,,,,,,,,,,,,,,,,,,,,,,,,,,,,,,,,,,,,646.1291227140009,646.1393200309994,646.3405263999994,646.3405263999994,646.3405263999994,648.0398197249997,648.0398197249997,648.0242962060001,,,,,,,,,,,,,,,,,,,,,,,,,756978,001,2024-11-28_10h39.14.985,Test,2024.2.1,59.64384346883427,2024-11-28 10h39.34.743843 +0100,
24,150,120,6,None,22,22,0,,,,,,,,,,,,,,,,0,22,22,23,,,,,648.0398197249997,,,,,,,,,,,,,,,,,,,,,,,,,,,,,,,,,,,,,,,,,,,,,,,,,,,,,,,,,,,648.0315853859993,648.0398197249997,648.2396478909995,648.2396478909995,648.2396478909995,649.9434809810009,649.9434809810009,649.9250260320005,,,,,,,,,,,,,,,,,,,,,,,,,756978,001,2024-11-28_10h39.14.985,Test,2024.2.1,59.64384346883427,2024-11-28 10h39.34.743843 +0100,
20,150,90,38,None,23,23,0,,,,,,,,,,,,,,,,0,23,23,19,,,,,649.9434809810009,,,,,,,,,,,,,,,,,,,,,,,,,,,,,,,,,,,,,,,,,,,,,,,,,,,,,,,,,,,649.934948049,649.9434809810009,650.1401161979993,650.1401161979993,650.1568326209999,651.8431507580008,651.8431507580008,651.8250622350006,,,,,,,,,,,,,,,,,,,,,,,,,756978,001,2024-11-28_10h39.14.985,Test,2024.2.1,59.64384346883427,2024-11-28 10h39.34.743843 +0100,
31,150,180,22,None,24,24,0,,,,,,,,,,,,,,,,0,24,24,30,,,,,651.8431507580008,,,,,,,,,,,,,,,,,,,,,,,,,,,,,,,,,,,,,,,,,,,,,,,,,,,,,,,,,,,651.8349693929995,651.8431507580008,652.0403894730007,652.0403894730007,652.0570951709997,653.7402089869993,653.7402089869993,653.7242375059996,,,,,,,,,,,,,,,,,,,,,,,,,756978,001,2024-11-28_10h39.14.985,Test,2024.2.1,59.64384346883427,2024-11-28 10h39.34.743843 +0100,
26,150,150,12,None,25,25,0,,,,,,,,,,,,,,,,0,25,25,25,,,,,653.7402089869993,,,,,,,,,,,,,,,,,,,,,,,,,,,,,,,,,,,,,,,,,,,,,,,,,,,,,,,,,,,653.7318406060003,653.7402089869993,653.940139571001,653.940139571001,653.940139571001,655.6414048709994,655.6414048709994,655.6247080590001,,,,,,,,,,,,,,,,,,,,,,,,,756978,001,2024-11-28_10h39.14.985,Test,2024.2.1,59.64384346883427,2024-11-28 10h39.34.743843 +0100,
12,150,60,62,None,26,26,0,,,,,,,,,,,,,,,,0,26,26,11,,,,,655.6414048709994,,,,,,,,,,,,,,,,,,,,,,,,,,,,,,,,,,,,,,,,,,,,,,,,,,,,,,,,,,,655.6330015090007,655.6414048709994,655.8414441999994,655.8414441999994,655.8414441999994,657.5450769050003,657.5450769050003,657.5254124090006,,,,,,,,,,,,,,,,,,,,,,,,,756978,001,2024-11-28_10h39.14.985,Test,2024.2.1,59.64384346883427,2024-11-28 10h39.34.743843 +0100,
6,150,30,30,None,27,27,0,,,,,,,,,,,,,,,,0,27,27,5,,,,,657.5450769050003,,,,,,,,,,,,,,,,,,,,,,,,,,,,,,,,,,,,,,,,,,,,,,,,,,,,,,,,,,,657.5376880750009,657.5450769050003,657.7408768450005,657.7408768450005,657.7573494980006,659.4413439319997,659.4413439319997,659.4251962849994,,,,,,,,,,,,,,,,,,,,,,,,,756978,001,2024-11-28_10h39.14.985,Test,2024.2.1,59.64384346883427,2024-11-28 10h39.34.743843 +0100,
34,150,180,57,None,28,28,0,,,,,,,,,,,,,,,,0,28,28,33,,,,,659.4413439319997,,,,,,,,,,,,,,,,,,,,,,,,,,,,,,,,,,,,,,,,,,,,,,,,,,,,,,,,,,,659.4327493319997,659.4413439319997,659.6408792889997,659.6408792889997,659.6408792889997,661.3408125650003,661.3408125650003,661.3247566900009,,,,,,,,,,,,,,,,,,,,,,,,,756978,001,2024-11-28_10h39.14.985,Test,2024.2.1,59.64384346883427,2024-11-28 10h39.34.743843 +0100,
13,150,60,23,None,29,29,0,,,,,,,,,,,,,,,,0,29,29,12,,,,,661.3408125650003,,,,,,,,,,,,,,,,,,,,,,,,,,,,,,,,,,,,,,,,,,,,,,,,,,,,,,,,,,,661.3310609,661.3408125650003,661.5404703080003,661.5404703080003,661.5404703080003,663.2470911649998,663.2470911649998,663.2262768960009,,,,,,,,,,,,,,,,,,,,,,,,,756978,001,2024-11-28_10h39.14.985,Test,2024.2.1,59.64384346883427,2024-11-28 10h39.34.743843 +0100,
18,150,90,11,None,30,30,0,,,,,,,,,,,,,,,,0,30,30,17,,,,,663.2470911649998,,,,,,,,,,,,,,,,,,,,,,,,,,,,,,,,,,,,,,,,,,,,,,,,,,,,,,,,,,,663.2382916620008,663.2470911649998,663.4416839759997,663.4416839759997,663.4582854420005,665.1405784840008,665.1405784840008,665.1254542210008,,,,,,,,,,,,,,,,,,,,,,,,,756978,001,2024-11-28_10h39.14.985,Test,2024.2.1,59.64384346883427,2024-11-28 10h39.34.743843 +0100,
16,150,90,54,None,31,31,0,,,,,,,,,,,,,,,,0,31,31,15,,,,,665.1405784840008,,,,,,,,,,,,,,,,,,,,,,,,,,,,,,,,,,,,,,,,,,,,,,,,,,,,,,,,,,,665.1324270509995,665.1405784840008,665.3414788709997,665.3414788709997,665.3414788709997,667.040936925001,667.040936925001,667.0250197000005,,,,,,,,,,,,,,,,,,,,,,,,,756978,001,2024-11-28_10h39.14.985,Test,2024.2.1,59.64384346883427,2024-11-28 10h39.34.743843 +0100,
3,150,0,50,None,32,32,0,,,,,,,,,,,,,,,,0,32,32,2,,,,,667.040936925001,,,,,,,,,,,,,,,,,,,,,,,,,,,,,,,,,,,,,,,,,,,,,,,,,,,,,,,,,,,667.0307652270003,667.040936925001,667.2409711910004,667.2409711910004,667.2409711910004,668.9407346490007,668.9407346490007,668.9249094179995,,,,,,,,,,,,,,,,,,,,,,,,,756978,001,2024-11-28_10h39.14.985,Test,2024.2.1,59.64384346883427,2024-11-28 10h39.34.743843 +0100,
7,150,30,15,None,33,33,0,,,,,,,,,,,,,,,,0,33,33,6,,,,,668.9407346490007,,,,,,,,,,,,,,,,,,,,,,,,,,,,,,,,,,,,,,,,,,,,,,,,,,,,,,,,,,,668.9306862819994,668.9407346490007,669.1409515159994,669.1409515159994,669.1409515159994,670.8407811510006,670.8407811510006,670.8258447810003,,,,,,,,,,,,,,,,,,,,,,,,,756978,001,2024-11-28_10h39.14.985,Test,2024.2.1,59.64384346883427,2024-11-28 10h39.34.743843 +0100,
2,150,0,41,None,34,34,0,,,,,,,,,,,,,,,,0,34,34,1,,,,,670.8407811510006,,,,,,,,,,,,,,,,,,,,,,,,,,,,,,,,,,,,,,,,,,,,,,,,,,,,,,,,,,,670.831966918,670.8407811510006,671.0417494760004,671.0417494760004,671.0417494760004,672.7412821870003,672.7412821870003,672.7258834990007,,,,,,,,,,,,,,,,,,,,,,,,,756978,001,2024-11-28_10h39.14.985,Test,2024.2.1,59.64384346883427,2024-11-28 10h39.34.743843 +0100,
,,,,,,,,,,,,,,,,,,,,,,,,,,,,,,,,,,,,,,,,,,,,,,,,,,,,,,,,,,,,,,,,,,,,,,,,,,,,,,,,,,,,,,,,,,,,,,,,,,672.7260567190006,672.7412821870003,672.7412821870003,682.3950118449993,space,9.651223273998767,None,,,,,,,,,,,,,,,,,,756978,001,2024-11-28_10h39.14.985,Test,2024.2.1,59.64384346883427,2024-11-28 10h39.34.743843 +0100,
15,150,60,55,None,0,0,0,False,,,,right,1.1576520729995536,None,,,,,,,,,,,,,0,0,0,0,682.4170530379997,,,,,,,,,,,,,,,,,,,,,,,,,,,,,,,,,,,,,,,,,,,,,,,,,,,,,,,,,,,,,,,,,,,,,,,,,,682.4079600429995,682.4170530379997,683.4259676780002,684.4097598059998,684.4097598059998,684.4097598059998,685.577507553,right,1.1576520729995536,None,,,,,,,,756978,001,2024-11-28_10h39.14.985,Test,2024.2.1,59.64384346883427,2024-11-28 10h39.34.743843 +0100,
55,150,90,35,None,1,1,0,True,,,,right,0.9167185510013951,None,,,,,,,,,,,,,0,1,1,1,685.5928055900004,,,,,,,,,,,,,,,,,,,,,,,,,,,,,,,,,,,,,,,,,,,,,,,,,,,,,,,,,,,,,,,,,,,,,,,,,,685.5836662750007,685.5928055900004,686.5932731760004,687.5934683790001,687.5934683790001,687.5934683790001,688.5282564330009,right,0.9167185510013951,None,,,,,,,,756978,001,2024-11-28_10h39.14.985,Test,2024.2.1,59.64384346883427,2024-11-28 10h39.34.743843 +0100,
38,150,0,37,None,2,2,0,True,,,,left,1.4749945660005324,None,,,,,,,,,,,,,0,2,2,2,688.542847398001,,,,,,,,,,,,,,,,,,,,,,,,,,,,,,,,,,,,,,,,,,,,,,,,,,,,,,,,,,,,,,,,,,,,,,,,,,688.5341869410004,688.542847398001,689.542944027,690.5437983150005,690.5437983150005,690.5437983150005,692.0273733169997,left,1.4749945660005324,None,,,,,,,,756978,001,2024-11-28_10h39.14.985,Test,2024.2.1,59.64384346883427,2024-11-28 10h39.34.743843 +0100,
60,150,120,3,None,3,3,0,True,,,,left,0.9658838100003777,None,,,,,,,,,,,,,0,3,3,3,692.0437905020008,,,,,,,,,,,,,,,,,,,,,,,,,,,,,,,,,,,,,,,,,,,,,,,,,,,,,,,,,,,,,,,,,,,,,,,,,,692.0350281570009,692.0437905020008,693.043243352,694.0272801909996,694.0272801909996,694.0272801909996,694.9980293419994,left,0.9658838100003777,None,,,,,,,,756978,001,2024-11-28_10h39.14.985,Test,2024.2.1,59.64384346883427,2024-11-28 10h39.34.743843 +0100,
36,150,0,14,None,4,4,0,True,,,,left,0.9297179639997921,None,,,,,,,,,,,,,0,4,4,4,695.0149258540005,,,,,,,,,,,,,,,,,,,,,,,,,,,,,,,,,,,,,,,,,,,,,,,,,,,,,,,,,,,,,,,,,,,,,,,,,,695.0069490080004,695.0149258540005,696.0272980139998,697.0105022709995,697.0105022709995,697.0105022709995,697.9451560180005,left,0.9297179639997921,None,,,,,,,,756978,001,2024-11-28_10h39.14.985,Test,2024.2.1,59.64384346883427,2024-11-28 10h39.34.743843 +0100,
52,150,90,7,None,5,5,0,True,,,,right,0.8558454109988816,None,,,,,,,,,,,,,0,5,5,5,697.9619222319998,,,,,,,,,,,,,,,,,,,,,,,,,,,,,,,,,,,,,,,,,,,,,,,,,,,,,,,,,,,,,,,,,,,,,,,,,,697.952771317001,697.9619222319998,698.976818987001,699.9607287870003,699.9607287870003,699.9607287870003,700.8288385060005,right,0.8558454109988816,None,,,,,,,,756978,001,2024-11-28_10h39.14.985,Test,2024.2.1,59.64384346883427,2024-11-28 10h39.34.743843 +0100,
69,150,180,18,None,6,6,0,True,,,,left,0.9893650149988389,None,,,,,,,,,,,,,0,6,6,6,700.843913648001,,,,,,,,,,,,,,,,,,,,,,,,,,,,,,,,,,,,,,,,,,,,,,,,,,,,,,,,,,,,,,,,,,,,,,,,,,700.8348916350005,700.843913648001,701.8433556529999,702.8433694430005,702.8433694430005,702.8433694430005,703.8448826790009,left,0.9893650149988389,None,,,,,,,,756978,001,2024-11-28_10h39.14.985,Test,2024.2.1,59.64384346883427,2024-11-28 10h39.34.743843 +0100,
2,150,0,41,None,7,7,0,False,,,,left,0.9836943730006169,None,,,,,,,,,,,,,0,7,7,7,703.8600633730002,,,,,,,,,,,,,,,,,,,,,,,,,,,,,,,,,,,,,,,,,,,,,,,,,,,,,,,,,,,,,,,,,,,,,,,,,,703.8484459219999,703.8600633730002,704.8610262290003,705.8439086779999,705.8439086779999,705.8439086779999,706.8299278680006,left,0.9836943730006169,None,,,,,,,,756978,001,2024-11-28_10h39.14.985,Test,2024.2.1,59.64384346883427,2024-11-28 10h39.34.743843 +0100,
62,150,150,24,None,8,8,0,True,,,,left,1.0554952029997366,None,,,,,,,,,,,,,0,8,8,8,706.8454953159999,,,,,,,,,,,,,,,,,,,,,,,,,,,,,,,,,,,,,,,,,,,,,,,,,,,,,,,,,,,,,,,,,,,,,,,,,,706.8367665120004,706.8454953159999,707.8614938110004,708.8451138439996,708.8451138439996,708.8451138439996,709.912546466001,left,1.0554952029997366,None,,,,,,,,756978,001,2024-11-28_10h39.14.985,Test,2024.2.1,59.64384346883427,2024-11-28 10h39.34.743843 +0100,
8,150,30,43,None,9,9,0,False,,,,right,2.0341053439988173,None,,,,,,,,,,,,,0,9,9,9,709.9271951669998,,,,,,,,,,,,,,,,,,,,,,,,,,,,,,,,,,,,,,,,,,,,,,,,,,,,,,,,,,,,,,,,,,,,,,,,,,709.916521688001,709.9271951669998,710.927667639,711.9116955070003,711.9116955070003,711.9116955070003,713.9625372720002,right,2.0341053439988173,None,,,,,,,,756978,001,2024-11-28_10h39.14.985,Test,2024.2.1,59.64384346883427,2024-11-28 10h39.34.743843 +0100,
46,150,60,13,None,10,10,0,True,,,,right,0.6875833619997138,None,,,,,,,,,,,,,0,10,10,10,713.9773326640006,,,,,,,,,,,,,,,,,,,,,,,,,,,,,,,,,,,,,,,,,,,,,,,,,,,,,,,,,,,,,,,,,,,,,,,,,,713.9682058550006,713.9773326640006,714.9787312890003,715.9779486070001,715.9779486070001,715.9779486070001,716.6790203920009,right,0.6875833619997138,None,,,,,,,,756978,001,2024-11-28_10h39.14.985,Test,2024.2.1,59.64384346883427,2024-11-28 10h39.34.743843 +0100,
4,150,0,8,None,11,11,0,False,,,,right,1.0883990299989819,None,,,,,,,,,,,,,0,11,11,11,716.6940871930001,,,,,,,,,,,,,,,,,,,,,,,,,,,,,,,,,,,,,,,,,,,,,,,,,,,,,,,,,,,,,,,,,,,,,,,,,,716.6824159530006,716.6940871930001,717.6948601450003,718.6786355189997,718.6786355189997,718.6786355189997,719.779585585,right,1.0883990299989819,None,,,,,,,,756978,001,2024-11-28_10h39.14.985,Test,2024.2.1,59.64384346883427,2024-11-28 10h39.34.743843 +0100,
48,150,60,39,None,12,12,0,True,,,,right,0.8006315759994322,None,,,,,,,,,,,,,0,12,12,12,719.7949705829997,,,,,,,,,,,,,,,,,,,,,,,,,,,,,,,,,,,,,,,,,,,,,,,,,,,,,,,,,,,,,,,,,,,,,,,,,,719.785375984,719.7949705829997,720.795763391001,721.7951120409998,721.7951120409998,721.7951120409998,722.6121960290002,right,0.8006315759994322,None,,,,,,,,756978,001,2024-11-28_10h39.14.985,Test,2024.2.1,59.64384346883427,2024-11-28 10h39.34.743843 +0100,
43,150,30,44,None,13,13,0,True,,,,left,1.0004990910001652,None,,,,,,,,,,,,,0,13,13,13,722.6281800060005,,,,,,,,,,,,,,,,,,,,,,,,,,,,,,,,,,,,,,,,,,,,,,,,,,,,,,,,,,,,,,,,,,,,,,,,,,722.6173598629994,722.6281800060005,723.6289476029997,724.6115321060006,724.6115321060006,724.6115321060006,725.6144826069994,left,1.0004990910001652,None,,,,,,,,756978,001,2024-11-28_10h39.14.985,Test,2024.2.1,59.64384346883427,2024-11-28 10h39.34.743843 +0100,
29,150,150,46,None,14,14,0,False,,,,left,1.9675221470006363,None,,,,,,,,,,,,,0,14,14,14,725.627874111,,,,,,,,,,,,,,,,,,,,,,,,,,,,,,,,,,,,,,,,,,,,,,,,,,,,,,,,,,,,,,,,,,,,,,,,,,725.6180804880005,725.627874111,726.628446277,727.6293039459997,727.6293039459997,727.6293039459997,729.6000581700009,left,1.9675221470006363,None,,,,,,,,756978,001,2024-11-28_10h39.14.985,Test,2024.2.1,59.64384346883427,2024-11-28 10h39.34.743843 +0100,
21,150,120,34,None,15,15,0,False,,,,right,1.0682054760000028,None,,,,,,,,,,,,,0,15,15,15,729.613207542001,,,,,,,,,,,,,,,,,,,,,,,,,,,,,,,,,,,,,,,,,,,,,,,,,,,,,,,,,,,,,,,,,,,,,,,,,,729.6039693980001,729.613207542001,730.6127833720002,731.6116849160007,731.6116849160007,731.6116849160007,732.6978097430001,right,1.0682054760000028,None,,,,,,,,756978,001,2024-11-28_10h39.14.985,Test,2024.2.1,59.64384346883427,2024-11-28 10h39.34.743843 +0100,
3,150,0,50,None,16,16,0,False,,,,right,0.7412919639991742,None,,,,,,,,,,,,,0,16,16,16,732.7119694049998,,,,,,,,,,,,,,,,,,,,,,,,,,,,,,,,,,,,,,,,,,,,,,,,,,,,,,,,,,,,,,,,,,,,,,,,,,732.7012980809995,732.7119694049998,733.7135541080006,734.7127225849999,734.7127225849999,734.7127225849999,735.4652713119995,right,0.7412919639991742,None,,,,,,,,756978,001,2024-11-28_10h39.14.985,Test,2024.2.1,59.64384346883427,2024-11-28 10h39.34.743843 +0100,
18,150,90,11,None,17,17,0,False,,,,left,0.9392144079993159,None,,,,,,,,,,,,,0,17,17,17,735.4804166850008,,,,,,,,,,,,,,,,,,,,,,,,,,,,,,,,,,,,,,,,,,,,,,,,,,,,,,,,,,,,,,,,,,,,,,,,,,735.4703635790011,735.4804166850008,736.4800679670007,737.4800965510003,737.4800965510003,737.4800965510003,738.4304669970006,left,0.9392144079993159,None,,,,,,,,756978,001,2024-11-28_10h39.14.985,Test,2024.2.1,59.64384346883427,2024-11-28 10h39.34.743843 +0100,
31,150,180,22,None,18,18,0,False,,,,right,1.3195421150012407,None,,,,,,,,,,,,,0,18,18,18,738.445623435,,,,,,,,,,,,,,,,,,,,,,,,,,,,,,,,,,,,,,,,,,,,,,,,,,,,,,,,,,,,,,,,,,,,,,,,,,738.4351765800002,738.445623435,739.4467169840009,740.4303409830009,740.4303409830009,740.4303409830009,741.7640747300011,right,1.3195421150012407,None,,,,,,,,756978,001,2024-11-28_10h39.14.985,Test,2024.2.1,59.64384346883427,2024-11-28 10h39.34.743843 +0100,
35,150,180,1,None,19,19,0,False,,,,right,2.821816620999016,None,,,,,,,,,,,,,0,19,19,19,741.7890614540011,,,,,,,,,,,,,,,,,,,,,,,,,,,,,,,,,,,,,,,,,,,,,,,,,,,,,,,,,,,,,,,,,,,,,,,,,,741.7678122039997,741.7890614540011,742.7968996540003,743.7632112640003,743.7632112640003,743.7632112640003,746.5971804689998,right,2.821816620999016,None,,,,,,,,756978,001,2024-11-28_10h39.14.985,Test,2024.2.1,59.64384346883427,2024-11-28 10h39.34.743843 +0100,
22,150,120,32,None,20,20,0,False,,,,left,1.2608324220000213,None,,,,,,,,,,,,,0,20,20,20,746.6129362510001,,,,,,,,,,,,,,,,,,,,,,,,,,,,,,,,,,,,,,,,,,,,,,,,,,,,,,,,,,,,,,,,,,,,,,,,,,746.6006603229998,746.6129362510001,747.6133096949998,748.5966238340006,748.5966238340006,748.5966238340006,749.8648238160004,left,1.2608324220000213,None,,,,,,,,756978,001,2024-11-28_10h39.14.985,Test,2024.2.1,59.64384346883427,2024-11-28 10h39.34.743843 +0100,
54,150,90,33,None,21,21,0,True,,,,left,0.9978855570006999,None,,,,,,,,,,,,,0,21,21,21,749.8797800339999,,,,,,,,,,,,,,,,,,,,,,,,,,,,,,,,,,,,,,,,,,,,,,,,,,,,,,,,,,,,,,,,,,,,,,,,,,749.8706877080003,749.8797800339999,750.880048979001,751.8634272870004,751.8634272870004,751.8634272870004,752.8664261159993,left,0.9978855570006999,None,,,,,,,,756978,001,2024-11-28_10h39.14.985,Test,2024.2.1,59.64384346883427,2024-11-28 10h39.34.743843 +0100,
33,150,180,59,None,22,22,0,False,,,,left,0.8098191890003363,None,,,,,,,,,,,,,0,22,22,22,752.88105928,,,,,,,,,,,,,,,,,,,,,,,,,,,,,,,,,,,,,,,,,,,,,,,,,,,,,,,,,,,,,,,,,,,,,,,,,,752.8712131280008,752.88105928,753.8807702180002,754.8813677029993,754.8813677029993,754.8813677029993,755.7010745660009,left,0.8098191890003363,None,,,,,,,,756978,001,2024-11-28_10h39.14.985,Test,2024.2.1,59.64384346883427,2024-11-28 10h39.34.743843 +0100,
65,150,150,68,None,23,23,0,True,,,,left,0.8548856990000786,None,,,,,,,,,,,,,0,23,23,23,755.7174996760004,,,,,,,,,,,,,,,,,,,,,,,,,,,,,,,,,,,,,,,,,,,,,,,,,,,,,,,,,,,,,,,,,,,,,,,,,,755.7089333180011,755.7174996760004,756.7307643309996,757.7153380359996,757.7153380359996,757.7153380359996,758.5819400159999,left,0.8548856990000786,None,,,,,,,,756978,001,2024-11-28_10h39.14.985,Test,2024.2.1,59.64384346883427,2024-11-28 10h39.34.743843 +0100,
17,150,90,58,None,24,24,0,False,,,,right,0.8854951930006791,None,,,,,,,,,,,,,0,24,24,24,758.5971988580004,,,,,,,,,,,,,,,,,,,,,,,,,,,,,,,,,,,,,,,,,,,,,,,,,,,,,,,,,,,,,,,,,,,,,,,,,,758.5854901149996,758.5971988580004,759.5981111689998,760.5805931260002,760.5805931260002,760.5805931260002,761.4828708410005,right,0.8854951930006791,None,,,,,,,,756978,001,2024-11-28_10h39.14.985,Test,2024.2.1,59.64384346883427,2024-11-28 10h39.34.743843 +0100,
10,150,30,21,None,25,25,0,False,,,,left,0.9013563059997978,None,,,,,,,,,,,,,0,25,25,25,761.4977034420008,,,,,,,,,,,,,,,,,,,,,,,,,,,,,,,,,,,,,,,,,,,,,,,,,,,,,,,,,,,,,,,,,,,,,,,,,,761.486611837001,761.4977034420008,762.4979862510008,763.4983340769995,763.4983340769995,763.4983340769995,764.4167105209999,left,0.9013563059997978,None,,,,,,,,756978,001,2024-11-28_10h39.14.985,Test,2024.2.1,59.64384346883427,2024-11-28 10h39.34.743843 +0100,
5,150,0,69,None,26,26,0,False,,,,left,0.8608768690010038,None,,,,,,,,,,,,,0,26,26,26,764.4303416300008,,,,,,,,,,,,,,,,,,,,,,,,,,,,,,,,,,,,,,,,,,,,,,,,,,,,,,,,,,,,,,,,,,,,,,,,,,764.4201767079994,764.4303416300008,765.4313532489996,766.4312114759996,766.4312114759996,766.4312114759996,767.299429349001,left,0.8608768690010038,None,,,,,,,,756978,001,2024-11-28_10h39.14.985,Test,2024.2.1,59.64384346883427,2024-11-28 10h39.34.743843 +0100,
59,150,120,40,None,27,27,0,True,,,,right,1.4340174600001774,None,,,,,,,,,,,,,0,27,27,27,767.3149390250001,,,,,,,,,,,,,,,,,,,,,,,,,,,,,,,,,,,,,,,,,,,,,,,,,,,,,,,,,,,,,,,,,,,,,,,,,,767.3055815099997,767.3149390250001,768.3153730510003,769.2987963640007,769.2987963640007,769.2987963640007,770.7506726020001,right,1.4340174600001774,None,,,,,,,,756978,001,2024-11-28_10h39.14.985,Test,2024.2.1,59.64384346883427,2024-11-28 10h39.34.743843 +0100,
64,150,150,27,None,28,28,0,True,,,,right,1.1186305949995585,None,,,,,,,,,,,,,0,28,28,28,770.7674852969994,,,,,,,,,,,,,,,,,,,,,,,,,,,,,,,,,,,,,,,,,,,,,,,,,,,,,,,,,,,,,,,,,,,,,,,,,,770.7583576849993,770.7674852969994,771.7817675320002,772.7647610959993,772.7647610959993,772.7647610959993,773.8866631460005,right,1.1186305949995585,None,,,,,,,,756978,001,2024-11-28_10h39.14.985,Test,2024.2.1,59.64384346883427,2024-11-28 10h39.34.743843 +0100,
66,150,180,52,None,29,29,0,True,,,,right,1.5974538989994471,None,,,,,,,,,,,,,0,29,29,29,773.901520161,,,,,,,,,,,,,,,,,,,,,,,,,,,,,,,,,,,,,,,,,,,,,,,,,,,,,,,,,,,,,,,,,,,,,,,,,,773.8920381970001,773.901520161,774.9158281300006,775.8982776760004,775.8982776760004,775.8982776760004,777.5007398409998,right,1.5974538989994471,None,,,,,,,,756978,001,2024-11-28_10h39.14.985,Test,2024.2.1,59.64384346883427,2024-11-28 10h39.34.743843 +0100,
37,150,0,48,None,30,30,0,True,,,,left,1.6156320270001743,None,,,,,,,,,,,,,0,30,30,30,777.5157732810003,,,,,,,,,,,,,,,,,,,,,,,,,,,,,,,,,,,,,,,,,,,,,,,,,,,,,,,,,,,,,,,,,,,,,,,,,,777.5062388290007,777.5157732810003,778.5160001730001,779.5164576770003,779.5164576770003,779.5164576770003,781.1369880439997,left,1.6156320270001743,None,,,,,,,,756978,001,2024-11-28_10h39.14.985,Test,2024.2.1,59.64384346883427,2024-11-28 10h39.34.743843 +0100,
25,150,120,26,None,31,31,0,False,,,,left,1.1730025950000709,None,,,,,,,,,,,,,0,31,31,31,781.1502144120004,,,,,,,,,,,,,,,,,,,,,,,,,,,,,,,,,,,,,,,,,,,,,,,,,,,,,,,,,,,,,,,,,,,,,,,,,,781.141804715,781.1502144120004,782.1494629009994,783.1497435000001,783.1497435000001,783.1497435000001,784.3336825789993,left,1.1730025950000709,None,,,,,,,,756978,001,2024-11-28_10h39.14.985,Test,2024.2.1,59.64384346883427,2024-11-28 10h39.34.743843 +0100,
7,150,30,15,None,32,32,0,False,,,,left,0.8493387649996293,None,,,,,,,,,,,,,0,32,32,32,784.34938745,,,,,,,,,,,,,,,,,,,,,,,,,,,,,,,,,,,,,,,,,,,,,,,,,,,,,,,,,,,,,,,,,,,,,,,,,,784.3370851380005,784.34938745,785.3488629380008,786.3491607680007,786.3491607680007,786.3491607680007,787.2016339309994,left,0.8493387649996293,None,,,,,,,,756978,001,2024-11-28_10h39.14.985,Test,2024.2.1,59.64384346883427,2024-11-28 10h39.34.743843 +0100,
24,150,120,6,None,33,33,0,False,,,,right,1.2800393609995808,None,,,,,,,,,,,,,0,33,33,33,787.2156108769996,,,,,,,,,,,,,,,,,,,,,,,,,,,,,,,,,,,,,,,,,,,,,,,,,,,,,,,,,,,,,,,,,,,,,,,,,,787.2050015429995,787.2156108769996,788.2162071830007,789.2168496939994,789.2168496939994,789.2168496939994,790.5019389219997,right,1.2800393609995808,None,,,,,,,,756978,001,2024-11-28_10h39.14.985,Test,2024.2.1,59.64384346883427,2024-11-28 10h39.34.743843 +0100,
6,150,30,30,None,34,34,0,False,,,,left,0.98088165199988,None,,,,,,,,,,,,,0,34,34,34,790.5160451659995,,,,,,,,,,,,,,,,,,,,,,,,,,,,,,,,,,,,,,,,,,,,,,,,,,,,,,,,,,,,,,,,,,,,,,,,,,790.5053545800001,790.5160451659995,791.516571686001,792.515741526,792.515741526,792.515741526,793.5016459460003,left,0.98088165199988,None,,,,,,,,756978,001,2024-11-28_10h39.14.985,Test,2024.2.1,59.64384346883427,2024-11-28 10h39.34.743843 +0100,
51,150,90,5,None,35,35,0,True,,,,left,0.8558072020005056,None,,,,,,,,,,,,,0,35,35,35,793.5180854360005,,,,,,,,,,,,,,,,,,,,,,,,,,,,,,,,,,,,,,,,,,,,,,,,,,,,,,,,,,,,,,,,,,,,,,,,,,793.5089482929998,793.5180854360005,794.5170777870007,795.5175060929996,795.5175060929996,795.5175060929996,796.385617588001,left,0.8558072020005056,None,,,,,,,,756978,001,2024-11-28_10h39.14.985,Test,2024.2.1,59.64384346883427,2024-11-28 10h39.34.743843 +0100,
1,150,0,17,None,36,36,0,False,,,,right,0.9336471909991815,None,,,,,,,,,,,,,0,36,36,36,796.3998617680008,,,,,,,,,,,,,,,,,,,,,,,,,,,,,,,,,,,,,,,,,,,,,,,,,,,,,,,,,,,,,,,,,,,,,,,,,,796.3890968630003,796.3998617680008,797.3998023559998,798.4010729780002,798.4010729780002,798.4010729780002,799.3523255720011,right,0.9336471909991815,None,,,,,,,,756978,001,2024-11-28_10h39.14.985,Test,2024.2.1,59.64384346883427,2024-11-28 10h39.34.743843 +0100,
11,150,60,49,None,37,37,0,False,,,,right,1.1082841619991086,None,,,,,,,,,,,,,0,37,37,37,799.3668401819996,,,,,,,,,,,,,,,,,,,,,,,,,,,,,,,,,,,,,,,,,,,,,,,,,,,,,,,,,,,,,,,,,,,,,,,,,,799.3558321960008,799.3668401819996,800.367657064,801.3667926790004,801.3667926790004,801.3667926790004,802.4863616670009,right,1.1082841619991086,None,,,,,,,,756978,001,2024-11-28_10h39.14.985,Test,2024.2.1,59.64384346883427,2024-11-28 10h39.34.743843 +0100,
32,150,180,25,None,38,38,0,False,,,,left,0.8749000570005592,None,,,,,,,,,,,,,0,38,38,38,802.5001040299994,,,,,,,,,,,,,,,,,,,,,,,,,,,,,,,,,,,,,,,,,,,,,,,,,,,,,,,,,,,,,,,,,,,,,,,,,,802.4900880549994,802.5001040299994,803.5010249120005,804.5008315949999,804.5008315949999,804.5008315949999,805.3867455870004,left,0.8749000570005592,None,,,,,,,,756978,001,2024-11-28_10h39.14.985,Test,2024.2.1,59.64384346883427,2024-11-28 10h39.34.743843 +0100,
56,150,120,31,None,39,39,0,True,,,,left,0.7068436259996815,None,,,,,,,,,,,,,0,39,39,39,805.4021363030006,,,,,,,,,,,,,,,,,,,,,,,,,,,,,,,,,,,,,,,,,,,,,,,,,,,,,,,,,,,,,,,,,,,,,,,,,,805.3929058939993,805.4021363030006,806.4176356660009,807.4013712100004,807.4013712100004,807.4013712100004,808.1192361979993,left,0.7068436259996815,None,,,,,,,,756978,001,2024-11-28_10h39.14.985,Test,2024.2.1,59.64384346883427,2024-11-28 10h39.34.743843 +0100,
14,150,60,29,None,40,40,0,False,,,,left,2.125567756998862,None,,,,,,,,,,,,,0,40,40,40,808.1338827529999,,,,,,,,,,,,,,,,,,,,,,,,,,,,,,,,,,,,,,,,,,,,,,,,,,,,,,,,,,,,,,,,,,,,,,,,,,808.1228796190007,808.1338827529999,809.1348261940002,810.1183643050008,810.1183643050008,810.1183643050008,812.2525287379995,left,2.125567756998862,None,,,,,,,,756978,001,2024-11-28_10h39.14.985,Test,2024.2.1,59.64384346883427,2024-11-28 10h39.34.743843 +0100,
30,150,150,66,None,41,41,0,False,,,,left,0.8926020950002567,None,,,,,,,,,,,,,0,41,41,41,812.267854568001,,,,,,,,,,,,,,,,,,,,,,,,,,,,,,,,,,,,,,,,,,,,,,,,,,,,,,,,,,,,,,,,,,,,,,,,,,812.2560034580001,812.267854568001,813.2677281329998,814.252441265,814.252441265,814.252441265,815.1527750770001,left,0.8926020950002567,None,,,,,,,,756978,001,2024-11-28_10h39.14.985,Test,2024.2.1,59.64384346883427,2024-11-28 10h39.34.743843 +0100,
45,150,30,9,None,42,42,0,True,,,,right,1.19022138299988,None,,,,,,,,,,,,,0,42,42,42,815.1681964470008,,,,,,,,,,,,,,,,,,,,,,,,,,,,,,,,,,,,,,,,,,,,,,,,,,,,,,,,,,,,,,,,,,,,,,,,,,815.158740619001,815.1681964470008,816.1680533670005,817.1525447180011,817.1525447180011,817.1525447180011,818.3528516679999,right,1.19022138299988,None,,,,,,,,756978,001,2024-11-28_10h39.14.985,Test,2024.2.1,59.64384346883427,2024-11-28 10h39.34.743843 +0100,
42,150,30,28,None,43,43,0,True,,,,left,0.7863697810007579,None,,,,,,,,,,,,,0,43,43,43,818.3682385089996,,,,,,,,,,,,,,,,,,,,,,,,,,,,,,,,,,,,,,,,,,,,,,,,,,,,,,,,,,,,,,,,,,,,,,,,,,818.358953979001,818.3682385089996,819.3692049000001,820.3525329630011,820.3525329630011,820.3525329630011,821.1524029690008,left,0.7863697810007579,None,,,,,,,,756978,001,2024-11-28_10h39.14.985,Test,2024.2.1,59.64384346883427,2024-11-28 10h39.34.743843 +0100,
16,150,90,54,None,44,44,0,False,,,,left,0.8120515099999466,None,,,,,,,,,,,,,0,44,44,44,821.1677965420004,,,,,,,,,,,,,,,,,,,,,,,,,,,,,,,,,,,,,,,,,,,,,,,,,,,,,,,,,,,,,,,,,,,,,,,,,,821.1559468920004,821.1677965420004,822.1687582480008,823.151632602001,823.151632602001,823.151632602001,823.9702076009999,left,0.8120515099999466,None,,,,,,,,756978,001,2024-11-28_10h39.14.985,Test,2024.2.1,59.64384346883427,2024-11-28 10h39.34.743843 +0100,
44,150,30,2,None,45,45,0,True,,,,right,0.8878722099998413,None,,,,,,,,,,,,,0,45,45,45,823.9846506680005,,,,,,,,,,,,,,,,,,,,,,,,,,,,,,,,,,,,,,,,,,,,,,,,,,,,,,,,,,,,,,,,,,,,,,,,,,823.9756640930009,823.9846506680005,824.9860122640002,825.9696139589996,825.9696139589996,825.9696139589996,826.8705070779997,right,0.8878722099998413,None,,,,,,,,756978,001,2024-11-28_10h39.14.985,Test,2024.2.1,59.64384346883427,2024-11-28 10h39.34.743843 +0100,
27,150,150,4,None,46,46,0,False,,,,left,0.7241808220005623,None,,,,,,,,,,,,,0,46,46,46,826.8852188000001,,,,,,,,,,,,,,,,,,,,,,,,,,,,,,,,,,,,,,,,,,,,,,,,,,,,,,,,,,,,,,,,,,,,,,,,,,826.8739403300006,826.8852188000001,827.8860310750006,828.8695533829996,828.8695533829996,828.8695533829996,829.6040440350007,left,0.7241808220005623,None,,,,,,,,756978,001,2024-11-28_10h39.14.985,Test,2024.2.1,59.64384346883427,2024-11-28 10h39.34.743843 +0100,
58,150,120,42,None,47,47,0,True,,,,left,0.7524485550002282,None,,,,,,,,,,,,,0,47,47,47,829.6193610760001,,,,,,,,,,,,,,,,,,,,,,,,,,,,,,,,,,,,,,,,,,,,,,,,,,,,,,,,,,,,,,,,,,,,,,,,,,829.6098331320009,829.6193610760001,830.6189845909994,831.6192417660004,831.6192417660004,831.6192417660004,832.386401789001,left,0.7524485550002282,None,,,,,,,,756978,001,2024-11-28_10h39.14.985,Test,2024.2.1,59.64384346883427,2024-11-28 10h39.34.743843 +0100,
68,150,180,63,None,48,48,0,True,,,,left,0.7187536410001485,None,,,,,,,,,,,,,0,48,48,48,832.4021930159997,,,,,,,,,,,,,,,,,,,,,,,,,,,,,,,,,,,,,,,,,,,,,,,,,,,,,,,,,,,,,,,,,,,,,,,,,,832.3939349289994,832.4021930159997,833.4031623339997,834.3866064209997,834.3866064209997,834.3866064209997,835.1230084159997,left,0.7187536410001485,None,,,,,,,,756978,001,2024-11-28_10h39.14.985,Test,2024.2.1,59.64384346883427,2024-11-28 10h39.34.743843 +0100,
67,150,180,65,None,49,49,0,True,,,,left,0.766272263999781,None,,,,,,,,,,,,,0,49,49,49,835.1426364519994,,,,,,,,,,,,,,,,,,,,,,,,,,,,,,,,,,,,,,,,,,,,,,,,,,,,,,,,,,,,,,,,,,,,,,,,,,835.1340156130009,835.1426364519994,836.1525247110003,837.1369048750003,837.1369048750003,837.1369048750003,837.9057633449993,left,0.766272263999781,None,,,,,,,,756978,001,2024-11-28_10h39.14.985,Test,2024.2.1,59.64384346883427,2024-11-28 10h39.34.743843 +0100,
19,150,90,45,None,50,50,0,False,,,,right,0.9700201670002571,None,,,,,,,,,,,,,0,50,50,50,837.9191924980005,,,,,,,,,,,,,,,,,,,,,,,,,,,,,,,,,,,,,,,,,,,,,,,,,,,,,,,,,,,,,,,,,,,,,,,,,,837.909301742,837.9191924980005,838.9197316419995,839.9196751399995,839.9196751399995,839.9196751399995,840.9049462399998,right,0.9700201670002571,None,,,,,,,,756978,001,2024-11-28_10h39.14.985,Test,2024.2.1,59.64384346883427,2024-11-28 10h39.34.743843 +0100,
40,150,0,61,None,51,51,0,True,,,,left,1.0911416550006834,None,,,,,,,,,,,,,0,51,51,51,840.9194448380003,,,,,,,,,,,,,,,,,,,,,,,,,,,,,,,,,,,,,,,,,,,,,,,,,,,,,,,,,,,,,,,,,,,,,,,,,,840.9106580309999,840.9194448380003,841.9207100370004,842.919805118001,842.919805118001,842.919805118001,844.0212198509998,left,1.0911416550006834,None,,,,,,,,756978,001,2024-11-28_10h39.14.985,Test,2024.2.1,59.64384346883427,2024-11-28 10h39.34.743843 +0100,
63,150,150,67,None,52,52,0,True,,,,left,0.9911824650007475,None,,,,,,,,,,,,,0,52,52,52,844.0358464189994,,,,,,,,,,,,,,,,,,,,,,,,,,,,,,,,,,,,,,,,,,,,,,,,,,,,,,,,,,,,,,,,,,,,,,,,,,844.0260809610008,844.0358464189994,845.0366351650009,846.0211213700004,846.0211213700004,846.0211213700004,847.0209700689993,left,0.9911824650007475,None,,,,,,,,756978,001,2024-11-28_10h39.14.985,Test,2024.2.1,59.64384346883427,2024-11-28 10h39.34.743843 +0100,
61,150,150,53,None,53,53,0,True,,,,left,0.8912395379993541,None,,,,,,,,,,,,,0,53,53,53,847.0368262829998,,,,,,,,,,,,,,,,,,,,,,,,,,,,,,,,,,,,,,,,,,,,,,,,,,,,,,,,,,,,,,,,,,,,,,,,,,847.0264741329993,847.0368262829998,848.0364985710003,849.0212718439998,849.0212718439998,849.0212718439998,849.9221109129994,left,0.8912395379993541,None,,,,,,,,756978,001,2024-11-28_10h39.14.985,Test,2024.2.1,59.64384346883427,2024-11-28 10h39.34.743843 +0100,
49,150,60,20,None,54,54,0,True,,,,left,1.302288597998995,None,,,,,,,,,,,,,0,54,54,54,849.9371569300001,,,,,,,,,,,,,,,,,,,,,,,,,,,,,,,,,,,,,,,,,,,,,,,,,,,,,,,,,,,,,,,,,,,,,,,,,,849.9291585989995,849.9371569300001,850.93784418,851.9216184159995,851.9216184159995,851.9216184159995,853.2395002789999,left,1.302288597998995,None,,,,,,,,756978,001,2024-11-28_10h39.14.985,Test,2024.2.1,59.64384346883427,2024-11-28 10h39.34.743843 +0100,
13,150,60,23,None,55,55,0,False,,,,right,0.7140167249999649,None,,,,,,,,,,,,,0,55,55,55,853.2533272260007,,,,,,,,,,,,,,,,,,,,,,,,,,,,,,,,,,,,,,,,,,,,,,,,,,,,,,,,,,,,,,,,,,,,,,,,,,853.2431482730008,853.2533272260007,854.2547952759996,855.2541955590004,855.2541955590004,855.2541955590004,855.9728119640004,right,0.7140167249999649,None,,,,,,,,756978,001,2024-11-28_10h39.14.985,Test,2024.2.1,59.64384346883427,2024-11-28 10h39.34.743843 +0100,
28,150,150,36,None,56,56,0,False,,,,right,0.8513595129988971,None,,,,,,,,,,,,,0,56,56,56,855.9871274870002,,,,,,,,,,,,,,,,,,,,,,,,,,,,,,,,,,,,,,,,,,,,,,,,,,,,,,,,,,,,,,,,,,,,,,,,,,855.9762188570003,855.9871274870002,856.9881256219996,857.9874436499995,857.9874436499995,857.9874436499995,858.8571299989999,right,0.8513595129988971,None,,,,,,,,756978,001,2024-11-28_10h39.14.985,Test,2024.2.1,59.64384346883427,2024-11-28 10h39.34.743843 +0100,
57,150,120,64,None,57,57,0,True,,,,right,0.5361147980001988,None,,,,,,,,,,,,,0,57,57,57,858.8712688169999,,,,,,,,,,,,,,,,,,,,,,,,,,,,,,,,,,,,,,,,,,,,,,,,,,,,,,,,,,,,,,,,,,,,,,,,,,858.8629132280003,858.8712688169999,859.8716940979994,860.8721422300005,860.8721422300005,860.8721422300005,861.4231439730011,right,0.5361147980001988,None,,,,,,,,756978,001,2024-11-28_10h39.14.985,Test,2024.2.1,59.64384346883427,2024-11-28 10h39.34.743843 +0100,
47,150,60,10,None,58,58,0,True,,,,right,0.639569869999832,None,,,,,,,,,,,,,0,58,58,58,861.4384192020007,,,,,,,,,,,,,,,,,,,,,,,,,,,,,,,,,,,,,,,,,,,,,,,,,,,,,,,,,,,,,,,,,,,,,,,,,,861.4291025279999,861.4384192020007,862.4387476020001,863.43853623,863.43853623,863.43853623,864.0890231230005,right,0.639569869999832,None,,,,,,,,756978,001,2024-11-28_10h39.14.985,Test,2024.2.1,59.64384346883427,2024-11-28 10h39.34.743843 +0100,
53,150,90,51,None,59,59,0,True,,,,left,0.7344053500000882,None,,,,,,,,,,,,,0,59,59,59,864.1045480110006,,,,,,,,,,,,,,,,,,,,,,,,,,,,,,,,,,,,,,,,,,,,,,,,,,,,,,,,,,,,,,,,,,,,,,,,,,864.0956758480006,864.1045480110006,865.1053487120007,866.1046259209998,866.1046259209998,866.1046259209998,866.8570221280006,left,0.7344053500000882,None,,,,,,,,756978,001,2024-11-28_10h39.14.985,Test,2024.2.1,59.64384346883427,2024-11-28 10h39.34.743843 +0100,
70,150,180,56,None,60,60,0,True,,,,left,1.172190170000249,None,,,,,,,,,,,,,0,60,60,60,866.8718231229996,,,,,,,,,,,,,,,,,,,,,,,,,,,,,,,,,,,,,,,,,,,,,,,,,,,,,,,,,,,,,,,,,,,,,,,,,,866.8626609429994,866.8718231229996,867.87245343,868.8721319390006,868.8721319390006,868.8721319390006,870.0564861420007,left,1.172190170000249,None,,,,,,,,756978,001,2024-11-28_10h39.14.985,Test,2024.2.1,59.64384346883427,2024-11-28 10h39.34.743843 +0100,
39,150,0,60,None,61,61,0,True,,,,left,1.4684418289998575,None,,,,,,,,,,,,,0,61,61,61,870.0721801359996,,,,,,,,,,,,,,,,,,,,,,,,,,,,,,,,,,,,,,,,,,,,,,,,,,,,,,,,,,,,,,,,,,,,,,,,,,870.0623269890002,870.0721801359996,871.0727080409997,872.0722369070008,872.0722369070008,872.0722369070008,873.5570451509993,left,1.4684418289998575,None,,,,,,,,756978,001,2024-11-28_10h39.14.985,Test,2024.2.1,59.64384346883427,2024-11-28 10h39.34.743843 +0100,
34,150,180,57,None,62,62,0,False,,,,left,1.1167917380007566,None,,,,,,,,,,,,,0,62,62,62,873.571593785,,,,,,,,,,,,,,,,,,,,,,,,,,,,,,,,,,,,,,,,,,,,,,,,,,,,,,,,,,,,,,,,,,,,,,,,,,873.5605570019998,873.571593785,874.5731367219996,875.5729083990009,875.5729083990009,875.5729083990009,876.7072066399996,left,1.1167917380007566,None,,,,,,,,756978,001,2024-11-28_10h39.14.985,Test,2024.2.1,59.64384346883427,2024-11-28 10h39.34.743843 +0100,
12,150,60,62,None,63,63,0,False,,,,right,0.6392289970008278,None,,,,,,,,,,,,,0,63,63,63,876.7216569960001,,,,,,,,,,,,,,,,,,,,,,,,,,,,,,,,,,,,,,,,,,,,,,,,,,,,,,,,,,,,,,,,,,,,,,,,,,876.7117655420006,876.7216569960001,877.7221061950004,878.723141421,878.723141421,878.723141421,879.373252110001,right,0.6392289970008278,None,,,,,,,,756978,001,2024-11-28_10h39.14.985,Test,2024.2.1,59.64384346883427,2024-11-28 10h39.34.743843 +0100,
26,150,150,12,None,64,64,0,False,,,,right,0.9091771629991854,None,,,,,,,,,,,,,0,64,64,64,879.3885015310007,,,,,,,,,,,,,,,,,,,,,,,,,,,,,,,,,,,,,,,,,,,,,,,,,,,,,,,,,,,,,,,,,,,,,,,,,,879.3776725469997,879.3885015310007,880.3902305909996,881.3732028360009,881.3732028360009,881.3732028360009,882.2923628580011,right,0.9091771629991854,None,,,,,,,,756978,001,2024-11-28_10h39.14.985,Test,2024.2.1,59.64384346883427,2024-11-28 10h39.34.743843 +0100,
9,150,30,70,None,65,65,0,False,,,,left,0.7128152049990604,None,,,,,,,,,,,,,0,65,65,65,882.3053453110006,,,,,,,,,,,,,,,,,,,,,,,,,,,,,,,,,,,,,,,,,,,,,,,,,,,,,,,,,,,,,,,,,,,,,,,,,,882.2961345460008,882.3053453110006,883.3058377190009,884.3070197569996,884.3070197569996,884.3070197569996,885.0249542130005,left,0.7128152049990604,None,,,,,,,,756978,001,2024-11-28_10h39.14.985,Test,2024.2.1,59.64384346883427,2024-11-28 10h39.34.743843 +0100,
23,150,120,16,None,66,66,0,False,,,,right,1.181367537999904,None,,,,,,,,,,,,,0,66,66,66,885.0391339729995,,,,,,,,,,,,,,,,,,,,,,,,,,,,,,,,,,,,,,,,,,,,,,,,,,,,,,,,,,,,,,,,,,,,,,,,,,885.0285216610009,885.0391339729995,886.0403959369996,887.0405628410008,887.0405628410008,887.0405628410008,888.2278679310002,right,1.181367537999904,None,,,,,,,,756978,001,2024-11-28_10h39.14.985,Test,2024.2.1,59.64384346883427,2024-11-28 10h39.34.743843 +0100,
41,150,30,19,None,67,67,0,True,,,,left,1.026594101000228,None,,,,,,,,,,,,,0,67,67,67,888.2428828310003,,,,,,,,,,,,,,,,,,,,,,,,,,,,,,,,,,,,,,,,,,,,,,,,,,,,,,,,,,,,,,,,,,,,,,,,,,888.2338644470001,888.2428828310003,889.2562240660009,890.2409707589995,890.2409707589995,890.2409707589995,891.2747178339996,left,1.026594101000228,None,,,,,,,,756978,001,2024-11-28_10h39.14.985,Test,2024.2.1,59.64384346883427,2024-11-28 10h39.34.743843 +0100,
50,150,60,47,None,68,68,0,True,,,,left,0.7757719629989879,None,,,,,,,,,,,,,0,68,68,68,891.2900282600003,,,,,,,,,,,,,,,,,,,,,,,,,,,,,,,,,,,,,,,,,,,,,,,,,,,,,,,,,,,,,,,,,,,,,,,,,,891.2796116049994,891.2900282600003,892.2898413670009,893.2898268049994,893.2898268049994,893.2898268049994,894.0748638219993,left,0.7757719629989879,None,,,,,,,,756978,001,2024-11-28_10h39.14.985,Test,2024.2.1,59.64384346883427,2024-11-28 10h39.34.743843 +0100,
20,150,90,38,None,69,69,0,False,,,,left,1.1095008669999515,None,,,,,,,,,,,,,0,69,69,69,894.0896806769997,,,,,,,,,,,,,,,,,,,,,,,,,,,,,,,,,,,,,,,,,,,,,,,,,,,,,,,,,,,,,,,,,,,,,,,,,,894.0787684709994,894.0896806769997,895.0907405170001,896.0743647580002,896.0743647580002,896.0743647580002,897.1916441270005,left,1.1095008669999515,None,,,,,,,,756978,001,2024-11-28_10h39.14.985,Test,2024.2.1,59.64384346883427,2024-11-28 10h39.34.743843 +0100,
,,,,,,,,,,,,,,,,,,,,,,,,,,,,,,,,,,,,,,,,,,,,,,,,,,,,,,,,,,,,,,,,,,,,,,,,,,,,,,,,,,,,,,,,,,,,,,,,,,,,,,,,,,,,,,,,,,,897.1918849739995,897.2070851600001,897.2070851600001,899.7257474060007,space,2.5057634679997136,None,756978,001,2024-11-28_10h39.14.985,Test,2024.2.1,59.64384346883427,2024-11-28 10h39.34.743843 +0100,
