Trial_Number,Exposure_Duration,Displacement_Angle,Stimulus,Response,thisN,thisTrialN,thisRepN,Is_Distractor,key_resp_3.keys,key_resp_3.rt,key_resp_3.duration,key_resp_7.keys,key_resp_7.rt,key_resp_7.duration,trials.thisRepN,trials.thisTrialN,trials.thisN,trials.thisIndex,trials_2.thisRepN,trials_2.thisTrialN,trials_2.thisN,trials_2.thisIndex,trials_3.thisRepN,trials_3.thisTrialN,trials_3.thisN,trials_3.thisIndex,trials_4.thisRepN,trials_4.thisTrialN,trials_4.thisN,trials_4.thisIndex,thisRow.t,notes,Intro_to_experiment.started,important1_2.started,key_resp_8.started,Intro_to_experiment.stopped,key_resp_8.keys,key_resp_8.rt,key_resp_8.duration,important.started,important1.started,key_resp_4.started,important.stopped,key_resp_4.keys,key_resp_4.rt,key_resp_4.duration,instruction.started,text_7.started,key_resp_9.started,instruction.stopped,key_resp_9.keys,key_resp_9.rt,key_resp_9.duration,training_trial.started,cross.started,image.started,aperture.started,cross.stopped,image.stopped,aperture.stopped,training_trial.stopped,New_instruction.started,text.started,key_resp_2.started,New_instruction.stopped,key_resp_2.keys,key_resp_2.rt,key_resp_2.duration,test_trial.started,cross2.started,cross2.stopped,image_2.started,key_resp_3.started,aperture_2.started,test_trial.stopped,trials_2.key_resp_3.keys,trials_2.key_resp_3.rt,trials_2.key_resp_3.duration,start_blok_2.started,key_resp_5.started,text_4.started,start_blok_2.stopped,key_resp_5.keys,key_resp_5.rt,key_resp_5.duration,training_2.started,cross_2.started,image_3.started,aperture_3.started,cross_2.stopped,image_3.stopped,aperture_3.stopped,training_2.stopped,nyeste_instruks.started,text_5.started,key_resp_6.started,nyeste_instruks.stopped,key_resp_6.keys,key_resp_6.rt,key_resp_6.duration,test_2.started,cross2_2.started,cross2_2.stopped,image_4.started,key_resp_7.started,aperture_4.started,test_2.stopped,trials_4.key_resp_7.keys,trials_4.key_resp_7.rt,trials_4.key_resp_7.duration,Instruction1.started,Instruktion.started,key_resp.started,Instruction1.stopped,key_resp.keys,key_resp.rt,key_resp.duration,participant,session,date,expName,psychopyVersion,frameRate,expStart,
,,,,,,,,,,,,,,,,,,,,,,,,,,,,,,,,,0.007802956999512389,0.021531844991841353,0.021531844991841353,25.605247115003294,space,25.558098276000237,None,,,,,,,,,,,,,,,,,,,,,,,,,,,,,,,,,,,,,,,,,,,,,,,,,,,,,,,,,,,,,,,,,,,,,,,,,,,,,,,770987,001,2024-12-05_12h24.04.412,Test,2024.2.1,59.85313715894613,2024-12-05 12h24.30.039615 +0100,
,,,,,,,,,,,,,,,,,,,,,,,,,,,,,,,,,,,,,,,,25.605310857994482,25.626901600000565,25.626901600000565,39.20236126999953,space,13.57323491400166,None,,,,,,,,,,,,,,,,,,,,,,,,,,,,,,,,,,,,,,,,,,,,,,,,,,,,,,,,,,,,,,,,,,,,,,,,770987,001,2024-12-05_12h24.04.412,Test,2024.2.1,59.85313715894613,2024-12-05 12h24.30.039615 +0100,
,,,,,,,,,,,,,,,,,,,,,,,,,,,,,,,,,,,,,,,,,,,,,,,39.202486659996794,39.21631867799442,39.21631867799442,47.73637778899865,space,8.517448478000006,None,,,,,,,,,,,,,,,,,,,,,,,,,,,,,,,,,,,,,,,,,,,,,,,,,,,,,,,,,,,,,,,,,770987,001,2024-12-05_12h24.04.412,Test,2024.2.1,59.85313715894613,2024-12-05 12h24.30.039615 +0100,
34,150,180,18,None,0,0,0,,,,,,,,0,0,0,33,,,,,,,,,,,,,47.77032403599878,,,,,,,,,,,,,,,,,,,,,,,47.7612876159983,47.77032403599878,47.94973178599321,47.94973178599321,47.98322901700158,49.65135197900236,49.65135197900236,49.63459911799873,,,,,,,,,,,,,,,,,,,,,,,,,,,,,,,,,,,,,,,,,,,,,,,,,,,,,,,,,770987,001,2024-12-05_12h24.04.412,Test,2024.2.1,59.85313715894613,2024-12-05 12h24.30.039615 +0100,
21,150,120,11,None,1,1,0,,,,,,,,0,1,1,20,,,,,,,,,,,,,49.65135197900236,,,,,,,,,,,,,,,,,,,,,,,49.64315021199582,49.65135197900236,49.85041196599195,49.85041196599195,49.8664479279978,51.55047802999616,51.55047802999616,51.53392277700186,,,,,,,,,,,,,,,,,,,,,,,,,,,,,,,,,,,,,,,,,,,,,,,,,,,,,,,,,770987,001,2024-12-05_12h24.04.412,Test,2024.2.1,59.85313715894613,2024-12-05 12h24.30.039615 +0100,
26,150,150,23,None,2,2,0,,,,,,,,0,2,2,25,,,,,,,,,,,,,51.55047802999616,,,,,,,,,,,,,,,,,,,,,,,51.53920982699492,51.55047802999616,51.749922153001535,51.749922153001535,51.749922153001535,53.44950137900014,53.44950137900014,53.43423009199614,,,,,,,,,,,,,,,,,,,,,,,,,,,,,,,,,,,,,,,,,,,,,,,,,,,,,,,,,770987,001,2024-12-05_12h24.04.412,Test,2024.2.1,59.85313715894613,2024-12-05 12h24.30.039615 +0100,
2,150,0,28,None,3,3,0,,,,,,,,0,3,3,1,,,,,,,,,,,,,53.44950137900014,,,,,,,,,,,,,,,,,,,,,,,53.44049661299505,53.44950137900014,53.649973011997645,53.649973011997645,53.649973011997645,55.350280847997055,55.350280847997055,55.334393354001804,,,,,,,,,,,,,,,,,,,,,,,,,,,,,,,,,,,,,,,,,,,,,,,,,,,,,,,,,770987,001,2024-12-05_12h24.04.412,Test,2024.2.1,59.85313715894613,2024-12-05 12h24.30.039615 +0100,
9,150,30,56,None,4,4,0,,,,,,,,0,4,4,8,,,,,,,,,,,,,55.350280847997055,,,,,,,,,,,,,,,,,,,,,,,55.3397550600057,55.350280847997055,55.55007119500078,55.55007119500078,55.55007119500078,57.2505572779919,57.2505572779919,57.23446111800149,,,,,,,,,,,,,,,,,,,,,,,,,,,,,,,,,,,,,,,,,,,,,,,,,,,,,,,,,770987,001,2024-12-05_12h24.04.412,Test,2024.2.1,59.85313715894613,2024-12-05 12h24.30.039615 +0100,
4,150,0,7,None,5,5,0,,,,,,,,0,5,5,3,,,,,,,,,,,,,57.2505572779919,,,,,,,,,,,,,,,,,,,,,,,57.24022096500266,57.2505572779919,57.45025840999733,57.45025840999733,57.45025840999733,59.15391318500042,59.15391318500042,59.134888337997836,,,,,,,,,,,,,,,,,,,,,,,,,,,,,,,,,,,,,,,,,,,,,,,,,,,,,,,,,770987,001,2024-12-05_12h24.04.412,Test,2024.2.1,59.85313715894613,2024-12-05 12h24.30.039615 +0100,
11,150,60,34,None,6,6,0,,,,,,,,0,6,6,10,,,,,,,,,,,,,59.15391318500042,,,,,,,,,,,,,,,,,,,,,,,59.14482529000088,59.15391318500042,59.35026256900164,59.35026256900164,59.367497978004394,61.050677110994,61.050677110994,61.03466476500034,,,,,,,,,,,,,,,,,,,,,,,,,,,,,,,,,,,,,,,,,,,,,,,,,,,,,,,,,770987,001,2024-12-05_12h24.04.412,Test,2024.2.1,59.85313715894613,2024-12-05 12h24.30.039615 +0100,
25,150,120,20,None,7,7,0,,,,,,,,0,7,7,24,,,,,,,,,,,,,61.050677110994,,,,,,,,,,,,,,,,,,,,,,,61.042491935004364,61.050677110994,61.25088005499856,61.25088005499856,61.25088005499856,62.95084276799753,62.95084276799753,62.934968065994326,,,,,,,,,,,,,,,,,,,,,,,,,,,,,,,,,,,,,,,,,,,,,,,,,,,,,,,,,770987,001,2024-12-05_12h24.04.412,Test,2024.2.1,59.85313715894613,2024-12-05 12h24.30.039615 +0100,
17,150,90,64,None,8,8,0,,,,,,,,0,8,8,16,,,,,,,,,,,,,62.95084276799753,,,,,,,,,,,,,,,,,,,,,,,62.942065191004076,62.95084276799753,63.15086265100399,63.15086265100399,63.15086265100399,64.85119634399598,64.85119634399598,64.83530360799341,,,,,,,,,,,,,,,,,,,,,,,,,,,,,,,,,,,,,,,,,,,,,,,,,,,,,,,,,770987,001,2024-12-05_12h24.04.412,Test,2024.2.1,59.85313715894613,2024-12-05 12h24.30.039615 +0100,
30,150,150,55,None,9,9,0,,,,,,,,0,9,9,29,,,,,,,,,,,,,64.85119634399598,,,,,,,,,,,,,,,,,,,,,,,64.84244201600086,64.85119634399598,65.0509291740018,65.0509291740018,65.0509291740018,66.75473724599578,66.75473724599578,66.7363084230019,,,,,,,,,,,,,,,,,,,,,,,,,,,,,,,,,,,,,,,,,,,,,,,,,,,,,,,,,770987,001,2024-12-05_12h24.04.412,Test,2024.2.1,59.85313715894613,2024-12-05 12h24.30.039615 +0100,
16,150,90,50,None,10,10,0,,,,,,,,0,10,10,15,,,,,,,,,,,,,66.75473724599578,,,,,,,,,,,,,,,,,,,,,,,66.74639725100133,66.75473724599578,66.95190731999173,66.95190731999173,66.96941496799991,68.65071952900325,68.65071952900325,68.63583403700613,,,,,,,,,,,,,,,,,,,,,,,,,,,,,,,,,,,,,,,,,,,,,,,,,,,,,,,,,770987,001,2024-12-05_12h24.04.412,Test,2024.2.1,59.85313715894613,2024-12-05 12h24.30.039615 +0100,
14,150,60,27,None,11,11,0,,,,,,,,0,11,11,13,,,,,,,,,,,,,68.65071952900325,,,,,,,,,,,,,,,,,,,,,,,68.64159383499646,68.65071952900325,68.85125631900155,68.85125631900155,68.85125631900155,70.55093959000078,70.55093959000078,70.53522630399675,,,,,,,,,,,,,,,,,,,,,,,,,,,,,,,,,,,,,,,,,,,,,,,,,,,,,,,,,770987,001,2024-12-05_12h24.04.412,Test,2024.2.1,59.85313715894613,2024-12-05 12h24.30.039615 +0100,
6,150,30,54,None,12,12,0,,,,,,,,0,12,12,5,,,,,,,,,,,,,70.55093959000078,,,,,,,,,,,,,,,,,,,,,,,70.54294375999598,70.55093959000078,70.75118070500321,70.75118070500321,70.75118070500321,72.45083958699252,72.45083958699252,72.43579502700595,,,,,,,,,,,,,,,,,,,,,,,,,,,,,,,,,,,,,,,,,,,,,,,,,,,,,,,,,770987,001,2024-12-05_12h24.04.412,Test,2024.2.1,59.85313715894613,2024-12-05 12h24.30.039615 +0100,
10,150,30,24,None,13,13,0,,,,,,,,0,13,13,9,,,,,,,,,,,,,72.45083958699252,,,,,,,,,,,,,,,,,,,,,,,72.44200448899937,72.45083958699252,72.65136837300088,72.65136837300088,72.65136837300088,74.35131750599248,74.35131750599248,74.33553629700327,,,,,,,,,,,,,,,,,,,,,,,,,,,,,,,,,,,,,,,,,,,,,,,,,,,,,,,,,770987,001,2024-12-05_12h24.04.412,Test,2024.2.1,59.85313715894613,2024-12-05 12h24.30.039615 +0100,
13,150,60,49,None,14,14,0,,,,,,,,0,14,14,12,,,,,,,,,,,,,74.35131750599248,,,,,,,,,,,,,,,,,,,,,,,74.34387061800226,74.35131750599248,74.5514746800036,74.5514746800036,74.5514746800036,76.25173744000494,76.25173744000494,76.23566510000092,,,,,,,,,,,,,,,,,,,,,,,,,,,,,,,,,,,,,,,,,,,,,,,,,,,,,,,,,770987,001,2024-12-05_12h24.04.412,Test,2024.2.1,59.85313715894613,2024-12-05 12h24.30.039615 +0100,
23,150,120,39,None,15,15,0,,,,,,,,0,15,15,22,,,,,,,,,,,,,76.25173744000494,,,,,,,,,,,,,,,,,,,,,,,76.24201418500161,76.25173744000494,76.4520184550056,76.4520184550056,76.4520184550056,78.15199584499351,78.15199584499351,78.1357910480001,,,,,,,,,,,,,,,,,,,,,,,,,,,,,,,,,,,,,,,,,,,,,,,,,,,,,,,,,770987,001,2024-12-05_12h24.04.412,Test,2024.2.1,59.85313715894613,2024-12-05 12h24.30.039615 +0100,
18,150,90,63,None,16,16,0,,,,,,,,0,16,16,17,,,,,,,,,,,,,78.15199584499351,,,,,,,,,,,,,,,,,,,,,,,78.14164969700505,78.15199584499351,78.35206070099957,78.35206070099957,78.35206070099957,80.052620596005,80.052620596005,80.03621700499207,,,,,,,,,,,,,,,,,,,,,,,,,,,,,,,,,,,,,,,,,,,,,,,,,,,,,,,,,770987,001,2024-12-05_12h24.04.412,Test,2024.2.1,59.85313715894613,2024-12-05 12h24.30.039615 +0100,
33,150,180,47,None,17,17,0,,,,,,,,0,17,17,32,,,,,,,,,,,,,80.052620596005,,,,,,,,,,,,,,,,,,,,,,,80.0440138559934,80.052620596005,80.25187949299288,80.25187949299288,80.25187949299288,81.9521551689977,81.9521551689977,81.93641759299499,,,,,,,,,,,,,,,,,,,,,,,,,,,,,,,,,,,,,,,,,,,,,,,,,,,,,,,,,770987,001,2024-12-05_12h24.04.412,Test,2024.2.1,59.85313715894613,2024-12-05 12h24.30.039615 +0100,
5,150,0,4,None,18,18,0,,,,,,,,0,18,18,4,,,,,,,,,,,,,81.9521551689977,,,,,,,,,,,,,,,,,,,,,,,81.94277106699883,81.9521551689977,82.13594350899803,82.13594350899803,82.1524775029975,83.83577099599643,83.83577099599643,83.81968367699301,,,,,,,,,,,,,,,,,,,,,,,,,,,,,,,,,,,,,,,,,,,,,,,,,,,,,,,,,770987,001,2024-12-05_12h24.04.412,Test,2024.2.1,59.85313715894613,2024-12-05 12h24.30.039615 +0100,
29,150,150,12,None,19,19,0,,,,,,,,0,19,19,28,,,,,,,,,,,,,83.83577099599643,,,,,,,,,,,,,,,,,,,,,,,83.82510649100004,83.83577099599643,84.03547169499507,84.03547169499507,84.03547169499507,85.73627943899191,85.73627943899191,85.72030316900054,,,,,,,,,,,,,,,,,,,,,,,,,,,,,,,,,,,,,,,,,,,,,,,,,,,,,,,,,770987,001,2024-12-05_12h24.04.412,Test,2024.2.1,59.85313715894613,2024-12-05 12h24.30.039615 +0100,
22,150,120,65,None,20,20,0,,,,,,,,0,20,20,21,,,,,,,,,,,,,85.73627943899191,,,,,,,,,,,,,,,,,,,,,,,85.72715792899544,85.73627943899191,85.9356558839936,85.9356558839936,85.9356558839936,87.63539479399333,87.63539479399333,87.62012847200094,,,,,,,,,,,,,,,,,,,,,,,,,,,,,,,,,,,,,,,,,,,,,,,,,,,,,,,,,770987,001,2024-12-05_12h24.04.412,Test,2024.2.1,59.85313715894613,2024-12-05 12h24.30.039615 +0100,
28,150,150,43,None,21,21,0,,,,,,,,0,21,21,27,,,,,,,,,,,,,87.63539479399333,,,,,,,,,,,,,,,,,,,,,,,87.62626094199368,87.63539479399333,87.83574496199435,87.83574496199435,87.83574496199435,89.53594882899779,89.53594882899779,89.51974548699218,,,,,,,,,,,,,,,,,,,,,,,,,,,,,,,,,,,,,,,,,,,,,,,,,,,,,,,,,770987,001,2024-12-05_12h24.04.412,Test,2024.2.1,59.85313715894613,2024-12-05 12h24.30.039615 +0100,
12,150,60,40,None,22,22,0,,,,,,,,0,22,22,11,,,,,,,,,,,,,89.53594882899779,,,,,,,,,,,,,,,,,,,,,,,89.52537589300482,89.53594882899779,89.73587312399468,89.73587312399468,89.73587312399468,91.43638247800118,91.43638247800118,91.4203306230047,,,,,,,,,,,,,,,,,,,,,,,,,,,,,,,,,,,,,,,,,,,,,,,,,,,,,,,,,770987,001,2024-12-05_12h24.04.412,Test,2024.2.1,59.85313715894613,2024-12-05 12h24.30.039615 +0100,
20,150,90,9,None,23,23,0,,,,,,,,0,23,23,19,,,,,,,,,,,,,91.43638247800118,,,,,,,,,,,,,,,,,,,,,,,91.42747196399432,91.43638247800118,91.63622077800392,91.63622077800392,91.63622077800392,93.33645967299526,93.33645967299526,93.32010410699877,,,,,,,,,,,,,,,,,,,,,,,,,,,,,,,,,,,,,,,,,,,,,,,,,,,,,,,,,770987,001,2024-12-05_12h24.04.412,Test,2024.2.1,59.85313715894613,2024-12-05 12h24.30.039615 +0100,
7,150,30,22,None,24,24,0,,,,,,,,0,24,24,6,,,,,,,,,,,,,93.33645967299526,,,,,,,,,,,,,,,,,,,,,,,93.3258718559955,93.33645967299526,93.53635006200057,93.53635006200057,93.53635006200057,95.23672772099962,95.23672772099962,95.22038801299641,,,,,,,,,,,,,,,,,,,,,,,,,,,,,,,,,,,,,,,,,,,,,,,,,,,,,,,,,770987,001,2024-12-05_12h24.04.412,Test,2024.2.1,59.85313715894613,2024-12-05 12h24.30.039615 +0100,
24,150,120,60,None,25,25,0,,,,,,,,0,25,25,23,,,,,,,,,,,,,95.23672772099962,,,,,,,,,,,,,,,,,,,,,,,95.22599685500609,95.23672772099962,95.4363403259922,95.4363403259922,95.4363403259922,97.13631109999551,97.13631109999551,97.12060465100512,,,,,,,,,,,,,,,,,,,,,,,,,,,,,,,,,,,,,,,,,,,,,,,,,,,,,,,,,770987,001,2024-12-05_12h24.04.412,Test,2024.2.1,59.85313715894613,2024-12-05 12h24.30.039615 +0100,
32,150,180,45,None,26,26,0,,,,,,,,0,26,26,31,,,,,,,,,,,,,97.13631109999551,,,,,,,,,,,,,,,,,,,,,,,97.12734842099599,97.13631109999551,97.33662913399166,97.33662913399166,97.33662913399166,99.03807583800517,99.03807583800517,99.02237739399425,,,,,,,,,,,,,,,,,,,,,,,,,,,,,,,,,,,,,,,,,,,,,,,,,,,,,,,,,770987,001,2024-12-05_12h24.04.412,Test,2024.2.1,59.85313715894613,2024-12-05 12h24.30.039615 +0100,
8,150,30,26,None,27,27,0,,,,,,,,0,27,27,7,,,,,,,,,,,,,99.03807583800517,,,,,,,,,,,,,,,,,,,,,,,99.02934096800163,99.03807583800517,99.23652762899292,99.23652762899292,99.25287742099317,100.941135992005,100.941135992005,100.92217409399746,,,,,,,,,,,,,,,,,,,,,,,,,,,,,,,,,,,,,,,,,,,,,,,,,,,,,,,,,770987,001,2024-12-05_12h24.04.412,Test,2024.2.1,59.85313715894613,2024-12-05 12h24.30.039615 +0100,
1,150,0,8,None,28,28,0,,,,,,,,0,28,28,0,,,,,,,,,,,,,100.941135992005,,,,,,,,,,,,,,,,,,,,,,,100.93374105700059,100.941135992005,101.137975627993,101.137975627993,101.15425250699627,102.83636279200437,102.83636279200437,102.82110208699305,,,,,,,,,,,,,,,,,,,,,,,,,,,,,,,,,,,,,,,,,,,,,,,,,,,,,,,,,770987,001,2024-12-05_12h24.04.412,Test,2024.2.1,59.85313715894613,2024-12-05 12h24.30.039615 +0100,
19,150,90,6,None,29,29,0,,,,,,,,0,29,29,18,,,,,,,,,,,,,102.83636279200437,,,,,,,,,,,,,,,,,,,,,,,102.82799700199394,102.83636279200437,103.03680612199241,103.03680612199241,103.03680612199241,104.7366076019971,104.7366076019971,104.72063028300181,,,,,,,,,,,,,,,,,,,,,,,,,,,,,,,,,,,,,,,,,,,,,,,,,,,,,,,,,770987,001,2024-12-05_12h24.04.412,Test,2024.2.1,59.85313715894613,2024-12-05 12h24.30.039615 +0100,
3,150,0,46,None,30,30,0,,,,,,,,0,30,30,2,,,,,,,,,,,,,104.7366076019971,,,,,,,,,,,,,,,,,,,,,,,104.72638059400197,104.7366076019971,104.93669135500386,104.93669135500386,104.93669135500386,106.6407228600001,106.6407228600001,106.6226172579918,,,,,,,,,,,,,,,,,,,,,,,,,,,,,,,,,,,,,,,,,,,,,,,,,,,,,,,,,770987,001,2024-12-05_12h24.04.412,Test,2024.2.1,59.85313715894613,2024-12-05 12h24.30.039615 +0100,
15,150,60,17,None,31,31,0,,,,,,,,0,31,31,14,,,,,,,,,,,,,106.6407228600001,,,,,,,,,,,,,,,,,,,,,,,106.63224019699555,106.6407228600001,106.83713364700088,106.83713364700088,106.85439447200042,108.53673111299577,108.53673111299577,108.52146624200395,,,,,,,,,,,,,,,,,,,,,,,,,,,,,,,,,,,,,,,,,,,,,,,,,,,,,,,,,770987,001,2024-12-05_12h24.04.412,Test,2024.2.1,59.85313715894613,2024-12-05 12h24.30.039615 +0100,
35,150,180,32,None,32,32,0,,,,,,,,0,32,32,34,,,,,,,,,,,,,108.53673111299577,,,,,,,,,,,,,,,,,,,,,,,108.52760395299993,108.53673111299577,108.73721255500277,108.73721255500277,108.73721255500277,110.4371304219967,110.4371304219967,110.42126274100156,,,,,,,,,,,,,,,,,,,,,,,,,,,,,,,,,,,,,,,,,,,,,,,,,,,,,,,,,770987,001,2024-12-05_12h24.04.412,Test,2024.2.1,59.85313715894613,2024-12-05 12h24.30.039615 +0100,
27,150,150,51,None,33,33,0,,,,,,,,0,33,33,26,,,,,,,,,,,,,110.4371304219967,,,,,,,,,,,,,,,,,,,,,,,110.42679781799961,110.4371304219967,110.6369915020041,110.6369915020041,110.6369915020041,112.33723826399364,112.33723826399364,112.32180969299225,,,,,,,,,,,,,,,,,,,,,,,,,,,,,,,,,,,,,,,,,,,,,,,,,,,,,,,,,770987,001,2024-12-05_12h24.04.412,Test,2024.2.1,59.85313715894613,2024-12-05 12h24.30.039615 +0100,
31,150,180,53,None,34,34,0,,,,,,,,0,34,34,30,,,,,,,,,,,,,112.33723826399364,,,,,,,,,,,,,,,,,,,,,,,112.32748457600246,112.33723826399364,112.53748022600485,112.53748022600485,112.53748022600485,114.23832420099643,114.23832420099643,114.22214741600328,,,,,,,,,,,,,,,,,,,,,,,,,,,,,,,,,,,,,,,,,,,,,,,,,,,,,,,,,770987,001,2024-12-05_12h24.04.412,Test,2024.2.1,59.85313715894613,2024-12-05 12h24.30.039615 +0100,
,,,,,,,,,,,,,,,,,,,,,,,,,,,,,,,,,,,,,,,,,,,,,,,,,,,,,,,,,,,,,,114.22226257200236,114.23832420099643,114.23832420099643,126.40729879299761,space,12.163789315003669,None,,,,,,,,,,,,,,,,,,,,,,,,,,,,,,,,,,,,,,,,,,,,,,,,,,770987,001,2024-12-05_12h24.04.412,Test,2024.2.1,59.85313715894613,2024-12-05 12h24.30.039615 +0100,
64,150,150,70,None,0,0,0,True,left,1.1605061240115901,None,,,,,,,,0,0,0,0,,,,,,,,,126.43205377500271,,,,,,,,,,,,,,,,,,,,,,,,,,,,,,,,,,,,,,126.42301333999785,126.43205377500271,127.43874904500262,128.42120532000263,128.42120532000263,128.42120532000263,129.59046719600155,left,1.1605061240115901,None,,,,,,,,,,,,,,,,,,,,,,,,,,,,,,,,,,,,,,,,770987,001,2024-12-05_12h24.04.412,Test,2024.2.1,59.85313715894613,2024-12-05 12h24.30.039615 +0100,
11,150,60,34,None,1,1,0,False,right,0.6912267429870553,None,,,,,,,,0,1,1,1,,,,,,,,,129.6254628780007,,,,,,,,,,,,,,,,,,,,,,,,,,,,,,,,,,,,,,129.59754739599884,129.6254628780007,130.6400370439951,131.60543493500154,131.60543493500154,131.60543493500154,132.30744889100606,right,0.6912267429870553,None,,,,,,,,,,,,,,,,,,,,,,,,,,,,,,,,,,,,,,,,770987,001,2024-12-05_12h24.04.412,Test,2024.2.1,59.85313715894613,2024-12-05 12h24.30.039615 +0100,
1,150,0,8,None,2,2,0,False,left,0.9441907610016642,None,,,,,,,,0,2,2,2,,,,,,,,,132.32210812799167,,,,,,,,,,,,,,,,,,,,,,,,,,,,,,,,,,,,,,132.31240243799402,132.32210812799167,133.3221670060011,134.3222290919948,134.3222290919948,134.3222290919948,135.2742101430049,left,0.9441907610016642,None,,,,,,,,,,,,,,,,,,,,,,,,,,,,,,,,,,,,,,,,770987,001,2024-12-05_12h24.04.412,Test,2024.2.1,59.85313715894613,2024-12-05 12h24.30.039615 +0100,
32,150,180,45,None,3,3,0,False,left,0.8360634749988094,None,,,,,,,,0,3,3,3,,,,,,,,,135.28892431799613,,,,,,,,,,,,,,,,,,,,,,,,,,,,,,,,,,,,,,135.27829391800333,135.28892431799613,136.28968723799335,137.2891751970019,137.2891751970019,137.2891751970019,138.14136428199708,left,0.8360634749988094,None,,,,,,,,,,,,,,,,,,,,,,,,,,,,,,,,,,,,,,,,770987,001,2024-12-05_12h24.04.412,Test,2024.2.1,59.85313715894613,2024-12-05 12h24.30.039615 +0100,
30,150,150,55,None,4,4,0,False,right,0.7424388179933885,None,,,,,,,,0,4,4,4,,,,,,,,,138.15667431399925,,,,,,,,,,,,,,,,,,,,,,,,,,,,,,,,,,,,,,138.14743456400174,138.15667431399925,139.15692665899405,140.15665507399535,140.15665507399535,140.15665507399535,140.90807101900282,right,0.7424388179933885,None,,,,,,,,,,,,,,,,,,,,,,,,,,,,,,,,,,,,,,,,770987,001,2024-12-05_12h24.04.412,Test,2024.2.1,59.85313715894613,2024-12-05 12h24.30.039615 +0100,
68,150,180,42,None,5,5,0,True,left,0.8009654030029196,None,,,,,,,,0,5,5,5,,,,,,,,,140.92345647499315,,,,,,,,,,,,,,,,,,,,,,,,,,,,,,,,,,,,,,140.91393175900157,140.92345647499315,141.9394069120026,142.92411600600462,142.92411600600462,142.92411600600462,143.74144195699773,left,0.8009654030029196,None,,,,,,,,,,,,,,,,,,,,,,,,,,,,,,,,,,,,,,,,770987,001,2024-12-05_12h24.04.412,Test,2024.2.1,59.85313715894613,2024-12-05 12h24.30.039615 +0100,
60,150,120,52,None,6,6,0,True,left,1.3047621989971958,None,,,,,,,,0,6,6,6,,,,,,,,,143.7563255779969,,,,,,,,,,,,,,,,,,,,,,,,,,,,,,,,,,,,,,143.74744493199978,143.7563255779969,144.7563479119999,145.75665936300356,145.75665936300356,145.75665936300356,147.07525250400067,left,1.3047621989971958,None,,,,,,,,,,,,,,,,,,,,,,,,,,,,,,,,,,,,,,,,770987,001,2024-12-05_12h24.04.412,Test,2024.2.1,59.85313715894613,2024-12-05 12h24.30.039615 +0100,
10,150,30,24,None,7,7,0,False,right,0.6445422699907795,None,,,,,,,,0,7,7,7,,,,,,,,,147.09010629699333,,,,,,,,,,,,,,,,,,,,,,,,,,,,,,,,,,,,,,147.08055182699172,147.09010629699333,148.09034182799223,149.09010732099705,149.09010732099705,149.09010732099705,149.74158666300355,right,0.6445422699907795,None,,,,,,,,,,,,,,,,,,,,,,,,,,,,,,,,,,,,,,,,770987,001,2024-12-05_12h24.04.412,Test,2024.2.1,59.85313715894613,2024-12-05 12h24.30.039615 +0100,
54,150,90,66,None,8,8,0,True,left,0.9341766120051034,None,,,,,,,,0,8,8,8,,,,,,,,,149.75638320100552,,,,,,,,,,,,,,,,,,,,,,,,,,,,,,,,,,,,,,149.7467484420049,149.75638320100552,150.7568301979918,151.75736772100208,151.75736772100208,151.75736772100208,152.70932523100055,left,0.9341766120051034,None,,,,,,,,,,,,,,,,,,,,,,,,,,,,,,,,,,,,,,,,770987,001,2024-12-05_12h24.04.412,Test,2024.2.1,59.85313715894613,2024-12-05 12h24.30.039615 +0100,
45,150,30,69,None,9,9,0,True,left,1.1890778980014147,None,,,,,,,,0,9,9,9,,,,,,,,,152.7259776179999,,,,,,,,,,,,,,,,,,,,,,,,,,,,,,,,,,,,,,152.7171294879954,152.7259776179999,153.740233731005,154.72402603899536,154.72402603899536,154.72402603899536,155.92564711900195,left,1.1890778980014147,None,,,,,,,,,,,,,,,,,,,,,,,,,,,,,,,,,,,,,,,,770987,001,2024-12-05_12h24.04.412,Test,2024.2.1,59.85313715894613,2024-12-05 12h24.30.039615 +0100,
52,150,90,15,None,10,10,0,True,left,0.9409542270004749,None,,,,,,,,0,10,10,10,,,,,,,,,155.94054513500305,,,,,,,,,,,,,,,,,,,,,,,,,,,,,,,,,,,,,,155.93148228799691,155.94054513500305,156.94078944799548,157.94098396100162,157.94098396100162,157.94098396100162,158.89190557299298,left,0.9409542270004749,None,,,,,,,,,,,,,,,,,,,,,,,,,,,,,,,,,,,,,,,,770987,001,2024-12-05_12h24.04.412,Test,2024.2.1,59.85313715894613,2024-12-05 12h24.30.039615 +0100,
47,150,60,68,None,11,11,0,True,right,0.7098472710058559,None,,,,,,,,0,11,11,11,,,,,,,,,158.90673597699788,,,,,,,,,,,,,,,,,,,,,,,,,,,,,,,,,,,,,,158.89706142900104,158.90673597699788,159.90744466999604,160.89113855500182,160.89113855500182,160.89113855500182,161.6111298199976,right,0.7098472710058559,None,,,,,,,,,,,,,,,,,,,,,,,,,,,,,,,,,,,,,,,,770987,001,2024-12-05_12h24.04.412,Test,2024.2.1,59.85313715894613,2024-12-05 12h24.30.039615 +0100,
57,150,120,2,None,12,12,0,True,right,0.6376579380012117,None,,,,,,,,0,12,12,12,,,,,,,,,161.62781003200507,,,,,,,,,,,,,,,,,,,,,,,,,,,,,,,,,,,,,,161.61921301999246,161.62781003200507,162.6419967230031,163.62529214100505,163.62529214100505,163.62529214100505,164.27565856800356,right,0.6376579380012117,None,,,,,,,,,,,,,,,,,,,,,,,,,,,,,,,,,,,,,,,,770987,001,2024-12-05_12h24.04.412,Test,2024.2.1,59.85313715894613,2024-12-05 12h24.30.039615 +0100,
26,150,150,23,None,13,13,0,False,right,0.9695125160069438,None,,,,,,,,0,13,13,13,,,,,,,,,164.29095922000124,,,,,,,,,,,,,,,,,,,,,,,,,,,,,,,,,,,,,,164.2816270189942,164.29095922000124,165.29105943799368,166.27448426600313,166.27448426600313,166.27448426600313,167.25962296499347,right,0.9695125160069438,None,,,,,,,,,,,,,,,,,,,,,,,,,,,,,,,,,,,,,,,,770987,001,2024-12-05_12h24.04.412,Test,2024.2.1,59.85313715894613,2024-12-05 12h24.30.039615 +0100,
55,150,90,25,None,14,14,0,True,left,1.5651486699935049,None,,,,,,,,0,14,14,14,,,,,,,,,167.2745065630006,,,,,,,,,,,,,,,,,,,,,,,,,,,,,,,,,,,,,,167.26508523100347,167.2745065630006,168.27549750800245,169.25922694399196,169.25922694399196,169.25922694399196,170.82765964099963,left,1.5651486699935049,None,,,,,,,,,,,,,,,,,,,,,,,,,,,,,,,,,,,,,,,,770987,001,2024-12-05_12h24.04.412,Test,2024.2.1,59.85313715894613,2024-12-05 12h24.30.039615 +0100,
39,150,0,59,None,15,15,0,True,left,0.9361311840038979,None,,,,,,,,0,15,15,15,,,,,,,,,170.84268147799594,,,,,,,,,,,,,,,,,,,,,,,,,,,,,,,,,,,,,,170.83358586300164,170.84268147799594,171.84293652999622,172.84161440200114,172.84161440200114,172.84161440200114,173.79347414399672,left,0.9361311840038979,None,,,,,,,,,,,,,,,,,,,,,,,,,,,,,,,,,,,,,,,,770987,001,2024-12-05_12h24.04.412,Test,2024.2.1,59.85313715894613,2024-12-05 12h24.30.039615 +0100,
35,150,180,32,None,16,16,0,False,right,0.7095577029976994,None,,,,,,,,0,16,16,16,,,,,,,,,173.80805984299514,,,,,,,,,,,,,,,,,,,,,,,,,,,,,,,,,,,,,,173.7968688969995,173.80805984299514,174.8086347740027,175.80880124100077,175.80880124100077,175.80880124100077,176.5271871129953,right,0.7095577029976994,None,,,,,,,,,,,,,,,,,,,,,,,,,,,,,,,,,,,,,,,,770987,001,2024-12-05_12h24.04.412,Test,2024.2.1,59.85313715894613,2024-12-05 12h24.30.039615 +0100,
13,150,60,49,None,17,17,0,False,right,0.6553483449970372,None,,,,,,,,0,17,17,17,,,,,,,,,176.5423121299973,,,,,,,,,,,,,,,,,,,,,,,,,,,,,,,,,,,,,,176.5329346780054,176.5423121299973,177.54269220899732,178.54207550699357,178.54207550699357,178.54207550699357,179.2103323039919,right,0.6553483449970372,None,,,,,,,,,,,,,,,,,,,,,,,,,,,,,,,,,,,,,,,,770987,001,2024-12-05_12h24.04.412,Test,2024.2.1,59.85313715894613,2024-12-05 12h24.30.039615 +0100,
28,150,150,43,None,18,18,0,False,right,0.8649634890025482,None,,,,,,,,0,18,18,18,,,,,,,,,179.2261299469974,,,,,,,,,,,,,,,,,,,,,,,,,,,,,,,,,,,,,,179.217569223998,179.2261299469974,180.22576843800198,181.22554312799184,181.22554312799184,181.22554312799184,182.09487504900608,right,0.8649634890025482,None,,,,,,,,,,,,,,,,,,,,,,,,,,,,,,,,,,,,,,,,770987,001,2024-12-05_12h24.04.412,Test,2024.2.1,59.85313715894613,2024-12-05 12h24.30.039615 +0100,
37,150,0,31,None,19,19,0,True,left,0.7139179180085193,None,,,,,,,,0,19,19,19,,,,,,,,,182.1093109749927,,,,,,,,,,,,,,,,,,,,,,,,,,,,,,,,,,,,,,182.1002816389955,182.1093109749927,183.11033363899332,184.10919834999368,184.10919834999368,184.10919834999368,184.8281199070043,left,0.7139179180085193,None,,,,,,,,,,,,,,,,,,,,,,,,,,,,,,,,,,,,,,,,770987,001,2024-12-05_12h24.04.412,Test,2024.2.1,59.85313715894613,2024-12-05 12h24.30.039615 +0100,
49,150,60,1,None,20,20,0,True,right,0.7232822329970077,None,,,,,,,,0,20,20,20,,,,,,,,,184.84413374599535,,,,,,,,,,,,,,,,,,,,,,,,,,,,,,,,,,,,,,184.83544879799592,184.84413374599535,185.85961286000384,186.84300883399555,186.84300883399555,186.84300883399555,187.57689961699361,right,0.7232822329970077,None,,,,,,,,,,,,,,,,,,,,,,,,,,,,,,,,,,,,,,,,770987,001,2024-12-05_12h24.04.412,Test,2024.2.1,59.85313715894613,2024-12-05 12h24.30.039615 +0100,
18,150,90,63,None,21,21,0,False,right,0.7673259319999488,None,,,,,,,,0,21,21,21,,,,,,,,,187.592182235996,,,,,,,,,,,,,,,,,,,,,,,,,,,,,,,,,,,,,,187.58242794200487,187.592182235996,188.5928788040037,189.57727401600278,189.57727401600278,189.57727401600278,190.36145954400126,right,0.7673259319999488,None,,,,,,,,,,,,,,,,,,,,,,,,,,,,,,,,,,,,,,,,770987,001,2024-12-05_12h24.04.412,Test,2024.2.1,59.85313715894613,2024-12-05 12h24.30.039615 +0100,
22,150,120,65,None,22,22,0,False,right,0.7544951220043004,None,,,,,,,,0,22,22,22,,,,,,,,,190.37717794100172,,,,,,,,,,,,,,,,,,,,,,,,,,,,,,,,,,,,,,190.36714125500293,190.37717794100172,191.37614365199988,192.3609939010057,192.3609939010057,192.3609939010057,193.1286955270043,right,0.7544951220043004,None,,,,,,,,,,,,,,,,,,,,,,,,,,,,,,,,,,,,,,,,770987,001,2024-12-05_12h24.04.412,Test,2024.2.1,59.85313715894613,2024-12-05 12h24.30.039615 +0100,
31,150,180,53,None,23,23,0,False,right,0.8682024760055356,None,,,,,,,,0,23,23,23,,,,,,,,,193.14279236100265,,,,,,,,,,,,,,,,,,,,,,,,,,,,,,,,,,,,,,193.13221292599337,193.14279236100265,194.1428625970002,195.14384466200136,195.14384466200136,195.14384466200136,196.02835941499507,right,0.8682024760055356,None,,,,,,,,,,,,,,,,,,,,,,,,,,,,,,,,,,,,,,,,770987,001,2024-12-05_12h24.04.412,Test,2024.2.1,59.85313715894613,2024-12-05 12h24.30.039615 +0100,
63,150,150,30,None,24,24,0,True,right,0.7671497160044964,None,,,,,,,,0,24,24,24,,,,,,,,,196.0429057549918,,,,,,,,,,,,,,,,,,,,,,,,,,,,,,,,,,,,,,196.0336556090042,196.0429057549918,197.04309196099348,198.04356675999588,198.04356675999588,198.04356675999588,198.81353770100395,right,0.7671497160044964,None,,,,,,,,,,,,,,,,,,,,,,,,,,,,,,,,,,,,,,,,770987,001,2024-12-05_12h24.04.412,Test,2024.2.1,59.85313715894613,2024-12-05 12h24.30.039615 +0100,
56,150,120,67,None,25,25,0,True,right,0.7502083889994537,None,,,,,,,,0,25,25,25,,,,,,,,,198.82738176800194,,,,,,,,,,,,,,,,,,,,,,,,,,,,,,,,,,,,,,198.81760165799642,198.82738176800194,199.82763101099408,200.82681463200424,200.82681463200424,200.82681463200424,201.5794891109981,right,0.7502083889994537,None,,,,,,,,,,,,,,,,,,,,,,,,,,,,,,,,,,,,,,,,770987,001,2024-12-05_12h24.04.412,Test,2024.2.1,59.85313715894613,2024-12-05 12h24.30.039615 +0100,
53,150,90,14,None,26,26,0,True,left,1.041754759993637,None,,,,,,,,0,26,26,26,,,,,,,,,201.59527565099415,,,,,,,,,,,,,,,,,,,,,,,,,,,,,,,,,,,,,,201.586672371006,201.59527565099415,202.61073586500424,203.59346150299825,203.59346150299825,203.59346150299825,204.6464194250002,left,1.041754759993637,None,,,,,,,,,,,,,,,,,,,,,,,,,,,,,,,,,,,,,,,,770987,001,2024-12-05_12h24.04.412,Test,2024.2.1,59.85313715894613,2024-12-05 12h24.30.039615 +0100,
17,150,90,64,None,27,27,0,False,right,1.064770293989568,None,,,,,,,,0,27,27,27,,,,,,,,,204.66568776099302,,,,,,,,,,,,,,,,,,,,,,,,,,,,,,,,,,,,,,204.6566040579928,204.66568776099302,205.67739898900618,206.6600914580049,206.6600914580049,206.6600914580049,207.7295459080051,right,1.064770293989568,None,,,,,,,,,,,,,,,,,,,,,,,,,,,,,,,,,,,,,,,,770987,001,2024-12-05_12h24.04.412,Test,2024.2.1,59.85313715894613,2024-12-05 12h24.30.039615 +0100,
50,150,60,38,None,28,28,0,True,left,0.9036252929945476,None,,,,,,,,0,28,28,28,,,,,,,,,207.74541623299592,,,,,,,,,,,,,,,,,,,,,,,,,,,,,,,,,,,,,,207.7365367780003,207.74541623299592,208.760869670994,209.74402355600614,209.74402355600614,209.74402355600614,210.66259037400596,left,0.9036252929945476,None,,,,,,,,,,,,,,,,,,,,,,,,,,,,,,,,,,,,,,,,770987,001,2024-12-05_12h24.04.412,Test,2024.2.1,59.85313715894613,2024-12-05 12h24.30.039615 +0100,
38,150,0,13,None,29,29,0,True,left,0.6853685630048858,None,,,,,,,,0,29,29,29,,,,,,,,,210.6774001140002,,,,,,,,,,,,,,,,,,,,,,,,,,,,,,,,,,,,,,210.66823072600528,210.6774001140002,211.67753378600173,212.67743722400337,212.67743722400337,212.67743722400337,213.37937882100232,left,0.6853685630048858,None,,,,,,,,,,,,,,,,,,,,,,,,,,,,,,,,,,,,,,,,770987,001,2024-12-05_12h24.04.412,Test,2024.2.1,59.85313715894613,2024-12-05 12h24.30.039615 +0100,
15,150,60,17,None,30,30,0,False,right,0.6056712730060099,None,,,,,,,,0,30,30,30,,,,,,,,,213.39439968699298,,,,,,,,,,,,,,,,,,,,,,,,,,,,,,,,,,,,,,213.38435114799358,213.39439968699298,214.3942509740009,215.3939739060006,215.3939739060006,215.3939739060006,216.0127755650028,right,0.6056712730060099,None,,,,,,,,,,,,,,,,,,,,,,,,,,,,,,,,,,,,,,,,770987,001,2024-12-05_12h24.04.412,Test,2024.2.1,59.85313715894613,2024-12-05 12h24.30.039615 +0100,
40,150,0,41,None,31,31,0,True,right,0.7766805369901704,None,,,,,,,,0,31,31,31,,,,,,,,,216.0289195660007,,,,,,,,,,,,,,,,,,,,,,,,,,,,,,,,,,,,,,216.01969435700448,216.0289195660007,217.04495355399558,218.02865129499696,218.02865129499696,218.02865129499696,218.81305083500047,right,0.7766805369901704,None,,,,,,,,,,,,,,,,,,,,,,,,,,,,,,,,,,,,,,,,770987,001,2024-12-05_12h24.04.412,Test,2024.2.1,59.85313715894613,2024-12-05 12h24.30.039615 +0100,
42,150,30,5,None,32,32,0,True,left,1.0407165459910175,None,,,,,,,,0,32,32,32,,,,,,,,,218.8276834589924,,,,,,,,,,,,,,,,,,,,,,,,,,,,,,,,,,,,,,218.8183701139933,218.8276834589924,219.82842890999746,220.8279400199972,220.8279400199972,220.8279400199972,221.8799449539947,left,1.0407165459910175,None,,,,,,,,,,,,,,,,,,,,,,,,,,,,,,,,,,,,,,,,770987,001,2024-12-05_12h24.04.412,Test,2024.2.1,59.85313715894613,2024-12-05 12h24.30.039615 +0100,
48,150,60,57,None,33,33,0,True,right,1.0350404229975538,None,,,,,,,,0,33,33,33,,,,,,,,,221.89577043699683,,,,,,,,,,,,,,,,,,,,,,,,,,,,,,,,,,,,,,221.88566817399987,221.89577043699683,222.8945773049927,223.89458931599802,223.89458931599802,223.89458931599802,224.94663371700153,right,1.0350404229975538,None,,,,,,,,,,,,,,,,,,,,,,,,,,,,,,,,,,,,,,,,770987,001,2024-12-05_12h24.04.412,Test,2024.2.1,59.85313715894613,2024-12-05 12h24.30.039615 +0100,
36,150,0,3,None,34,34,0,True,right,0.868662292996305,None,,,,,,,,0,34,34,34,,,,,,,,,224.96147658099653,,,,,,,,,,,,,,,,,,,,,,,,,,,,,,,,,,,,,,224.9517436400056,224.96147658099653,225.96181273000548,226.96203348999552,226.96203348999552,226.96203348999552,227.8467189630028,right,0.868662292996305,None,,,,,,,,,,,,,,,,,,,,,,,,,,,,,,,,,,,,,,,,770987,001,2024-12-05_12h24.04.412,Test,2024.2.1,59.85313715894613,2024-12-05 12h24.30.039615 +0100,
6,150,30,54,None,35,35,0,False,left,0.8907655950024491,None,,,,,,,,0,35,35,35,,,,,,,,,227.86189670600288,,,,,,,,,,,,,,,,,,,,,,,,,,,,,,,,,,,,,,227.85218571999576,227.86189670600288,228.8619638569944,229.8621538139996,229.8621538139996,229.8621538139996,230.76361389900558,left,0.8907655950024491,None,,,,,,,,,,,,,,,,,,,,,,,,,,,,,,,,,,,,,,,,770987,001,2024-12-05_12h24.04.412,Test,2024.2.1,59.85313715894613,2024-12-05 12h24.30.039615 +0100,
62,150,150,36,None,36,36,0,True,left,0.8054915980028454,None,,,,,,,,0,36,36,36,,,,,,,,,230.77872842099168,,,,,,,,,,,,,,,,,,,,,,,,,,,,,,,,,,,,,,230.7695468210004,230.77872842099168,231.77932794399385,232.7796593439998,232.7796593439998,232.7796593439998,233.59758232299646,left,0.8054915980028454,None,,,,,,,,,,,,,,,,,,,,,,,,,,,,,,,,,,,,,,,,770987,001,2024-12-05_12h24.04.412,Test,2024.2.1,59.85313715894613,2024-12-05 12h24.30.039615 +0100,
29,150,150,12,None,37,37,0,False,right,1.056321330004721,None,,,,,,,,0,37,37,37,,,,,,,,,233.6131334649981,,,,,,,,,,,,,,,,,,,,,,,,,,,,,,,,,,,,,,233.60325640600058,233.6131334649981,234.6123631579976,235.61256656500336,235.61256656500336,235.61256656500336,236.68093761500495,right,1.056321330004721,None,,,,,,,,,,,,,,,,,,,,,,,,,,,,,,,,,,,,,,,,770987,001,2024-12-05_12h24.04.412,Test,2024.2.1,59.85313715894613,2024-12-05 12h24.30.039615 +0100,
46,150,60,48,None,38,38,0,True,right,0.6323754810000537,None,,,,,,,,0,38,38,38,,,,,,,,,236.6961755480006,,,,,,,,,,,,,,,,,,,,,,,,,,,,,,,,,,,,,,236.68705899899942,236.6961755480006,237.69654909499513,238.680561354995,238.680561354995,238.680561354995,239.31767942299484,right,0.6323754810000537,None,,,,,,,,,,,,,,,,,,,,,,,,,,,,,,,,,,,,,,,,770987,001,2024-12-05_12h24.04.412,Test,2024.2.1,59.85313715894613,2024-12-05 12h24.30.039615 +0100,
65,150,150,44,None,39,39,0,True,left,1.058707632997539,None,,,,,,,,0,39,39,39,,,,,,,,,239.3326976209937,,,,,,,,,,,,,,,,,,,,,,,,,,,,,,,,,,,,,,239.3237847959972,239.3326976209937,240.34682621499815,241.3296226139937,241.3296226139937,241.3296226139937,242.39770133300044,left,1.058707632997539,None,,,,,,,,,,,,,,,,,,,,,,,,,,,,,,,,,,,,,,,,770987,001,2024-12-05_12h24.04.412,Test,2024.2.1,59.85313715894613,2024-12-05 12h24.30.039615 +0100,
59,150,120,58,None,40,40,0,True,right,1.0885931959928712,None,,,,,,,,0,40,40,40,,,,,,,,,242.41318357299315,,,,,,,,,,,,,,,,,,,,,,,,,,,,,,,,,,,,,,242.40332457200566,242.41318357299315,243.4140913040028,244.41445908699825,244.41445908699825,244.41445908699825,245.51455980399624,right,1.0885931959928712,None,,,,,,,,,,,,,,,,,,,,,,,,,,,,,,,,,,,,,,,,770987,001,2024-12-05_12h24.04.412,Test,2024.2.1,59.85313715894613,2024-12-05 12h24.30.039615 +0100,
61,150,150,21,None,41,41,0,True,left,1.2316321469988907,None,,,,,,,,0,41,41,41,,,,,,,,,245.52949237400026,,,,,,,,,,,,,,,,,,,,,,,,,,,,,,,,,,,,,,245.51984067399462,245.52949237400026,246.5302602610027,247.5139363269991,247.5139363269991,247.5139363269991,248.74953128599736,left,1.2316321469988907,None,,,,,,,,,,,,,,,,,,,,,,,,,,,,,,,,,,,,,,,,770987,001,2024-12-05_12h24.04.412,Test,2024.2.1,59.85313715894613,2024-12-05 12h24.30.039615 +0100,
44,150,30,37,None,42,42,0,True,left,0.8309012600075221,None,,,,,,,,0,42,42,42,,,,,,,,,248.7660430370015,,,,,,,,,,,,,,,,,,,,,,,,,,,,,,,,,,,,,,248.75699968400295,248.7660430370015,249.78054041699215,250.76444523999817,250.76444523999817,250.76444523999817,251.59964864500216,left,0.8309012600075221,None,,,,,,,,,,,,,,,,,,,,,,,,,,,,,,,,,,,,,,,,770987,001,2024-12-05_12h24.04.412,Test,2024.2.1,59.85313715894613,2024-12-05 12h24.30.039615 +0100,
23,150,120,39,None,43,43,0,False,right,0.6696894569904543,None,,,,,,,,0,43,43,43,,,,,,,,,251.61597598799563,,,,,,,,,,,,,,,,,,,,,,,,,,,,,,,,,,,,,,251.6069190069975,251.61597598799563,252.6309018930042,253.6136398219969,253.6136398219969,253.6136398219969,254.29889407100563,right,0.6696894569904543,None,,,,,,,,,,,,,,,,,,,,,,,,,,,,,,,,,,,,,,,,770987,001,2024-12-05_12h24.04.412,Test,2024.2.1,59.85313715894613,2024-12-05 12h24.30.039615 +0100,
20,150,90,9,None,44,44,0,False,right,0.7321934630017495,None,,,,,,,,0,44,44,44,,,,,,,,,254.3137648539996,,,,,,,,,,,,,,,,,,,,,,,,,,,,,,,,,,,,,,254.30478179399506,254.3137648539996,255.31426501799433,256.31455718800134,256.31455718800134,256.31455718800134,257.05000784099684,right,0.7321934630017495,None,,,,,,,,,,,,,,,,,,,,,,,,,,,,,,,,,,,,,,,,770987,001,2024-12-05_12h24.04.412,Test,2024.2.1,59.85313715894613,2024-12-05 12h24.30.039615 +0100,
58,150,120,61,None,45,45,0,True,right,0.7006985810003243,None,,,,,,,,0,45,45,45,,,,,,,,,257.0652258780028,,,,,,,,,,,,,,,,,,,,,,,,,,,,,,,,,,,,,,257.0559244640026,257.0652258780028,258.0645401350048,259.0642565610033,259.0642565610033,259.0642565610033,259.7673940569948,right,0.7006985810003243,None,,,,,,,,,,,,,,,,,,,,,,,,,,,,,,,,,,,,,,,,770987,001,2024-12-05_12h24.04.412,Test,2024.2.1,59.85313715894613,2024-12-05 12h24.30.039615 +0100,
7,150,30,22,None,46,46,0,False,left,1.2230383129935944,None,,,,,,,,0,46,46,46,,,,,,,,,259.78220821899595,,,,,,,,,,,,,,,,,,,,,,,,,,,,,,,,,,,,,,259.7734552759939,259.78220821899595,260.7982001539931,261.7815577510046,261.7815577510046,261.7815577510046,263.01646644099674,left,1.2230383129935944,None,,,,,,,,,,,,,,,,,,,,,,,,,,,,,,,,,,,,,,,,770987,001,2024-12-05_12h24.04.412,Test,2024.2.1,59.85313715894613,2024-12-05 12h24.30.039615 +0100,
27,150,150,51,None,47,47,0,False,right,0.8351447189925238,None,,,,,,,,0,47,47,47,,,,,,,,,263.03149501400185,,,,,,,,,,,,,,,,,,,,,,,,,,,,,,,,,,,,,,263.0225793370046,263.03149501400185,264.03123230200436,265.03180383700237,265.03180383700237,265.03180383700237,265.8834403719957,right,0.8351447189925238,None,,,,,,,,,,,,,,,,,,,,,,,,,,,,,,,,,,,,,,,,770987,001,2024-12-05_12h24.04.412,Test,2024.2.1,59.85313715894613,2024-12-05 12h24.30.039615 +0100,
51,150,90,29,None,48,48,0,True,right,0.8073258950025775,None,,,,,,,,0,48,48,48,,,,,,,,,265.8986220950028,,,,,,,,,,,,,,,,,,,,,,,,,,,,,,,,,,,,,,265.8893870449974,265.8986220950028,266.89832816499984,267.8983027889917,267.8983027889917,267.8983027889917,268.71618257999944,right,0.8073258950025775,None,,,,,,,,,,,,,,,,,,,,,,,,,,,,,,,,,,,,,,,,770987,001,2024-12-05_12h24.04.412,Test,2024.2.1,59.85313715894613,2024-12-05 12h24.30.039615 +0100,
9,150,30,56,None,49,49,0,False,right,0.7343289559939876,None,,,,,,,,0,49,49,49,,,,,,,,,268.7311207210005,,,,,,,,,,,,,,,,,,,,,,,,,,,,,,,,,,,,,,268.721513135999,268.7311207210005,269.73204015499505,270.71565740900405,270.71565740900405,270.71565740900405,271.4670127569989,right,0.7343289559939876,None,,,,,,,,,,,,,,,,,,,,,,,,,,,,,,,,,,,,,,,,770987,001,2024-12-05_12h24.04.412,Test,2024.2.1,59.85313715894613,2024-12-05 12h24.30.039615 +0100,
66,150,180,35,None,50,50,0,True,right,0.9857951869926183,None,,,,,,,,0,50,50,50,,,,,,,,,271.48249169999326,,,,,,,,,,,,,,,,,,,,,,,,,,,,,,,,,,,,,,271.4746767489996,271.48249169999326,272.4821621860028,273.48185546600143,273.48185546600143,273.48185546600143,274.4831788279989,right,0.9857951869926183,None,,,,,,,,,,,,,,,,,,,,,,,,,,,,,,,,,,,,,,,,770987,001,2024-12-05_12h24.04.412,Test,2024.2.1,59.85313715894613,2024-12-05 12h24.30.039615 +0100,
12,150,60,40,None,51,51,0,False,right,0.9606901049992302,None,,,,,,,,0,51,51,51,,,,,,,,,274.4986104540003,,,,,,,,,,,,,,,,,,,,,,,,,,,,,,,,,,,,,,274.488819627004,274.4986104540003,275.4990731930011,276.4821001810051,276.4821001810051,276.4821001810051,277.45088417999796,right,0.9606901049992302,None,,,,,,,,,,,,,,,,,,,,,,,,,,,,,,,,,,,,,,,,770987,001,2024-12-05_12h24.04.412,Test,2024.2.1,59.85313715894613,2024-12-05 12h24.30.039615 +0100,
67,150,180,10,None,52,52,0,True,left,0.9332564060023287,None,,,,,,,,0,52,52,52,,,,,,,,,277.46638191200327,,,,,,,,,,,,,,,,,,,,,,,,,,,,,,,,,,,,,,277.4561910009943,277.46638191200327,278.465613324006,279.46589941300044,279.46589941300044,279.46589941300044,280.40200610499596,left,0.9332564060023287,None,,,,,,,,,,,,,,,,,,,,,,,,,,,,,,,,,,,,,,,,770987,001,2024-12-05_12h24.04.412,Test,2024.2.1,59.85313715894613,2024-12-05 12h24.30.039615 +0100,
43,150,30,16,None,53,53,0,True,left,0.8237679579906398,None,,,,,,,,0,53,53,53,,,,,,,,,280.4167948950053,,,,,,,,,,,,,,,,,,,,,,,,,,,,,,,,,,,,,,280.40818089699314,280.4167948950053,281.4157415910013,282.41606726699683,282.41606726699683,282.41606726699683,283.25027276799665,left,0.8237679579906398,None,,,,,,,,,,,,,,,,,,,,,,,,,,,,,,,,,,,,,,,,770987,001,2024-12-05_12h24.04.412,Test,2024.2.1,59.85313715894613,2024-12-05 12h24.30.039615 +0100,
8,150,30,26,None,54,54,0,False,right,0.888959240008262,None,,,,,,,,0,54,54,54,,,,,,,,,283.26542067099945,,,,,,,,,,,,,,,,,,,,,,,,,,,,,,,,,,,,,,283.25558721099515,283.26542067099945,284.2661931850016,285.2496451079933,285.2496451079933,285.2496451079933,286.1515292520053,right,0.888959240008262,None,,,,,,,,,,,,,,,,,,,,,,,,,,,,,,,,,,,,,,,,770987,001,2024-12-05_12h24.04.412,Test,2024.2.1,59.85313715894613,2024-12-05 12h24.30.039615 +0100,
5,150,0,4,None,55,55,0,False,right,0.6746540689928224,None,,,,,,,,0,55,55,55,,,,,,,,,286.166759048996,,,,,,,,,,,,,,,,,,,,,,,,,,,,,,,,,,,,,,286.15742606799176,286.166759048996,287.1661940280028,288.1670238730003,288.1670238730003,288.1670238730003,288.8510504059959,right,0.6746540689928224,None,,,,,,,,,,,,,,,,,,,,,,,,,,,,,,,,,,,,,,,,770987,001,2024-12-05_12h24.04.412,Test,2024.2.1,59.85313715894613,2024-12-05 12h24.30.039615 +0100,
41,150,30,62,None,56,56,0,True,left,0.7426892649964429,None,,,,,,,,0,56,56,56,,,,,,,,,288.8665388399968,,,,,,,,,,,,,,,,,,,,,,,,,,,,,,,,,,,,,,288.8569220829959,288.8665388399968,289.8672980739939,290.86709749000147,290.86709749000147,290.86709749000147,291.6199505650002,left,0.7426892649964429,None,,,,,,,,,,,,,,,,,,,,,,,,,,,,,,,,,,,,,,,,770987,001,2024-12-05_12h24.04.412,Test,2024.2.1,59.85313715894613,2024-12-05 12h24.30.039615 +0100,
19,150,90,6,None,57,57,0,False,right,0.6782329069974367,None,,,,,,,,0,57,57,57,,,,,,,,,291.6339514699939,,,,,,,,,,,,,,,,,,,,,,,,,,,,,,,,,,,,,,291.62549068499357,291.6339514699939,292.6341295159946,293.6340798799938,293.6340798799938,293.6340798799938,294.3187213890051,right,0.6782329069974367,None,,,,,,,,,,,,,,,,,,,,,,,,,,,,,,,,,,,,,,,,770987,001,2024-12-05_12h24.04.412,Test,2024.2.1,59.85313715894613,2024-12-05 12h24.30.039615 +0100,
4,150,0,7,None,58,58,0,False,left,0.8301532519981265,None,,,,,,,,0,58,58,58,,,,,,,,,294.3331011160044,,,,,,,,,,,,,,,,,,,,,,,,,,,,,,,,,,,,,,294.3237543550058,294.3331011160044,295.33367826099857,296.33316440100316,296.33316440100316,296.33316440100316,297.1687664380006,left,0.8301532519981265,None,,,,,,,,,,,,,,,,,,,,,,,,,,,,,,,,,,,,,,,,770987,001,2024-12-05_12h24.04.412,Test,2024.2.1,59.85313715894613,2024-12-05 12h24.30.039615 +0100,
33,150,180,47,None,59,59,0,False,left,0.9579923990095267,None,,,,,,,,0,59,59,59,,,,,,,,,297.1843825190008,,,,,,,,,,,,,,,,,,,,,,,,,,,,,,,,,,,,,,297.1746356479998,297.1843825190008,298.18382236799516,299.1680668560002,299.1680668560002,299.1680668560002,300.13564513399615,left,0.9579923990095267,None,,,,,,,,,,,,,,,,,,,,,,,,,,,,,,,,,,,,,,,,770987,001,2024-12-05_12h24.04.412,Test,2024.2.1,59.85313715894613,2024-12-05 12h24.30.039615 +0100,
69,150,180,33,None,60,60,0,True,right,1.1545775300037349,None,,,,,,,,0,60,60,60,,,,,,,,,300.15071264900325,,,,,,,,,,,,,,,,,,,,,,,,,,,,,,,,,,,,,,300.14171774899296,300.15071264900325,301.15113117899455,302.1500674019917,302.1500674019917,302.1500674019917,303.31919527500577,right,1.1545775300037349,None,,,,,,,,,,,,,,,,,,,,,,,,,,,,,,,,,,,,,,,,770987,001,2024-12-05_12h24.04.412,Test,2024.2.1,59.85313715894613,2024-12-05 12h24.30.039615 +0100,
70,150,180,19,None,61,61,0,True,right,0.7765205589967081,None,,,,,,,,0,61,61,61,,,,,,,,,303.3348686419922,,,,,,,,,,,,,,,,,,,,,,,,,,,,,,,,,,,,,,303.3258732719987,303.3348686419922,304.3344798640028,305.33420697800466,305.33420697800466,305.33420697800466,306.1191741079965,right,0.7765205589967081,None,,,,,,,,,,,,,,,,,,,,,,,,,,,,,,,,,,,,,,,,770987,001,2024-12-05_12h24.04.412,Test,2024.2.1,59.85313715894613,2024-12-05 12h24.30.039615 +0100,
21,150,120,11,None,62,62,0,False,left,1.1145575680129696,None,,,,,,,,0,62,62,62,,,,,,,,,306.1345136750024,,,,,,,,,,,,,,,,,,,,,,,,,,,,,,,,,,,,,,306.12537647499994,306.1345136750024,307.13455549199716,308.1335572270036,308.1335572270036,308.1335572270036,309.25329133699415,left,1.1145575680129696,None,,,,,,,,,,,,,,,,,,,,,,,,,,,,,,,,,,,,,,,,770987,001,2024-12-05_12h24.04.412,Test,2024.2.1,59.85313715894613,2024-12-05 12h24.30.039615 +0100,
14,150,60,27,None,63,63,0,False,left,1.841566729999613,None,,,,,,,,0,63,63,63,,,,,,,,,309.26803169600316,,,,,,,,,,,,,,,,,,,,,,,,,,,,,,,,,,,,,,309.25877716699324,309.26803169600316,310.2679935829947,311.26791688600497,311.26791688600497,311.26791688600497,313.1199643239961,left,1.841566729999613,None,,,,,,,,,,,,,,,,,,,,,,,,,,,,,,,,,,,,,,,,770987,001,2024-12-05_12h24.04.412,Test,2024.2.1,59.85313715894613,2024-12-05 12h24.30.039615 +0100,
24,150,120,60,None,64,64,0,False,right,0.6170293100003619,None,,,,,,,,0,64,64,64,,,,,,,,,313.13617360100034,,,,,,,,,,,,,,,,,,,,,,,,,,,,,,,,,,,,,,313.12662373700005,313.13617360100034,314.15139026399993,315.13575583300553,315.13575583300553,315.13575583300553,315.76948815099604,right,0.6170293100003619,None,,,,,,,,,,,,,,,,,,,,,,,,,,,,,,,,,,,,,,,,770987,001,2024-12-05_12h24.04.412,Test,2024.2.1,59.85313715894613,2024-12-05 12h24.30.039615 +0100,
3,150,0,46,None,65,65,0,False,right,1.6840296970040072,None,,,,,,,,0,65,65,65,,,,,,,,,315.78499150699645,,,,,,,,,,,,,,,,,,,,,,,,,,,,,,,,,,,,,,315.77556810100214,315.78499150699645,316.7854884160042,317.7855320709932,317.7855320709932,317.7855320709932,319.47163745900616,right,1.6840296970040072,None,,,,,,,,,,,,,,,,,,,,,,,,,,,,,,,,,,,,,,,,770987,001,2024-12-05_12h24.04.412,Test,2024.2.1,59.85313715894613,2024-12-05 12h24.30.039615 +0100,
16,150,90,50,None,66,66,0,False,left,0.8907831429969519,None,,,,,,,,0,66,66,66,,,,,,,,,319.48660226000356,,,,,,,,,,,,,,,,,,,,,,,,,,,,,,,,,,,,,,319.4772728819953,319.48660226000356,320.50262979700346,321.48570667499735,321.48570667499735,321.48570667499735,322.38708054499875,left,0.8907831429969519,None,,,,,,,,,,,,,,,,,,,,,,,,,,,,,,,,,,,,,,,,770987,001,2024-12-05_12h24.04.412,Test,2024.2.1,59.85313715894613,2024-12-05 12h24.30.039615 +0100,
34,150,180,18,None,67,67,0,False,right,1.030384497003979,None,,,,,,,,0,67,67,67,,,,,,,,,322.40233928400266,,,,,,,,,,,,,,,,,,,,,,,,,,,,,,,,,,,,,,322.3929624010052,322.40233928400266,323.40239165199455,324.4030413360015,324.4030413360015,324.4030413360015,325.4404365829978,right,1.030384497003979,None,,,,,,,,,,,,,,,,,,,,,,,,,,,,,,,,,,,,,,,,770987,001,2024-12-05_12h24.04.412,Test,2024.2.1,59.85313715894613,2024-12-05 12h24.30.039615 +0100,
25,150,120,20,None,68,68,0,False,left,1.258315366008901,None,,,,,,,,0,68,68,68,,,,,,,,,325.4554047809943,,,,,,,,,,,,,,,,,,,,,,,,,,,,,,,,,,,,,,325.446264572005,325.4554047809943,326.46954937999544,327.45311900299566,327.45311900299566,327.45311900299566,328.7201104340056,left,1.258315366008901,None,,,,,,,,,,,,,,,,,,,,,,,,,,,,,,,,,,,,,,,,770987,001,2024-12-05_12h24.04.412,Test,2024.2.1,59.85313715894613,2024-12-05 12h24.30.039615 +0100,
2,150,0,28,None,69,69,0,False,right,1.0915286790113896,None,,,,,,,,0,69,69,69,,,,,,,,,328.7360497930058,,,,,,,,,,,,,,,,,,,,,,,,,,,,,,,,,,,,,,328.7265479369962,328.7360497930058,329.7351856040041,330.7203133639996,330.7203133639996,330.7203133639996,331.82120182400104,right,1.0915286790113896,None,,,,,,,,,,,,,,,,,,,,,,,,,,,,,,,,,,,,,,,,770987,001,2024-12-05_12h24.04.412,Test,2024.2.1,59.85313715894613,2024-12-05 12h24.30.039615 +0100,
,,,,,,,,,,,,,,,,,,,,,,,,,,,,,,,,,,,,,,,,,,,,,,,,,,,,,,,,,,,,,,,,,,,,,,,,,,,,,,,331.82137722699554,331.8361781940039,331.8361781940039,339.1541353020002,space,7.306063251002342,None,,,,,,,,,,,,,,,,,,,,,,,,,,,,,,,,,770987,001,2024-12-05_12h24.04.412,Test,2024.2.1,59.85313715894613,2024-12-05 12h24.30.039615 +0100,
27,150,150,51,None,0,0,0,,,,,,,,,,,,,,,,0,0,0,26,,,,,339.17731765699864,,,,,,,,,,,,,,,,,,,,,,,,,,,,,,,,,,,,,,,,,,,,,,,,,,,,,,,339.1682430530054,339.17731765699864,339.3531888889993,339.3531888889993,339.387134153003,341.0530644919927,341.0530644919927,341.0372766520013,,,,,,,,,,,,,,,,,,,,,,,,,770987,001,2024-12-05_12h24.04.412,Test,2024.2.1,59.85313715894613,2024-12-05 12h24.30.039615 +0100,
23,150,120,39,None,1,1,0,,,,,,,,,,,,,,,,0,1,1,22,,,,,341.0530644919927,,,,,,,,,,,,,,,,,,,,,,,,,,,,,,,,,,,,,,,,,,,,,,,,,,,,,,,341.04337276700244,341.0530644919927,341.254605397,341.254605397,341.254605397,342.9577062379976,342.9577062379976,342.9389718379971,,,,,,,,,,,,,,,,,,,,,,,,,770987,001,2024-12-05_12h24.04.412,Test,2024.2.1,59.85313715894613,2024-12-05 12h24.30.039615 +0100,
13,150,60,49,None,2,2,0,,,,,,,,,,,,,,,,0,2,2,12,,,,,342.9577062379976,,,,,,,,,,,,,,,,,,,,,,,,,,,,,,,,,,,,,,,,,,,,,,,,,,,,,,,342.9489936320024,342.9577062379976,343.1533532629983,343.1533532629983,343.1705998079997,344.8531657279964,344.8531657279964,344.8378278629971,,,,,,,,,,,,,,,,,,,,,,,,,770987,001,2024-12-05_12h24.04.412,Test,2024.2.1,59.85313715894613,2024-12-05 12h24.30.039615 +0100,
6,150,30,54,None,3,3,0,,,,,,,,,,,,,,,,0,3,3,5,,,,,344.8531657279964,,,,,,,,,,,,,,,,,,,,,,,,,,,,,,,,,,,,,,,,,,,,,,,,,,,,,,,344.84403891899274,344.8531657279964,345.05397271599213,345.05397271599213,345.05397271599213,346.7532827899995,346.7532827899995,346.7372684150032,,,,,,,,,,,,,,,,,,,,,,,,,770987,001,2024-12-05_12h24.04.412,Test,2024.2.1,59.85313715894613,2024-12-05 12h24.30.039615 +0100,
8,150,30,26,None,4,4,0,,,,,,,,,,,,,,,,0,4,4,7,,,,,346.7532827899995,,,,,,,,,,,,,,,,,,,,,,,,,,,,,,,,,,,,,,,,,,,,,,,,,,,,,,,346.7436907999945,346.7532827899995,346.95358887000475,346.95358887000475,346.95358887000475,348.6538789339975,348.6538789339975,348.6378160059976,,,,,,,,,,,,,,,,,,,,,,,,,770987,001,2024-12-05_12h24.04.412,Test,2024.2.1,59.85313715894613,2024-12-05 12h24.30.039615 +0100,
24,150,120,60,None,5,5,0,,,,,,,,,,,,,,,,0,5,5,23,,,,,348.6538789339975,,,,,,,,,,,,,,,,,,,,,,,,,,,,,,,,,,,,,,,,,,,,,,,,,,,,,,,348.64331470199977,348.6538789339975,348.85315511899535,348.85315511899535,348.85315511899535,350.55414651600586,350.55414651600586,350.5379952160001,,,,,,,,,,,,,,,,,,,,,,,,,770987,001,2024-12-05_12h24.04.412,Test,2024.2.1,59.85313715894613,2024-12-05 12h24.30.039615 +0100,
12,150,60,40,None,6,6,0,,,,,,,,,,,,,,,,0,6,6,11,,,,,350.55414651600586,,,,,,,,,,,,,,,,,,,,,,,,,,,,,,,,,,,,,,,,,,,,,,,,,,,,,,,350.54388436199224,350.55414651600586,350.7540267440054,350.7540267440054,350.7540267440054,352.45377128900145,352.45377128900145,352.43807005700364,,,,,,,,,,,,,,,,,,,,,,,,,770987,001,2024-12-05_12h24.04.412,Test,2024.2.1,59.85313715894613,2024-12-05 12h24.30.039615 +0100,
35,150,180,32,None,7,7,0,,,,,,,,,,,,,,,,0,7,7,34,,,,,352.45377128900145,,,,,,,,,,,,,,,,,,,,,,,,,,,,,,,,,,,,,,,,,,,,,,,,,,,,,,,352.44403692700143,352.45377128900145,352.6540658019949,352.6540658019949,352.6540658019949,354.3540018890053,354.3540018890053,354.33820235100575,,,,,,,,,,,,,,,,,,,,,,,,,770987,001,2024-12-05_12h24.04.412,Test,2024.2.1,59.85313715894613,2024-12-05 12h24.30.039615 +0100,
25,150,120,20,None,8,8,0,,,,,,,,,,,,,,,,0,8,8,24,,,,,354.3540018890053,,,,,,,,,,,,,,,,,,,,,,,,,,,,,,,,,,,,,,,,,,,,,,,,,,,,,,,354.3440846070007,354.3540018890053,354.5545186359959,354.5545186359959,354.5545186359959,356.25407647999236,356.25407647999236,356.23854014200333,,,,,,,,,,,,,,,,,,,,,,,,,770987,001,2024-12-05_12h24.04.412,Test,2024.2.1,59.85313715894613,2024-12-05 12h24.30.039615 +0100,
9,150,30,56,None,9,9,0,,,,,,,,,,,,,,,,0,9,9,8,,,,,356.25407647999236,,,,,,,,,,,,,,,,,,,,,,,,,,,,,,,,,,,,,,,,,,,,,,,,,,,,,,,356.24462041399966,356.25407647999236,356.4542528689926,356.4542528689926,356.4542528689926,358.1544453289971,358.1544453289971,358.1386076869967,,,,,,,,,,,,,,,,,,,,,,,,,770987,001,2024-12-05_12h24.04.412,Test,2024.2.1,59.85313715894613,2024-12-05 12h24.30.039615 +0100,
16,150,90,50,None,10,10,0,,,,,,,,,,,,,,,,0,10,10,15,,,,,358.1544453289971,,,,,,,,,,,,,,,,,,,,,,,,,,,,,,,,,,,,,,,,,,,,,,,,,,,,,,,358.144500178998,358.1544453289971,358.3548039890011,358.3548039890011,358.3548039890011,360.0540624080022,360.0540624080022,360.0391218529985,,,,,,,,,,,,,,,,,,,,,,,,,770987,001,2024-12-05_12h24.04.412,Test,2024.2.1,59.85313715894613,2024-12-05 12h24.30.039615 +0100,
17,150,90,64,None,11,11,0,,,,,,,,,,,,,,,,0,11,11,16,,,,,360.0540624080022,,,,,,,,,,,,,,,,,,,,,,,,,,,,,,,,,,,,,,,,,,,,,,,,,,,,,,,360.04534896300174,360.0540624080022,360.25509573999443,360.25509573999443,360.25509573999443,361.9553917699959,361.9553917699959,361.93983794300584,,,,,,,,,,,,,,,,,,,,,,,,,770987,001,2024-12-05_12h24.04.412,Test,2024.2.1,59.85313715894613,2024-12-05 12h24.30.039615 +0100,
30,150,150,55,None,12,12,0,,,,,,,,,,,,,,,,0,12,12,29,,,,,361.9553917699959,,,,,,,,,,,,,,,,,,,,,,,,,,,,,,,,,,,,,,,,,,,,,,,,,,,,,,,361.9469856630021,361.9553917699959,362.1549120309937,362.1549120309937,362.1549120309937,363.8546265009936,363.8546265009936,363.8391612830019,,,,,,,,,,,,,,,,,,,,,,,,,770987,001,2024-12-05_12h24.04.412,Test,2024.2.1,59.85313715894613,2024-12-05 12h24.30.039615 +0100,
2,150,0,28,None,13,13,0,,,,,,,,,,,,,,,,0,13,13,1,,,,,363.8546265009936,,,,,,,,,,,,,,,,,,,,,,,,,,,,,,,,,,,,,,,,,,,,,,,,,,,,,,,363.84684731499874,363.8546265009936,364.05512212500616,364.05512212500616,364.05512212500616,365.7549385720049,365.7549385720049,365.7417772170011,,,,,,,,,,,,,,,,,,,,,,,,,770987,001,2024-12-05_12h24.04.412,Test,2024.2.1,59.85313715894613,2024-12-05 12h24.30.039615 +0100,
31,150,180,53,None,14,14,0,,,,,,,,,,,,,,,,0,14,14,30,,,,,365.7549385720049,,,,,,,,,,,,,,,,,,,,,,,,,,,,,,,,,,,,,,,,,,,,,,,,,,,,,,,365.7471871339949,365.7549385720049,365.95538912099437,365.95538912099437,365.95538912099437,367.65489412800525,367.65489412800525,367.63967944899923,,,,,,,,,,,,,,,,,,,,,,,,,770987,001,2024-12-05_12h24.04.412,Test,2024.2.1,59.85313715894613,2024-12-05 12h24.30.039615 +0100,
4,150,0,7,None,15,15,0,,,,,,,,,,,,,,,,0,15,15,3,,,,,367.65489412800525,,,,,,,,,,,,,,,,,,,,,,,,,,,,,,,,,,,,,,,,,,,,,,,,,,,,,,,367.6454562430008,367.65489412800525,367.8545306879969,367.8545306879969,367.8545306879969,369.5578229209932,369.5578229209932,369.5406797839969,,,,,,,,,,,,,,,,,,,,,,,,,770987,001,2024-12-05_12h24.04.412,Test,2024.2.1,59.85313715894613,2024-12-05 12h24.30.039615 +0100,
29,150,150,12,None,16,16,0,,,,,,,,,,,,,,,,0,16,16,28,,,,,369.5578229209932,,,,,,,,,,,,,,,,,,,,,,,,,,,,,,,,,,,,,,,,,,,,,,,,,,,,,,,369.55029205800383,369.5578229209932,369.7547881589999,369.7547881589999,369.771840425994,371.45556057100475,371.45556057100475,371.4396158460004,,,,,,,,,,,,,,,,,,,,,,,,,770987,001,2024-12-05_12h24.04.412,Test,2024.2.1,59.85313715894613,2024-12-05 12h24.30.039615 +0100,
3,150,0,46,None,17,17,0,,,,,,,,,,,,,,,,0,17,17,2,,,,,371.45556057100475,,,,,,,,,,,,,,,,,,,,,,,,,,,,,,,,,,,,,,,,,,,,,,,,,,,,,,,371.4456223159941,371.45556057100475,371.6557154059992,371.6557154059992,371.6557154059992,373.35542323900154,373.35542323900154,373.34037543500017,,,,,,,,,,,,,,,,,,,,,,,,,770987,001,2024-12-05_12h24.04.412,Test,2024.2.1,59.85313715894613,2024-12-05 12h24.30.039615 +0100,
18,150,90,63,None,18,18,0,,,,,,,,,,,,,,,,0,18,18,17,,,,,373.35542323900154,,,,,,,,,,,,,,,,,,,,,,,,,,,,,,,,,,,,,,,,,,,,,,,,,,,,,,,373.34603254699323,373.35542323900154,373.55591638199985,373.55591638199985,373.55591638199985,375.25531316100387,375.25531316100387,375.24009861200466,,,,,,,,,,,,,,,,,,,,,,,,,770987,001,2024-12-05_12h24.04.412,Test,2024.2.1,59.85313715894613,2024-12-05 12h24.30.039615 +0100,
5,150,0,4,None,19,19,0,,,,,,,,,,,,,,,,0,19,19,4,,,,,375.25531316100387,,,,,,,,,,,,,,,,,,,,,,,,,,,,,,,,,,,,,,,,,,,,,,,,,,,,,,,375.24608493399865,375.25531316100387,375.45568813699356,375.45568813699356,375.45568813699356,377.1561017979984,377.1561017979984,377.1403834380035,,,,,,,,,,,,,,,,,,,,,,,,,770987,001,2024-12-05_12h24.04.412,Test,2024.2.1,59.85313715894613,2024-12-05 12h24.30.039615 +0100,
20,150,90,9,None,20,20,0,,,,,,,,,,,,,,,,0,20,20,19,,,,,377.1561017979984,,,,,,,,,,,,,,,,,,,,,,,,,,,,,,,,,,,,,,,,,,,,,,,,,,,,,,,377.14637989799667,377.1561017979984,377.3558403969946,377.3558403969946,377.3558403969946,379.0555288750038,379.0555288750038,379.0406674279948,,,,,,,,,,,,,,,,,,,,,,,,,770987,001,2024-12-05_12h24.04.412,Test,2024.2.1,59.85313715894613,2024-12-05 12h24.30.039615 +0100,
32,150,180,45,None,21,21,0,,,,,,,,,,,,,,,,0,21,21,31,,,,,379.0555288750038,,,,,,,,,,,,,,,,,,,,,,,,,,,,,,,,,,,,,,,,,,,,,,,,,,,,,,,379.0470419990015,379.0555288750038,379.2557517480018,379.2557517480018,379.2557517480018,380.95616279800015,380.95616279800015,380.93999286000326,,,,,,,,,,,,,,,,,,,,,,,,,770987,001,2024-12-05_12h24.04.412,Test,2024.2.1,59.85313715894613,2024-12-05 12h24.30.039615 +0100,
21,150,120,11,None,22,22,0,,,,,,,,,,,,,,,,0,22,22,20,,,,,380.95616279800015,,,,,,,,,,,,,,,,,,,,,,,,,,,,,,,,,,,,,,,,,,,,,,,,,,,,,,,380.94711407099385,380.95616279800015,381.15587990799395,381.15587990799395,381.15587990799395,382.85552935999294,382.85552935999294,382.8403548399947,,,,,,,,,,,,,,,,,,,,,,,,,770987,001,2024-12-05_12h24.04.412,Test,2024.2.1,59.85313715894613,2024-12-05 12h24.30.039615 +0100,
22,150,120,65,None,23,23,0,,,,,,,,,,,,,,,,0,23,23,21,,,,,382.85552935999294,,,,,,,,,,,,,,,,,,,,,,,,,,,,,,,,,,,,,,,,,,,,,,,,,,,,,,,382.8473781969951,382.85552935999294,383.0562306310021,383.0562306310021,383.0562306310021,384.7558862709993,384.7558862709993,384.7409064139938,,,,,,,,,,,,,,,,,,,,,,,,,770987,001,2024-12-05_12h24.04.412,Test,2024.2.1,59.85313715894613,2024-12-05 12h24.30.039615 +0100,
26,150,150,23,None,24,24,0,,,,,,,,,,,,,,,,0,24,24,25,,,,,384.7558862709993,,,,,,,,,,,,,,,,,,,,,,,,,,,,,,,,,,,,,,,,,,,,,,,,,,,,,,,384.74708736600587,384.7558862709993,384.9568310829927,384.9568310829927,384.9568310829927,386.6560420850001,386.6560420850001,386.64033664799354,,,,,,,,,,,,,,,,,,,,,,,,,770987,001,2024-12-05_12h24.04.412,Test,2024.2.1,59.85313715894613,2024-12-05 12h24.30.039615 +0100,
19,150,90,6,None,25,25,0,,,,,,,,,,,,,,,,0,25,25,18,,,,,386.6560420850001,,,,,,,,,,,,,,,,,,,,,,,,,,,,,,,,,,,,,,,,,,,,,,,,,,,,,,,386.64568996199523,386.6560420850001,386.85683223299566,386.85683223299566,386.85683223299566,388.55607626099663,388.55607626099663,388.5404558540031,,,,,,,,,,,,,,,,,,,,,,,,,770987,001,2024-12-05_12h24.04.412,Test,2024.2.1,59.85313715894613,2024-12-05 12h24.30.039615 +0100,
34,150,180,18,None,26,26,0,,,,,,,,,,,,,,,,0,26,26,33,,,,,388.55607626099663,,,,,,,,,,,,,,,,,,,,,,,,,,,,,,,,,,,,,,,,,,,,,,,,,,,,,,,388.5471614370035,388.55607626099663,388.7570005279995,388.7570005279995,388.7570005279995,390.45684100099606,390.45684100099606,390.44100206400617,,,,,,,,,,,,,,,,,,,,,,,,,770987,001,2024-12-05_12h24.04.412,Test,2024.2.1,59.85313715894613,2024-12-05 12h24.30.039615 +0100,
10,150,30,24,None,27,27,0,,,,,,,,,,,,,,,,0,27,27,9,,,,,390.45684100099606,,,,,,,,,,,,,,,,,,,,,,,,,,,,,,,,,,,,,,,,,,,,,,,,,,,,,,,390.44718207299593,390.45684100099606,390.65715186600573,390.65715186600573,390.65715186600573,392.36030438699527,392.36030438699527,392.3421630579978,,,,,,,,,,,,,,,,,,,,,,,,,770987,001,2024-12-05_12h24.04.412,Test,2024.2.1,59.85313715894613,2024-12-05 12h24.30.039615 +0100,
14,150,60,27,None,28,28,0,,,,,,,,,,,,,,,,0,28,28,13,,,,,392.36030438699527,,,,,,,,,,,,,,,,,,,,,,,,,,,,,,,,,,,,,,,,,,,,,,,,,,,,,,,392.35223929000495,392.36030438699527,392.5576944380009,392.5576944380009,392.5739121039951,394.2571233570052,394.2571233570052,394.24093035999977,,,,,,,,,,,,,,,,,,,,,,,,,770987,001,2024-12-05_12h24.04.412,Test,2024.2.1,59.85313715894613,2024-12-05 12h24.30.039615 +0100,
33,150,180,47,None,29,29,0,,,,,,,,,,,,,,,,0,29,29,32,,,,,394.2571233570052,,,,,,,,,,,,,,,,,,,,,,,,,,,,,,,,,,,,,,,,,,,,,,,,,,,,,,,394.24608187899867,394.2571233570052,394.457126067995,394.457126067995,394.457126067995,396.1571662100032,396.1571662100032,396.1409760999959,,,,,,,,,,,,,,,,,,,,,,,,,770987,001,2024-12-05_12h24.04.412,Test,2024.2.1,59.85313715894613,2024-12-05 12h24.30.039615 +0100,
1,150,0,8,None,30,30,0,,,,,,,,,,,,,,,,0,30,30,0,,,,,396.1571662100032,,,,,,,,,,,,,,,,,,,,,,,,,,,,,,,,,,,,,,,,,,,,,,,,,,,,,,,396.147082897005,396.1571662100032,396.3574688929948,396.3574688929948,396.3574688929948,398.05683180800406,398.05683180800406,398.04138228499505,,,,,,,,,,,,,,,,,,,,,,,,,770987,001,2024-12-05_12h24.04.412,Test,2024.2.1,59.85313715894613,2024-12-05 12h24.30.039615 +0100,
28,150,150,43,None,31,31,0,,,,,,,,,,,,,,,,0,31,31,27,,,,,398.05683180800406,,,,,,,,,,,,,,,,,,,,,,,,,,,,,,,,,,,,,,,,,,,,,,,,,,,,,,,398.0476924429968,398.05683180800406,398.2576270749996,398.2576270749996,398.2576270749996,399.9571854550013,399.9571854550013,399.94057855599385,,,,,,,,,,,,,,,,,,,,,,,,,770987,001,2024-12-05_12h24.04.412,Test,2024.2.1,59.85313715894613,2024-12-05 12h24.30.039615 +0100,
11,150,60,34,None,32,32,0,,,,,,,,,,,,,,,,0,32,32,10,,,,,399.9571854550013,,,,,,,,,,,,,,,,,,,,,,,,,,,,,,,,,,,,,,,,,,,,,,,,,,,,,,,399.94604963199527,399.9571854550013,400.1573736760038,400.1573736760038,400.1573736760038,401.85765604399785,401.85765604399785,401.8418852360046,,,,,,,,,,,,,,,,,,,,,,,,,770987,001,2024-12-05_12h24.04.412,Test,2024.2.1,59.85313715894613,2024-12-05 12h24.30.039615 +0100,
7,150,30,22,None,33,33,0,,,,,,,,,,,,,,,,0,33,33,6,,,,,401.85765604399785,,,,,,,,,,,,,,,,,,,,,,,,,,,,,,,,,,,,,,,,,,,,,,,,,,,,,,,401.8480450259958,401.85765604399785,402.05759239799227,402.05759239799227,402.05759239799227,403.75790635299927,403.75790635299927,403.7414154459984,,,,,,,,,,,,,,,,,,,,,,,,,770987,001,2024-12-05_12h24.04.412,Test,2024.2.1,59.85313715894613,2024-12-05 12h24.30.039615 +0100,
15,150,60,17,None,34,34,0,,,,,,,,,,,,,,,,0,34,34,14,,,,,403.75790635299927,,,,,,,,,,,,,,,,,,,,,,,,,,,,,,,,,,,,,,,,,,,,,,,,,,,,,,,403.7471061020042,403.75790635299927,403.95810362600605,403.95810362600605,403.95810362600605,405.6591283019952,405.6591283019952,405.64316740499635,,,,,,,,,,,,,,,,,,,,,,,,,770987,001,2024-12-05_12h24.04.412,Test,2024.2.1,59.85313715894613,2024-12-05 12h24.30.039615 +0100,
,,,,,,,,,,,,,,,,,,,,,,,,,,,,,,,,,,,,,,,,,,,,,,,,,,,,,,,,,,,,,,,,,,,,,,,,,,,,,,,,,,,,,,,,,,,,,,405.64338779399986,405.6591283019952,405.6591283019952,411.7595467189967,space,6.088415874997736,None,,,,,,,,,,,,,,,,,,770987,001,2024-12-05_12h24.04.412,Test,2024.2.1,59.85313715894613,2024-12-05 12h24.30.039615 +0100,
64,150,150,70,None,0,0,0,True,,,,left,0.8055932139977813,None,,,,,,,,,,,,,0,0,0,0,411.784474857006,,,,,,,,,,,,,,,,,,,,,,,,,,,,,,,,,,,,,,,,,,,,,,,,,,,,,,,,,,,,,,,,,,,,,,411.7759644799953,411.784474857006,412.79124299999967,413.77439383699675,413.77439383699675,413.77439383699675,414.59373957299977,left,0.8055932139977813,None,,,,,,,,770987,001,2024-12-05_12h24.04.412,Test,2024.2.1,59.85313715894613,2024-12-05 12h24.30.039615 +0100,
11,150,60,34,None,1,1,0,False,,,,right,0.6491627880022861,None,,,,,,,,,,,,,0,1,1,1,414.60886434199347,,,,,,,,,,,,,,,,,,,,,,,,,,,,,,,,,,,,,,,,,,,,,,,,,,,,,,,,,,,,,,,,,,,,,,414.59974534799403,414.60886434199347,415.6088330880011,416.609605849997,416.609605849997,416.609605849997,417.2612163349986,right,0.6491627880022861,None,,,,,,,,770987,001,2024-12-05_12h24.04.412,Test,2024.2.1,59.85313715894613,2024-12-05 12h24.30.039615 +0100,
1,150,0,8,None,2,2,0,False,,,,right,0.5138470130041242,None,,,,,,,,,,,,,0,2,2,2,417.27714819800167,,,,,,,,,,,,,,,,,,,,,,,,,,,,,,,,,,,,,,,,,,,,,,,,,,,,,,,,,,,,,,,,,,,,,,417.2680124680046,417.27714819800167,418.29194356300286,419.27531314500084,419.27531314500084,419.27531314500084,419.79403619200457,right,0.5138470130041242,None,,,,,,,,770987,001,2024-12-05_12h24.04.412,Test,2024.2.1,59.85313715894613,2024-12-05 12h24.30.039615 +0100,
32,150,180,45,None,3,3,0,False,,,,right,0.7440298620058456,None,,,,,,,,,,,,,0,3,3,3,419.80962191299477,,,,,,,,,,,,,,,,,,,,,,,,,,,,,,,,,,,,,,,,,,,,,,,,,,,,,,,,,,,,,,,,,,,,,,419.8003105730022,419.80962191299477,420.8093707579974,421.80891465299646,421.80891465299646,421.80891465299646,422.56048881799506,right,0.7440298620058456,None,,,,,,,,770987,001,2024-12-05_12h24.04.412,Test,2024.2.1,59.85313715894613,2024-12-05 12h24.30.039615 +0100,
30,150,150,55,None,4,4,0,False,,,,right,0.8600379779963987,None,,,,,,,,,,,,,0,4,4,4,422.5756766900013,,,,,,,,,,,,,,,,,,,,,,,,,,,,,,,,,,,,,,,,,,,,,,,,,,,,,,,,,,,,,,,,,,,,,,422.56655177200446,422.5756766900013,423.5757639069925,424.5583874360018,424.5583874360018,424.5583874360018,425.42766955100524,right,0.8600379779963987,None,,,,,,,,770987,001,2024-12-05_12h24.04.412,Test,2024.2.1,59.85313715894613,2024-12-05 12h24.30.039615 +0100,
68,150,180,42,None,5,5,0,True,,,,left,0.6095002329966519,None,,,,,,,,,,,,,0,5,5,5,425.44311273399217,,,,,,,,,,,,,,,,,,,,,,,,,,,,,,,,,,,,,,,,,,,,,,,,,,,,,,,,,,,,,,,,,,,,,,425.4333352459944,425.44311273399217,426.44258929099306,427.442516643001,427.442516643001,427.442516643001,428.0610486719961,left,0.6095002329966519,None,,,,,,,,770987,001,2024-12-05_12h24.04.412,Test,2024.2.1,59.85313715894613,2024-12-05 12h24.30.039615 +0100,
60,150,120,52,None,6,6,0,True,,,,left,0.6353803259989945,None,,,,,,,,,,,,,0,6,6,6,428.0764449739945,,,,,,,,,,,,,,,,,,,,,,,,,,,,,,,,,,,,,,,,,,,,,,,,,,,,,,,,,,,,,,,,,,,,,,428.0669601539994,428.0764449739945,429.07638749000034,430.07589461500174,430.07589461500174,430.07589461500174,430.7283266489976,left,0.6353803259989945,None,,,,,,,,770987,001,2024-12-05_12h24.04.412,Test,2024.2.1,59.85313715894613,2024-12-05 12h24.30.039615 +0100,
10,150,30,24,None,7,7,0,False,,,,right,0.6781454680021852,None,,,,,,,,,,,,,0,7,7,7,430.74350880799466,,,,,,,,,,,,,,,,,,,,,,,,,,,,,,,,,,,,,,,,,,,,,,,,,,,,,,,,,,,,,,,,,,,,,,430.7341047049995,430.74350880799466,431.74289055999543,432.74291174499376,432.74291174499376,432.74291174499376,433.428036162004,right,0.6781454680021852,None,,,,,,,,770987,001,2024-12-05_12h24.04.412,Test,2024.2.1,59.85313715894613,2024-12-05 12h24.30.039615 +0100,
54,150,90,66,None,8,8,0,True,,,,left,0.6781130570016103,None,,,,,,,,,,,,,0,8,8,8,433.4427228929999,,,,,,,,,,,,,,,,,,,,,,,,,,,,,,,,,,,,,,,,,,,,,,,,,,,,,,,,,,,,,,,,,,,,,,433.4336766089982,433.4427228929999,434.4431672189967,435.4431911110005,435.4431911110005,435.4431911110005,436.1287163569941,left,0.6781130570016103,None,,,,,,,,770987,001,2024-12-05_12h24.04.412,Test,2024.2.1,59.85313715894613,2024-12-05 12h24.30.039615 +0100,
45,150,30,69,None,9,9,0,True,,,,left,0.7927265530015575,None,,,,,,,,,,,,,0,9,9,9,436.1437655159971,,,,,,,,,,,,,,,,,,,,,,,,,,,,,,,,,,,,,,,,,,,,,,,,,,,,,,,,,,,,,,,,,,,,,,436.1342976339947,436.1437655159971,437.1447180069954,438.143629091006,438.143629091006,438.143629091006,438.9452469370008,left,0.7927265530015575,None,,,,,,,,770987,001,2024-12-05_12h24.04.412,Test,2024.2.1,59.85313715894613,2024-12-05 12h24.30.039615 +0100,
52,150,90,15,None,10,10,0,True,,,,right,0.718258662003791,None,,,,,,,,,,,,,0,10,10,10,438.9621124260011,,,,,,,,,,,,,,,,,,,,,,,,,,,,,,,,,,,,,,,,,,,,,,,,,,,,,,,,,,,,,,,,,,,,,,438.9528203840018,438.9621124260011,439.97718020099273,440.94432784899254,440.94432784899254,440.94432784899254,441.6783513279952,right,0.718258662003791,None,,,,,,,,770987,001,2024-12-05_12h24.04.412,Test,2024.2.1,59.85313715894613,2024-12-05 12h24.30.039615 +0100,
47,150,60,68,None,11,11,0,True,,,,right,1.3676757799985353,None,,,,,,,,,,,,,0,11,11,11,441.69390352199844,,,,,,,,,,,,,,,,,,,,,,,,,,,,,,,,,,,,,,,,,,,,,,,,,,,,,,,,,,,,,,,,,,,,,,441.68395855599374,441.69390352199844,442.69368193099217,443.69393371899787,443.69393371899787,443.69393371899787,445.0797959519987,right,1.3676757799985353,None,,,,,,,,770987,001,2024-12-05_12h24.04.412,Test,2024.2.1,59.85313715894613,2024-12-05 12h24.30.039615 +0100,
57,150,120,2,None,12,12,0,True,,,,right,0.6257729920034762,None,,,,,,,,,,,,,0,12,12,12,445.0948384850053,,,,,,,,,,,,,,,,,,,,,,,,,,,,,,,,,,,,,,,,,,,,,,,,,,,,,,,,,,,,,,,,,,,,,,445.08589965499414,445.0948384850053,446.0947084520012,447.0938899710018,447.0938899710018,447.0938899710018,447.7286478699971,right,0.6257729920034762,None,,,,,,,,770987,001,2024-12-05_12h24.04.412,Test,2024.2.1,59.85313715894613,2024-12-05 12h24.30.039615 +0100,
26,150,150,23,None,13,13,0,False,,,,right,0.7165045589936199,None,,,,,,,,,,,,,0,13,13,13,447.7445055989956,,,,,,,,,,,,,,,,,,,,,,,,,,,,,,,,,,,,,,,,,,,,,,,,,,,,,,,,,,,,,,,,,,,,,,447.73445732299297,447.7445055989956,448.74423282500356,449.72739145999367,449.72739145999367,449.72739145999367,450.44663715700153,right,0.7165045589936199,None,,,,,,,,770987,001,2024-12-05_12h24.04.412,Test,2024.2.1,59.85313715894613,2024-12-05 12h24.30.039615 +0100,
55,150,90,25,None,14,14,0,True,,,,left,1.0003883180033881,None,,,,,,,,,,,,,0,14,14,14,450.46390369599976,,,,,,,,,,,,,,,,,,,,,,,,,,,,,,,,,,,,,,,,,,,,,,,,,,,,,,,,,,,,,,,,,,,,,,450.4532318569982,450.46390369599976,451.478115513004,452.4615926980041,452.4615926980041,452.4615926980041,453.47872570800246,left,1.0003883180033881,None,,,,,,,,770987,001,2024-12-05_12h24.04.412,Test,2024.2.1,59.85313715894613,2024-12-05 12h24.30.039615 +0100,
39,150,0,59,None,15,15,0,True,,,,left,0.9427563909994205,None,,,,,,,,,,,,,0,15,15,15,453.4945046799985,,,,,,,,,,,,,,,,,,,,,,,,,,,,,,,,,,,,,,,,,,,,,,,,,,,,,,,,,,,,,,,,,,,,,,453.485121360005,453.4945046799985,454.49490463599795,455.47775429800095,455.47775429800095,455.47775429800095,456.4311292229977,left,0.9427563909994205,None,,,,,,,,770987,001,2024-12-05_12h24.04.412,Test,2024.2.1,59.85313715894613,2024-12-05 12h24.30.039615 +0100,
35,150,180,32,None,16,16,0,False,,,,right,0.9329819429985946,None,,,,,,,,,,,,,0,16,16,16,456.4461580240022,,,,,,,,,,,,,,,,,,,,,,,,,,,,,,,,,,,,,,,,,,,,,,,,,,,,,,,,,,,,,,,,,,,,,,456.4372413579986,456.4461580240022,457.46171444399806,458.44509610399837,458.44509610399837,458.44509610399837,459.38089023399516,right,0.9329819429985946,None,,,,,,,,770987,001,2024-12-05_12h24.04.412,Test,2024.2.1,59.85313715894613,2024-12-05 12h24.30.039615 +0100,
13,150,60,49,None,17,17,0,False,,,,right,0.7337459389964351,None,,,,,,,,,,,,,0,17,17,17,459.39765558099316,,,,,,,,,,,,,,,,,,,,,,,,,,,,,,,,,,,,,,,,,,,,,,,,,,,,,,,,,,,,,,,,,,,,,,459.3882382540032,459.39765558099316,460.41187633099617,461.3954175020044,461.3954175020044,461.3954175020044,462.1313363609952,right,0.7337459389964351,None,,,,,,,,770987,001,2024-12-05_12h24.04.412,Test,2024.2.1,59.85313715894613,2024-12-05 12h24.30.039615 +0100,
28,150,150,43,None,18,18,0,False,,,,right,0.8235967500077095,None,,,,,,,,,,,,,0,18,18,18,462.1465998670028,,,,,,,,,,,,,,,,,,,,,,,,,,,,,,,,,,,,,,,,,,,,,,,,,,,,,,,,,,,,,,,,,,,,,,462.1373506259988,462.1465998670028,463.1463260330056,464.1465578780044,464.1465578780044,464.1465578780044,464.97979005699744,right,0.8235967500077095,None,,,,,,,,770987,001,2024-12-05_12h24.04.412,Test,2024.2.1,59.85313715894613,2024-12-05 12h24.30.039615 +0100,
37,150,0,31,None,19,19,0,True,,,,left,0.8277653859986458,None,,,,,,,,,,,,,0,19,19,19,464.99490538900136,,,,,,,,,,,,,,,,,,,,,,,,,,,,,,,,,,,,,,,,,,,,,,,,,,,,,,,,,,,,,,,,,,,,,,464.98572011500073,464.99490538900136,465.99545459200453,466.9794972899981,466.9794972899981,466.9794972899981,467.816407448001,left,0.8277653859986458,None,,,,,,,,770987,001,2024-12-05_12h24.04.412,Test,2024.2.1,59.85313715894613,2024-12-05 12h24.30.039615 +0100,
49,150,60,1,None,20,20,0,True,,,,left,0.8558653259970015,None,,,,,,,,,,,,,0,20,20,20,467.831649810003,,,,,,,,,,,,,,,,,,,,,,,,,,,,,,,,,,,,,,,,,,,,,,,,,,,,,,,,,,,,,,,,,,,,,,467.8224856869929,467.831649810003,468.8453787979961,469.82947309799783,469.82947309799783,469.82947309799783,470.6969607719948,left,0.8558653259970015,None,,,,,,,,770987,001,2024-12-05_12h24.04.412,Test,2024.2.1,59.85313715894613,2024-12-05 12h24.30.039615 +0100,
18,150,90,63,None,21,21,0,False,,,,left,0.9205222599994158,None,,,,,,,,,,,,,0,21,21,21,470.7118689259951,,,,,,,,,,,,,,,,,,,,,,,,,,,,,,,,,,,,,,,,,,,,,,,,,,,,,,,,,,,,,,,,,,,,,,470.70218467499944,470.7118689259951,471.7125221360038,472.6967484699999,472.6967484699999,472.6967484699999,473.63049549200514,left,0.9205222599994158,None,,,,,,,,770987,001,2024-12-05_12h24.04.412,Test,2024.2.1,59.85313715894613,2024-12-05 12h24.30.039615 +0100,
22,150,120,65,None,22,22,0,False,,,,right,0.8011368169973139,None,,,,,,,,,,,,,0,22,22,22,473.6469469690055,,,,,,,,,,,,,,,,,,,,,,,,,,,,,,,,,,,,,,,,,,,,,,,,,,,,,,,,,,,,,,,,,,,,,,473.6379234109918,473.6469469690055,474.64733979900484,475.629774179004,475.629774179004,475.629774179004,476.4480307030026,right,0.8011368169973139,None,,,,,,,,770987,001,2024-12-05_12h24.04.412,Test,2024.2.1,59.85313715894613,2024-12-05 12h24.30.039615 +0100,
31,150,180,53,None,23,23,0,False,,,,right,0.8730399999913061,None,,,,,,,,,,,,,0,23,23,23,476.4635144079948,,,,,,,,,,,,,,,,,,,,,,,,,,,,,,,,,,,,,,,,,,,,,,,,,,,,,,,,,,,,,,,,,,,,,,476.4540552309918,476.4635144079948,477.4632818300015,478.4628476229991,478.4628476229991,478.4628476229991,479.34840980599984,right,0.8730399999913061,None,,,,,,,,770987,001,2024-12-05_12h24.04.412,Test,2024.2.1,59.85313715894613,2024-12-05 12h24.30.039615 +0100,
63,150,150,30,None,24,24,0,True,,,,left,1.254242916998919,None,,,,,,,,,,,,,0,24,24,24,479.36371058100485,,,,,,,,,,,,,,,,,,,,,,,,,,,,,,,,,,,,,,,,,,,,,,,,,,,,,,,,,,,,,,,,,,,,,,479.35447755700443,479.36371058100485,480.378940057999,481.362717697004,481.362717697004,481.362717697004,482.63607576199865,left,1.254242916998919,None,,,,,,,,770987,001,2024-12-05_12h24.04.412,Test,2024.2.1,59.85313715894613,2024-12-05 12h24.30.039615 +0100,
56,150,120,67,None,25,25,0,True,,,,left,0.831679934010026,None,,,,,,,,,,,,,0,25,25,25,482.65311344400106,,,,,,,,,,,,,,,,,,,,,,,,,,,,,,,,,,,,,,,,,,,,,,,,,,,,,,,,,,,,,,,,,,,,,,482.6414992749924,482.65311344400106,483.6625225320022,484.6462894099968,484.6462894099968,484.6462894099968,485.4821675150015,left,0.831679934010026,None,,,,,,,,770987,001,2024-12-05_12h24.04.412,Test,2024.2.1,59.85313715894613,2024-12-05 12h24.30.039615 +0100,
53,150,90,14,None,26,26,0,True,,,,right,0.6427918340050383,None,,,,,,,,,,,,,0,26,26,26,485.4971368370025,,,,,,,,,,,,,,,,,,,,,,,,,,,,,,,,,,,,,,,,,,,,,,,,,,,,,,,,,,,,,,,,,,,,,,485.4883802359982,485.4971368370025,486.4966479470022,487.49689840000065,487.49689840000065,487.49689840000065,488.15061316300125,right,0.6427918340050383,None,,,,,,,,770987,001,2024-12-05_12h24.04.412,Test,2024.2.1,59.85313715894613,2024-12-05 12h24.30.039615 +0100,
17,150,90,64,None,27,27,0,False,,,,right,0.793445856004837,None,,,,,,,,,,,,,0,27,27,27,488.1658452410047,,,,,,,,,,,,,,,,,,,,,,,,,,,,,,,,,,,,,,,,,,,,,,,,,,,,,,,,,,,,,,,,,,,,,,488.1561806880054,488.1658452410047,489.1805243349954,490.1638569289935,490.1638569289935,490.1638569289935,490.9655182669958,right,0.793445856004837,None,,,,,,,,770987,001,2024-12-05_12h24.04.412,Test,2024.2.1,59.85313715894613,2024-12-05 12h24.30.039615 +0100,
50,150,60,38,None,28,28,0,True,,,,left,0.6649829719972331,None,,,,,,,,,,,,,0,28,28,28,490.9805268909986,,,,,,,,,,,,,,,,,,,,,,,,,,,,,,,,,,,,,,,,,,,,,,,,,,,,,,,,,,,,,,,,,,,,,,490.9715418220003,490.9805268909986,491.98053664799954,492.98071415899904,492.98071415899904,492.98071415899904,493.6499722599983,left,0.6649829719972331,None,,,,,,,,770987,001,2024-12-05_12h24.04.412,Test,2024.2.1,59.85313715894613,2024-12-05 12h24.30.039615 +0100,
38,150,0,13,None,29,29,0,True,,,,left,0.6634683549928013,None,,,,,,,,,,,,,0,29,29,29,493.66427783899417,,,,,,,,,,,,,,,,,,,,,,,,,,,,,,,,,,,,,,,,,,,,,,,,,,,,,,,,,,,,,,,,,,,,,,493.65572119900025,493.66427783899417,494.6639168719994,495.6644483389973,495.6644483389973,495.6644483389973,496.3327789220057,left,0.6634683549928013,None,,,,,,,,770987,001,2024-12-05_12h24.04.412,Test,2024.2.1,59.85313715894613,2024-12-05 12h24.30.039615 +0100,
15,150,60,17,None,30,30,0,False,,,,right,0.741690427006688,None,,,,,,,,,,,,,0,30,30,30,496.34790532699844,,,,,,,,,,,,,,,,,,,,,,,,,,,,,,,,,,,,,,,,,,,,,,,,,,,,,,,,,,,,,,,,,,,,,,496.3380385199998,496.34790532699844,497.3476999389968,498.3473976499954,498.3473976499954,498.3473976499954,499.0997741790052,right,0.741690427006688,None,,,,,,,,770987,001,2024-12-05_12h24.04.412,Test,2024.2.1,59.85313715894613,2024-12-05 12h24.30.039615 +0100,
40,150,0,41,None,31,31,0,True,,,,left,0.7228049219993409,None,,,,,,,,,,,,,0,31,31,31,499.115997764995,,,,,,,,,,,,,,,,,,,,,,,,,,,,,,,,,,,,,,,,,,,,,,,,,,,,,,,,,,,,,,,,,,,,,,499.10682188499777,499.115997764995,500.1309483990044,501.11431253400224,501.11431253400224,501.11431253400224,501.8491932619945,left,0.7228049219993409,None,,,,,,,,770987,001,2024-12-05_12h24.04.412,Test,2024.2.1,59.85313715894613,2024-12-05 12h24.30.039615 +0100,
42,150,30,5,None,32,32,0,True,,,,left,0.9226473340095254,None,,,,,,,,,,,,,0,32,32,32,501.86430080900027,,,,,,,,,,,,,,,,,,,,,,,,,,,,,,,,,,,,,,,,,,,,,,,,,,,,,,,,,,,,,,,,,,,,,,501.8551360660058,501.86430080900027,502.8645079429989,503.8646359669947,503.8646359669947,503.8646359669947,504.7999605799996,left,0.9226473340095254,None,,,,,,,,770987,001,2024-12-05_12h24.04.412,Test,2024.2.1,59.85313715894613,2024-12-05 12h24.30.039615 +0100,
48,150,60,57,None,33,33,0,True,,,,right,1.0992903279984603,None,,,,,,,,,,,,,0,33,33,33,504.81566694000503,,,,,,,,,,,,,,,,,,,,,,,,,,,,,,,,,,,,,,,,,,,,,,,,,,,,,,,,,,,,,,,,,,,,,,504.80603910000355,504.81566694000503,505.831532117998,506.81465316799586,506.81465316799586,506.81465316799586,507.917514752,right,1.0992903279984603,None,,,,,,,,770987,001,2024-12-05_12h24.04.412,Test,2024.2.1,59.85313715894613,2024-12-05 12h24.30.039615 +0100,
36,150,0,3,None,34,34,0,True,,,,left,0.8509874809969915,None,,,,,,,,,,,,,0,34,34,34,507.93183383499854,,,,,,,,,,,,,,,,,,,,,,,,,,,,,,,,,,,,,,,,,,,,,,,,,,,,,,,,,,,,,,,,,,,,,,507.9233319030027,507.93183383499854,508.9315792330017,509.931953228006,509.931953228006,509.931953228006,510.7991209769971,left,0.8509874809969915,None,,,,,,,,770987,001,2024-12-05_12h24.04.412,Test,2024.2.1,59.85313715894613,2024-12-05 12h24.30.039615 +0100,
6,150,30,54,None,35,35,0,False,,,,right,0.7207377169979736,None,,,,,,,,,,,,,0,35,35,35,510.8146208029939,,,,,,,,,,,,,,,,,,,,,,,,,,,,,,,,,,,,,,,,,,,,,,,,,,,,,,,,,,,,,,,,,,,,,,510.8048779660021,510.8146208029939,511.8152084379981,512.7985160590033,512.7985160590033,512.7985160590033,513.534526976,right,0.7207377169979736,None,,,,,,,,770987,001,2024-12-05_12h24.04.412,Test,2024.2.1,59.85313715894613,2024-12-05 12h24.30.039615 +0100,
62,150,150,36,None,36,36,0,True,,,,right,0.9844916009897133,None,,,,,,,,,,,,,0,36,36,36,513.5490799660038,,,,,,,,,,,,,,,,,,,,,,,,,,,,,,,,,,,,,,,,,,,,,,,,,,,,,,,,,,,,,,,,,,,,,,513.5404869070044,513.5490799660038,514.5489873589977,515.5490734039922,515.5490734039922,515.5490734039922,516.5503294969967,right,0.9844916009897133,None,,,,,,,,770987,001,2024-12-05_12h24.04.412,Test,2024.2.1,59.85313715894613,2024-12-05 12h24.30.039615 +0100,
29,150,150,12,None,37,37,0,False,,,,right,0.8545432660030201,None,,,,,,,,,,,,,0,37,37,37,516.5659485340002,,,,,,,,,,,,,,,,,,,,,,,,,,,,,,,,,,,,,,,,,,,,,,,,,,,,,,,,,,,,,,,,,,,,,,516.5563568090001,516.5659485340002,517.5818259619991,518.5647936460009,518.5647936460009,518.5647936460009,519.4360484950012,right,0.8545432660030201,None,,,,,,,,770987,001,2024-12-05_12h24.04.412,Test,2024.2.1,59.85313715894613,2024-12-05 12h24.30.039615 +0100,
46,150,60,48,None,38,38,0,True,,,,left,0.6890233070007525,None,,,,,,,,,,,,,0,38,38,38,519.4500061940053,,,,,,,,,,,,,,,,,,,,,,,,,,,,,,,,,,,,,,,,,,,,,,,,,,,,,,,,,,,,,,,,,,,,,,519.4413569470053,519.4500061940053,520.4661061270017,521.4490102519921,521.4490102519921,521.4490102519921,522.1503469799936,left,0.6890233070007525,None,,,,,,,,770987,001,2024-12-05_12h24.04.412,Test,2024.2.1,59.85313715894613,2024-12-05 12h24.30.039615 +0100,
65,150,150,44,None,39,39,0,True,,,,left,0.9819728250004118,None,,,,,,,,,,,,,0,39,39,39,522.1659686999919,,,,,,,,,,,,,,,,,,,,,,,,,,,,,,,,,,,,,,,,,,,,,,,,,,,,,,,,,,,,,,,,,,,,,,522.1559591889963,522.1659686999919,523.1662216379918,524.1498188179976,524.1498188179976,524.1498188179976,525.1351655710023,left,0.9819728250004118,None,,,,,,,,770987,001,2024-12-05_12h24.04.412,Test,2024.2.1,59.85313715894613,2024-12-05 12h24.30.039615 +0100,
59,150,120,58,None,40,40,0,True,,,,right,0.6736142599984305,None,,,,,,,,,,,,,0,40,40,40,525.1497928989993,,,,,,,,,,,,,,,,,,,,,,,,,,,,,,,,,,,,,,,,,,,,,,,,,,,,,,,,,,,,,,,,,,,,,,525.140908899004,525.1497928989993,526.1493947050039,527.1494839660008,527.1494839660008,527.1494839660008,527.8353868529957,right,0.6736142599984305,None,,,,,,,,770987,001,2024-12-05_12h24.04.412,Test,2024.2.1,59.85313715894613,2024-12-05 12h24.30.039615 +0100,
61,150,150,21,None,41,41,0,True,,,,left,1.0244153079984244,None,,,,,,,,,,,,,0,41,41,41,527.850708034006,,,,,,,,,,,,,,,,,,,,,,,,,,,,,,,,,,,,,,,,,,,,,,,,,,,,,,,,,,,,,,,,,,,,,,527.841342907006,527.850708034006,528.850457034001,529.8497908080026,529.8497908080026,529.8497908080026,530.884297822995,left,1.0244153079984244,None,,,,,,,,770987,001,2024-12-05_12h24.04.412,Test,2024.2.1,59.85313715894613,2024-12-05 12h24.30.039615 +0100,
44,150,30,37,None,42,42,0,True,,,,left,1.5646468240011018,None,,,,,,,,,,,,,0,42,42,42,530.899232508993,,,,,,,,,,,,,,,,,,,,,,,,,,,,,,,,,,,,,,,,,,,,,,,,,,,,,,,,,,,,,,,,,,,,,,530.8897545460059,530.899232508993,531.8994581879961,532.8997602619929,532.8997602619929,532.8997602619929,534.468694612995,left,1.5646468240011018,None,,,,,,,,770987,001,2024-12-05_12h24.04.412,Test,2024.2.1,59.85313715894613,2024-12-05 12h24.30.039615 +0100,
23,150,120,39,None,43,43,0,False,,,,right,0.7276659199997084,None,,,,,,,,,,,,,0,43,43,43,534.4828994249983,,,,,,,,,,,,,,,,,,,,,,,,,,,,,,,,,,,,,,,,,,,,,,,,,,,,,,,,,,,,,,,,,,,,,,534.4733142320038,534.4828994249983,535.4836810120032,536.4830617900006,536.4830617900006,536.4830617900006,537.2183202540036,right,0.7276659199997084,None,,,,,,,,770987,001,2024-12-05_12h24.04.412,Test,2024.2.1,59.85313715894613,2024-12-05 12h24.30.039615 +0100,
20,150,90,9,None,44,44,0,False,,,,right,1.3405958520015702,None,,,,,,,,,,,,,0,44,44,44,537.2332203249971,,,,,,,,,,,,,,,,,,,,,,,,,,,,,,,,,,,,,,,,,,,,,,,,,,,,,,,,,,,,,,,,,,,,,,537.2242266270041,537.2332203249971,538.2330277889996,539.2339128199965,539.2339128199965,539.2339128199965,540.5855684099952,right,1.3405958520015702,None,,,,,,,,770987,001,2024-12-05_12h24.04.412,Test,2024.2.1,59.85313715894613,2024-12-05 12h24.30.039615 +0100,
58,150,120,61,None,45,45,0,True,,,,right,1.3713131039985456,None,,,,,,,,,,,,,0,45,45,45,540.6037567029998,,,,,,,,,,,,,,,,,,,,,,,,,,,,,,,,,,,,,,,,,,,,,,,,,,,,,,,,,,,,,,,,,,,,,,540.5947367899935,540.6037567029998,541.6170350199973,542.6007982360024,542.6007982360024,542.6007982360024,543.9847085850051,right,1.3713131039985456,None,,,,,,,,770987,001,2024-12-05_12h24.04.412,Test,2024.2.1,59.85313715894613,2024-12-05 12h24.30.039615 +0100,
7,150,30,22,None,46,46,0,False,,,,right,0.889503833008348,None,,,,,,,,,,,,,0,46,46,46,544.0019610570016,,,,,,,,,,,,,,,,,,,,,,,,,,,,,,,,,,,,,,,,,,,,,,,,,,,,,,,,,,,,,,,,,,,,,,543.9926040300052,544.0019610570016,545.0172469509998,546.0005278659955,546.0005278659955,546.0005278659955,546.902200743003,right,0.889503833008348,None,,,,,,,,770987,001,2024-12-05_12h24.04.412,Test,2024.2.1,59.85313715894613,2024-12-05 12h24.30.039615 +0100,
27,150,150,51,None,47,47,0,False,,,,left,0.6894166359998053,None,,,,,,,,,,,,,0,47,47,47,546.9172866970039,,,,,,,,,,,,,,,,,,,,,,,,,,,,,,,,,,,,,,,,,,,,,,,,,,,,,,,,,,,,,,,,,,,,,,546.9073392190039,546.9172866970039,547.9170479169989,548.9173489550012,548.9173489550012,548.9173489550012,549.619385936996,left,0.6894166359998053,None,,,,,,,,770987,001,2024-12-05_12h24.04.412,Test,2024.2.1,59.85313715894613,2024-12-05 12h24.30.039615 +0100,
51,150,90,29,None,48,48,0,True,,,,right,0.7935219220089493,None,,,,,,,,,,,,,0,48,48,48,549.635289975995,,,,,,,,,,,,,,,,,,,,,,,,,,,,,,,,,,,,,,,,,,,,,,,,,,,,,,,,,,,,,,,,,,,,,,549.6253901299933,549.635289975995,550.6514058589964,551.6341412040056,551.6341412040056,551.6341412040056,552.435720346999,right,0.7935219220089493,None,,,,,,,,770987,001,2024-12-05_12h24.04.412,Test,2024.2.1,59.85313715894613,2024-12-05 12h24.30.039615 +0100,
9,150,30,56,None,49,49,0,False,,,,right,0.8157031379960245,None,,,,,,,,,,,,,0,49,49,49,552.4504476889997,,,,,,,,,,,,,,,,,,,,,,,,,,,,,,,,,,,,,,,,,,,,,,,,,,,,,,,,,,,,,,,,,,,,,,552.4409925369982,552.4504476889997,553.4514546849969,554.4511916500051,554.4511916500051,554.4511916500051,555.2704862200044,right,0.8157031379960245,None,,,,,,,,770987,001,2024-12-05_12h24.04.412,Test,2024.2.1,59.85313715894613,2024-12-05 12h24.30.039615 +0100,
66,150,180,35,None,50,50,0,True,,,,left,1.0308853699971223,None,,,,,,,,,,,,,0,50,50,50,555.3003990040015,,,,,,,,,,,,,,,,,,,,,,,,,,,,,,,,,,,,,,,,,,,,,,,,,,,,,,,,,,,,,,,,,,,,,,555.2772141919995,555.3003990040015,556.3014735449979,557.2847098420025,557.2847098420025,557.2847098420025,558.320720535994,left,1.0308853699971223,None,,,,,,,,770987,001,2024-12-05_12h24.04.412,Test,2024.2.1,59.85313715894613,2024-12-05 12h24.30.039615 +0100,
12,150,60,40,None,51,51,0,False,,,,left,1.8710253449971788,None,,,,,,,,,,,,,0,51,51,51,558.3352476220025,,,,,,,,,,,,,,,,,,,,,,,,,,,,,,,,,,,,,,,,,,,,,,,,,,,,,,,,,,,,,,,,,,,,,,558.3260953489953,558.3352476220025,559.334639637993,560.3346760459972,560.3346760459972,560.3346760459972,562.2192863579985,left,1.8710253449971788,None,,,,,,,,770987,001,2024-12-05_12h24.04.412,Test,2024.2.1,59.85313715894613,2024-12-05 12h24.30.039615 +0100,
67,150,180,10,None,52,52,0,True,,,,right,0.8884827139991103,None,,,,,,,,,,,,,0,52,52,52,562.2347105469962,,,,,,,,,,,,,,,,,,,,,,,,,,,,,,,,,,,,,,,,,,,,,,,,,,,,,,,,,,,,,,,,,,,,,,562.2247239879944,562.2347105469962,563.2347944229987,564.2184631169948,564.2184631169948,564.2184631169948,565.1208471629943,right,0.8884827139991103,None,,,,,,,,770987,001,2024-12-05_12h24.04.412,Test,2024.2.1,59.85313715894613,2024-12-05 12h24.30.039615 +0100,
43,150,30,16,None,53,53,0,True,,,,left,1.2981770639889874,None,,,,,,,,,,,,,0,53,53,53,565.1362032559991,,,,,,,,,,,,,,,,,,,,,,,,,,,,,,,,,,,,,,,,,,,,,,,,,,,,,,,,,,,,,,,,,,,,,,565.1270235690026,565.1362032559991,566.1364598420041,567.1358928270056,567.1358928270056,567.1358928270056,568.4381067020004,left,1.2981770639889874,None,,,,,,,,770987,001,2024-12-05_12h24.04.412,Test,2024.2.1,59.85313715894613,2024-12-05 12h24.30.039615 +0100,
8,150,30,26,None,54,54,0,False,,,,right,0.604956046998268,None,,,,,,,,,,,,,0,54,54,54,568.4529438019963,,,,,,,,,,,,,,,,,,,,,,,,,,,,,,,,,,,,,,,,,,,,,,,,,,,,,,,,,,,,,,,,,,,,,,568.4440676249942,568.4529438019963,569.4529185089923,570.4528710790037,570.4528710790037,570.4528710790037,571.0702757440013,right,0.604956046998268,None,,,,,,,,770987,001,2024-12-05_12h24.04.412,Test,2024.2.1,59.85313715894613,2024-12-05 12h24.30.039615 +0100,
5,150,0,4,None,55,55,0,False,,,,left,0.9059188469982473,None,,,,,,,,,,,,,0,55,55,55,571.0853121950058,,,,,,,,,,,,,,,,,,,,,,,,,,,,,,,,,,,,,,,,,,,,,,,,,,,,,,,,,,,,,,,,,,,,,,571.0759142780007,571.0853121950058,572.0859189689945,573.0691846690024,573.0691846690024,573.0691846690024,573.9881501170021,left,0.9059188469982473,None,,,,,,,,770987,001,2024-12-05_12h24.04.412,Test,2024.2.1,59.85313715894613,2024-12-05 12h24.30.039615 +0100,
41,150,30,62,None,56,56,0,True,,,,left,0.8808298160001868,None,,,,,,,,,,,,,0,56,56,56,574.013723615004,,,,,,,,,,,,,,,,,,,,,,,,,,,,,,,,,,,,,,,,,,,,,,,,,,,,,,,,,,,,,,,,,,,,,,574.0036887110036,574.013723615004,575.0193802430003,576.0034763309959,576.0034763309959,576.0034763309959,576.8883538039954,left,0.8808298160001868,None,,,,,,,,770987,001,2024-12-05_12h24.04.412,Test,2024.2.1,59.85313715894613,2024-12-05 12h24.30.039615 +0100,
19,150,90,6,None,57,57,0,False,,,,right,0.6143204940017313,None,,,,,,,,,,,,,0,57,57,57,576.905759361005,,,,,,,,,,,,,,,,,,,,,,,,,,,,,,,,,,,,,,,,,,,,,,,,,,,,,,,,,,,,,,,,,,,,,,576.8962770560029,576.905759361005,577.9206745109987,578.9030899130012,578.9030899130012,578.9030899130012,579.5245505280036,right,0.6143204940017313,None,,,,,,,,770987,001,2024-12-05_12h24.04.412,Test,2024.2.1,59.85313715894613,2024-12-05 12h24.30.039615 +0100,
4,150,0,7,None,58,58,0,False,,,,right,0.7730748820031295,None,,,,,,,,,,,,,0,58,58,58,579.5410695710016,,,,,,,,,,,,,,,,,,,,,,,,,,,,,,,,,,,,,,,,,,,,,,,,,,,,,,,,,,,,,,,,,,,,,,579.5335351940012,579.5410695710016,580.5535013939952,581.5360241309972,581.5360241309972,581.5360241309972,582.3210238890024,right,0.7730748820031295,None,,,,,,,,770987,001,2024-12-05_12h24.04.412,Test,2024.2.1,59.85313715894613,2024-12-05 12h24.30.039615 +0100,
33,150,180,47,None,59,59,0,False,,,,left,0.9381900499865878,None,,,,,,,,,,,,,0,59,59,59,582.3366991039948,,,,,,,,,,,,,,,,,,,,,,,,,,,,,,,,,,,,,,,,,,,,,,,,,,,,,,,,,,,,,,,,,,,,,,582.326993227005,582.3366991039948,583.336581947995,584.3207775100018,584.3207775100018,584.3207775100018,585.2724945160007,left,0.9381900499865878,None,,,,,,,,770987,001,2024-12-05_12h24.04.412,Test,2024.2.1,59.85313715894613,2024-12-05 12h24.30.039615 +0100,
69,150,180,33,None,60,60,0,True,,,,left,0.756193107998115,None,,,,,,,,,,,,,0,60,60,60,585.2873367260036,,,,,,,,,,,,,,,,,,,,,,,,,,,,,,,,,,,,,,,,,,,,,,,,,,,,,,,,,,,,,,,,,,,,,,585.2786849179975,585.2873367260036,586.2877362900035,587.2874303610006,587.2874303610006,587.2874303610006,588.0549443999917,left,0.756193107998115,None,,,,,,,,770987,001,2024-12-05_12h24.04.412,Test,2024.2.1,59.85313715894613,2024-12-05 12h24.30.039615 +0100,
70,150,180,19,None,61,61,0,True,,,,left,1.370001671006321,None,,,,,,,,,,,,,0,61,61,61,588.0706562199921,,,,,,,,,,,,,,,,,,,,,,,,,,,,,,,,,,,,,,,,,,,,,,,,,,,,,,,,,,,,,,,,,,,,,,588.0608727929939,588.0706562199921,589.0708015069977,590.0704252669966,590.0704252669966,590.0704252669966,591.4553325540037,left,1.370001671006321,None,,,,,,,,770987,001,2024-12-05_12h24.04.412,Test,2024.2.1,59.85313715894613,2024-12-05 12h24.30.039615 +0100,
21,150,120,11,None,62,62,0,False,,,,right,0.9716043129883474,None,,,,,,,,,,,,,0,62,62,62,591.4719324379985,,,,,,,,,,,,,,,,,,,,,,,,,,,,,,,,,,,,,,,,,,,,,,,,,,,,,,,,,,,,,,,,,,,,,,591.4620024070027,591.4719324379985,592.4871500120062,593.4707287450001,593.4707287450001,593.4707287450001,594.4563932750025,right,0.9716043129883474,None,,,,,,,,770987,001,2024-12-05_12h24.04.412,Test,2024.2.1,59.85313715894613,2024-12-05 12h24.30.039615 +0100,
14,150,60,27,None,63,63,0,False,,,,left,0.9812757590116234,None,,,,,,,,,,,,,0,63,63,63,594.4731960179924,,,,,,,,,,,,,,,,,,,,,,,,,,,,,,,,,,,,,,,,,,,,,,,,,,,,,,,,,,,,,,,,,,,,,,594.4637056789943,594.4731960179924,595.4874230300047,596.4720744459919,596.4720744459919,596.4720744459919,597.4567413530021,left,0.9812757590116234,None,,,,,,,,770987,001,2024-12-05_12h24.04.412,Test,2024.2.1,59.85313715894613,2024-12-05 12h24.30.039615 +0100,
24,150,120,60,None,64,64,0,False,,,,right,0.7632336399983615,None,,,,,,,,,,,,,0,64,64,64,597.4712841599976,,,,,,,,,,,,,,,,,,,,,,,,,,,,,,,,,,,,,,,,,,,,,,,,,,,,,,,,,,,,,,,,,,,,,,597.4625715949951,597.4712841599976,598.4715688290016,599.4717780109931,599.4717780109931,599.4717780109931,600.2400346929935,right,0.7632336399983615,None,,,,,,,,770987,001,2024-12-05_12h24.04.412,Test,2024.2.1,59.85313715894613,2024-12-05 12h24.30.039615 +0100,
3,150,0,46,None,65,65,0,False,,,,right,1.6358833189879078,None,,,,,,,,,,,,,0,65,65,65,600.2560400980001,,,,,,,,,,,,,,,,,,,,,,,,,,,,,,,,,,,,,,,,,,,,,,,,,,,,,,,,,,,,,,,,,,,,,,600.247271537999,600.2560400980001,601.2716295879945,602.2546008749923,602.2546008749923,602.2546008749923,603.9059908490017,right,1.6358833189879078,None,,,,,,,,770987,001,2024-12-05_12h24.04.412,Test,2024.2.1,59.85313715894613,2024-12-05 12h24.30.039615 +0100,
16,150,90,50,None,66,66,0,False,,,,right,0.8605346809927141,None,,,,,,,,,,,,,0,66,66,66,603.9213090859994,,,,,,,,,,,,,,,,,,,,,,,,,,,,,,,,,,,,,,,,,,,,,,,,,,,,,,,,,,,,,,,,,,,,,,603.9118726500019,603.9213090859994,604.9216056250007,605.9213785400061,605.9213785400061,605.9213785400061,606.7901989270031,right,0.8605346809927141,None,,,,,,,,770987,001,2024-12-05_12h24.04.412,Test,2024.2.1,59.85313715894613,2024-12-05 12h24.30.039615 +0100,
34,150,180,18,None,67,67,0,False,,,,left,1.1082356499973685,None,,,,,,,,,,,,,0,67,67,67,606.808177946994,,,,,,,,,,,,,,,,,,,,,,,,,,,,,,,,,,,,,,,,,,,,,,,,,,,,,,,,,,,,,,,,,,,,,,606.798452928997,606.808177946994,607.8215914769971,608.8056871299923,608.8056871299923,608.8056871299923,609.9232988849981,left,1.1082356499973685,None,,,,,,,,770987,001,2024-12-05_12h24.04.412,Test,2024.2.1,59.85313715894613,2024-12-05 12h24.30.039615 +0100,
25,150,120,20,None,68,68,0,False,,,,left,1.3253955599939218,None,,,,,,,,,,,,,0,68,68,68,609.9384086350037,,,,,,,,,,,,,,,,,,,,,,,,,,,,,,,,,,,,,,,,,,,,,,,,,,,,,,,,,,,,,,,,,,,,,,609.9290989190049,609.9384086350037,610.9386571350042,611.9386226329952,611.9386226329952,611.9386226329952,613.2742219899956,left,1.3253955599939218,None,,,,,,,,770987,001,2024-12-05_12h24.04.412,Test,2024.2.1,59.85313715894613,2024-12-05 12h24.30.039615 +0100,
2,150,0,28,None,69,69,0,False,,,,right,0.8095345289912075,None,,,,,,,,,,,,,0,69,69,69,613.2887993449986,,,,,,,,,,,,,,,,,,,,,,,,,,,,,,,,,,,,,,,,,,,,,,,,,,,,,,,,,,,,,,,,,,,,,,613.2801621260005,613.2887993449986,614.2888781280053,615.288941974999,615.288941974999,615.288941974999,616.1072265260009,right,0.8095345289912075,None,,,,,,,,770987,001,2024-12-05_12h24.04.412,Test,2024.2.1,59.85313715894613,2024-12-05 12h24.30.039615 +0100,
,,,,,,,,,,,,,,,,,,,,,,,,,,,,,,,,,,,,,,,,,,,,,,,,,,,,,,,,,,,,,,,,,,,,,,,,,,,,,,,,,,,,,,,,,,,,,,,,,,,,,,,,,,,,,,,616.1074364950036,616.122407664996,616.122407664996,618.257377122005,space,2.124143793989788,None,770987,001,2024-12-05_12h24.04.412,Test,2024.2.1,59.85313715894613,2024-12-05 12h24.30.039615 +0100,
