Trial_Number,Exposure_Duration,Displacement_Angle,Stimulus,Response,thisN,thisTrialN,thisRepN,Is_Distractor,key_resp_3.keys,key_resp_3.rt,key_resp_3.duration,key_resp_7.keys,key_resp_7.rt,key_resp_7.duration,trials.thisRepN,trials.thisTrialN,trials.thisN,trials.thisIndex,trials_2.thisRepN,trials_2.thisTrialN,trials_2.thisN,trials_2.thisIndex,trials_3.thisRepN,trials_3.thisTrialN,trials_3.thisN,trials_3.thisIndex,trials_4.thisRepN,trials_4.thisTrialN,trials_4.thisN,trials_4.thisIndex,thisRow.t,notes,Intro_to_experiment.started,important1_2.started,key_resp_8.started,Intro_to_experiment.stopped,key_resp_8.keys,key_resp_8.rt,key_resp_8.duration,important.started,important1.started,key_resp_4.started,important.stopped,key_resp_4.keys,key_resp_4.rt,key_resp_4.duration,instruction.started,text_7.started,key_resp_9.started,instruction.stopped,key_resp_9.keys,key_resp_9.rt,key_resp_9.duration,training_trial.started,cross.started,image.started,aperture.started,cross.stopped,image.stopped,aperture.stopped,training_trial.stopped,New_instruction.started,text.started,key_resp_2.started,New_instruction.stopped,key_resp_2.keys,key_resp_2.rt,key_resp_2.duration,test_trial.started,cross2.started,cross2.stopped,image_2.started,key_resp_3.started,aperture_2.started,test_trial.stopped,trials_2.key_resp_3.keys,trials_2.key_resp_3.rt,trials_2.key_resp_3.duration,image_2.stopped,text_3.started,aperture_2.stopped,start_blok_2.started,key_resp_5.started,text_4.started,start_blok_2.stopped,key_resp_5.keys,key_resp_5.rt,key_resp_5.duration,training_2.started,cross_2.started,image_3.started,aperture_3.started,cross_2.stopped,image_3.stopped,aperture_3.stopped,training_2.stopped,nyeste_instruks.started,text_5.started,key_resp_6.started,nyeste_instruks.stopped,key_resp_6.keys,key_resp_6.rt,key_resp_6.duration,test_2.started,cross2_2.started,cross2_2.stopped,image_4.started,key_resp_7.started,aperture_4.started,test_2.stopped,trials_4.key_resp_7.keys,trials_4.key_resp_7.rt,trials_4.key_resp_7.duration,Instruction1.started,Instruktion.started,key_resp.started,Instruction1.stopped,key_resp.keys,key_resp.rt,key_resp.duration,participant,session,date,expName,psychopyVersion,frameRate,expStart,
,,,,,,,,,,,,,,,,,,,,,,,,,,,,,,,,,0.00912085099844262,0.019246982992626727,0.019246982992626727,36.66965837299358,space,36.6205218059913,None,,,,,,,,,,,,,,,,,,,,,,,,,,,,,,,,,,,,,,,,,,,,,,,,,,,,,,,,,,,,,,,,,,,,,,,,,,,,,,,,,,809571,001,2024-12-05_13h09.46.267,Test,2024.2.1,59.99883278331856,2024-12-05 13h10.11.498611 +0100,
,,,,,,,,,,,,,,,,,,,,,,,,,,,,,,,,,,,,,,,,36.66976904499461,36.691534540994326,36.691534540994326,60.042138535995036,space,23.335368896005093,None,,,,,,,,,,,,,,,,,,,,,,,,,,,,,,,,,,,,,,,,,,,,,,,,,,,,,,,,,,,,,,,,,,,,,,,,,,,809571,001,2024-12-05_13h09.46.267,Test,2024.2.1,59.99883278331856,2024-12-05 13h10.11.498611 +0100,
,,,,,,,,,,,,,,,,,,,,,,,,,,,,,,,,,,,,,,,,,,,,,,,60.04220601099951,60.05666839699552,60.05666839699552,77.77617944400117,space,17.70501922199037,None,,,,,,,,,,,,,,,,,,,,,,,,,,,,,,,,,,,,,,,,,,,,,,,,,,,,,,,,,,,,,,,,,,,,809571,001,2024-12-05_13h09.46.267,Test,2024.2.1,59.99883278331856,2024-12-05 13h10.11.498611 +0100,
4,150,0,49,None,0,0,0,,,,,,,,0,0,0,3,,,,,,,,,,,,,77.81448375899345,,,,,,,,,,,,,,,,,,,,,,,77.80473785399226,77.81448375899345,77.99141298599716,77.99141298599716,78.02483806099917,79.69701921699743,79.69701921699743,79.67679455799225,,,,,,,,,,,,,,,,,,,,,,,,,,,,,,,,,,,,,,,,,,,,,,,,,,,,,,,,,,,,809571,001,2024-12-05_13h09.46.267,Test,2024.2.1,59.99883278331856,2024-12-05 13h10.11.498611 +0100,
31,150,180,33,None,1,1,0,,,,,,,,0,1,1,30,,,,,,,,,,,,,79.69701921699743,,,,,,,,,,,,,,,,,,,,,,,79.68934533599531,79.69701921699743,79.891535200004,79.891535200004,79.90846208299627,81.59354571899166,81.59354571899166,81.57616034300008,,,,,,,,,,,,,,,,,,,,,,,,,,,,,,,,,,,,,,,,,,,,,,,,,,,,,,,,,,,,809571,001,2024-12-05_13h09.46.267,Test,2024.2.1,59.99883278331856,2024-12-05 13h10.11.498611 +0100,
7,150,30,9,None,2,2,0,,,,,,,,0,2,2,6,,,,,,,,,,,,,81.59354571899166,,,,,,,,,,,,,,,,,,,,,,,81.58439843400265,81.59354571899166,81.79176651699527,81.79176651699527,81.80896545299038,83.49191153499123,83.49191153499123,83.47592396299297,,,,,,,,,,,,,,,,,,,,,,,,,,,,,,,,,,,,,,,,,,,,,,,,,,,,,,,,,,,,809571,001,2024-12-05_13h09.46.267,Test,2024.2.1,59.99883278331856,2024-12-05 13h10.11.498611 +0100,
30,150,150,54,None,3,3,0,,,,,,,,0,3,3,29,,,,,,,,,,,,,83.49191153499123,,,,,,,,,,,,,,,,,,,,,,,83.48216768499697,83.49191153499123,83.69187913100177,83.69187913100177,83.69187913100177,85.39217623299919,85.39217623299919,85.37632804299938,,,,,,,,,,,,,,,,,,,,,,,,,,,,,,,,,,,,,,,,,,,,,,,,,,,,,,,,,,,,809571,001,2024-12-05_13h09.46.267,Test,2024.2.1,59.99883278331856,2024-12-05 13h10.11.498611 +0100,
14,150,60,32,None,4,4,0,,,,,,,,0,4,4,13,,,,,,,,,,,,,85.39217623299919,,,,,,,,,,,,,,,,,,,,,,,85.38401060299657,85.39217623299919,85.57547492599406,85.57547492599406,85.59204554600001,87.275453972994,87.275453972994,87.25946475900128,,,,,,,,,,,,,,,,,,,,,,,,,,,,,,,,,,,,,,,,,,,,,,,,,,,,,,,,,,,,809571,001,2024-12-05_13h09.46.267,Test,2024.2.1,59.99883278331856,2024-12-05 13h10.11.498611 +0100,
19,150,90,39,None,5,5,0,,,,,,,,0,5,5,18,,,,,,,,,,,,,87.275453972994,,,,,,,,,,,,,,,,,,,,,,,87.26671540399548,87.275453972994,87.4755817730038,87.4755817730038,87.4755817730038,89.17554375500185,89.17554375500185,89.1595942559943,,,,,,,,,,,,,,,,,,,,,,,,,,,,,,,,,,,,,,,,,,,,,,,,,,,,,,,,,,,,809571,001,2024-12-05_13h09.46.267,Test,2024.2.1,59.99883278331856,2024-12-05 13h10.11.498611 +0100,
25,150,120,27,None,6,6,0,,,,,,,,0,6,6,24,,,,,,,,,,,,,89.17554375500185,,,,,,,,,,,,,,,,,,,,,,,89.16670767399773,89.17554375500185,89.37568975800241,89.37568975800241,89.37568975800241,91.07583713899658,91.07583713899658,91.06012825699872,,,,,,,,,,,,,,,,,,,,,,,,,,,,,,,,,,,,,,,,,,,,,,,,,,,,,,,,,,,,809571,001,2024-12-05_13h09.46.267,Test,2024.2.1,59.99883278331856,2024-12-05 13h10.11.498611 +0100,
27,150,150,56,None,7,7,0,,,,,,,,0,7,7,26,,,,,,,,,,,,,91.07583713899658,,,,,,,,,,,,,,,,,,,,,,,91.06775865599047,91.07583713899658,91.27581586700398,91.27581586700398,91.27581586700398,92.97557806200348,92.97557806200348,92.9599392139935,,,,,,,,,,,,,,,,,,,,,,,,,,,,,,,,,,,,,,,,,,,,,,,,,,,,,,,,,,,,809571,001,2024-12-05_13h09.46.267,Test,2024.2.1,59.99883278331856,2024-12-05 13h10.11.498611 +0100,
3,150,0,67,None,8,8,0,,,,,,,,0,8,8,2,,,,,,,,,,,,,92.97557806200348,,,,,,,,,,,,,,,,,,,,,,,92.96580917199026,92.97557806200348,93.17605273399386,93.17605273399386,93.17605273399386,94.87552213699382,94.87552213699382,94.85988744499628,,,,,,,,,,,,,,,,,,,,,,,,,,,,,,,,,,,,,,,,,,,,,,,,,,,,,,,,,,,,809571,001,2024-12-05_13h09.46.267,Test,2024.2.1,59.99883278331856,2024-12-05 13h10.11.498611 +0100,
15,150,60,42,None,9,9,0,,,,,,,,0,9,9,14,,,,,,,,,,,,,94.87552213699382,,,,,,,,,,,,,,,,,,,,,,,94.86552242199832,94.87552213699382,95.07605415899889,95.07605415899889,95.07605415899889,,,96.77902255499794,,,,,,,,,,,,,,,,,,,,,,,,,,,,,,,,,,,,,,,,,,,,,,,,,,,,,,,,,,,,809571,001,2024-12-05_13h09.46.267,Test,2024.2.1,59.99883278331856,2024-12-05 13h10.11.498611 +0100,
29,150,150,12,None,10,10,0,,,,,,,,0,10,10,28,,,,,,,,,,,,,96.79549094499089,,,,,,,,,,,,,,,,,,,,,,,96.78410455599078,96.79549094499089,96.97624424699461,96.97624424699461,97.0102731520019,98.68056380699272,98.68056380699272,98.66173284300021,,,,,,,,,,,,,,,,,,,,,,,,,,,,,,,,,,,,,,,,,,,,,,,,,,,,,,,,,,,,809571,001,2024-12-05_13h09.46.267,Test,2024.2.1,59.99883278331856,2024-12-05 13h10.11.498611 +0100,
8,150,30,50,None,11,11,0,,,,,,,,0,11,11,7,,,,,,,,,,,,,98.68056380699272,,,,,,,,,,,,,,,,,,,,,,,98.67197024599591,98.68056380699272,98.8761646149942,98.8761646149942,98.89305878400046,100.58024802200089,100.58024802200089,100.56173071000376,,,,,,,,,,,,,,,,,,,,,,,,,,,,,,,,,,,,,,,,,,,,,,,,,,,,,,,,,,,,809571,001,2024-12-05_13h09.46.267,Test,2024.2.1,59.99883278331856,2024-12-05 13h10.11.498611 +0100,
34,150,180,35,None,12,12,0,,,,,,,,0,12,12,33,,,,,,,,,,,,,100.58024802200089,,,,,,,,,,,,,,,,,,,,,,,100.57163093799318,100.58024802200089,100.77638118299365,100.77638118299365,100.79310876700038,102.47599904600065,102.47599904600065,102.46089164099249,,,,,,,,,,,,,,,,,,,,,,,,,,,,,,,,,,,,,,,,,,,,,,,,,,,,,,,,,,,,809571,001,2024-12-05_13h09.46.267,Test,2024.2.1,59.99883278331856,2024-12-05 13h10.11.498611 +0100,
12,150,60,17,None,13,13,0,,,,,,,,0,13,13,11,,,,,,,,,,,,,102.47599904600065,,,,,,,,,,,,,,,,,,,,,,,102.46668114799832,102.47599904600065,102.67666344399913,102.67666344399913,102.67666344399913,104.38114448499982,104.38114448499982,104.36254443999496,,,,,,,,,,,,,,,,,,,,,,,,,,,,,,,,,,,,,,,,,,,,,,,,,,,,,,,,,,,,809571,001,2024-12-05_13h09.46.267,Test,2024.2.1,59.99883278331856,2024-12-05 13h10.11.498611 +0100,
11,150,60,20,None,14,14,0,,,,,,,,0,14,14,10,,,,,,,,,,,,,104.38114448499982,,,,,,,,,,,,,,,,,,,,,,,104.37237825799093,104.38114448499982,104.5764939560031,104.5764939560031,104.59349673599354,,,106.27690296400397,,,,,,,,,,,,,,,,,,,,,,,,,,,,,,,,,,,,,,,,,,,,,,,,,,,,,,,,,,,,809571,001,2024-12-05_13h09.46.267,Test,2024.2.1,59.99883278331856,2024-12-05 13h10.11.498611 +0100,
2,150,0,51,None,15,15,0,,,,,,,,0,15,15,1,,,,,,,,,,,,,106.29375824499584,,,,,,,,,,,,,,,,,,,,,,,106.28487645200221,106.29375824499584,106.47699777300295,106.47699777300295,106.49388589800219,108.17697965599655,108.17697965599655,108.16148260299815,,,,,,,,,,,,,,,,,,,,,,,,,,,,,,,,,,,,,,,,,,,,,,,,,,,,,,,,,,,,809571,001,2024-12-05_13h09.46.267,Test,2024.2.1,59.99883278331856,2024-12-05 13h10.11.498611 +0100,
22,150,120,45,None,16,16,0,,,,,,,,0,16,16,21,,,,,,,,,,,,,108.17697965599655,,,,,,,,,,,,,,,,,,,,,,,108.16824397299206,108.17697965599655,108.37704885700077,108.37704885700077,108.37704885700077,110.08135257200047,110.08135257200047,110.06273382800282,,,,,,,,,,,,,,,,,,,,,,,,,,,,,,,,,,,,,,,,,,,,,,,,,,,,,,,,,,,,809571,001,2024-12-05_13h09.46.267,Test,2024.2.1,59.99883278331856,2024-12-05 13h10.11.498611 +0100,
21,150,120,53,None,17,17,0,,,,,,,,0,17,17,20,,,,,,,,,,,,,110.08135257200047,,,,,,,,,,,,,,,,,,,,,,,110.0728571619984,110.08135257200047,110.27710176899564,110.27710176899564,110.29366600199137,111.97663531599392,111.97663531599392,111.96134710399201,,,,,,,,,,,,,,,,,,,,,,,,,,,,,,,,,,,,,,,,,,,,,,,,,,,,,,,,,,,,809571,001,2024-12-05_13h09.46.267,Test,2024.2.1,59.99883278331856,2024-12-05 13h10.11.498611 +0100,
17,150,90,22,None,18,18,0,,,,,,,,0,18,18,16,,,,,,,,,,,,,111.97663531599392,,,,,,,,,,,,,,,,,,,,,,,111.96706597300363,111.97663531599392,112.1772144199931,112.1772144199931,112.1772144199931,113.87805844200193,113.87805844200193,113.86185277000186,,,,,,,,,,,,,,,,,,,,,,,,,,,,,,,,,,,,,,,,,,,,,,,,,,,,,,,,,,,,809571,001,2024-12-05_13h09.46.267,Test,2024.2.1,59.99883278331856,2024-12-05 13h10.11.498611 +0100,
28,150,150,30,None,19,19,0,,,,,,,,0,19,19,27,,,,,,,,,,,,,113.87805844200193,,,,,,,,,,,,,,,,,,,,,,,113.86888179599191,113.87805844200193,114.07765638398996,114.07765638398996,114.07765638398996,115.7773920269974,115.7773920269974,115.76186562200019,,,,,,,,,,,,,,,,,,,,,,,,,,,,,,,,,,,,,,,,,,,,,,,,,,,,,,,,,,,,809571,001,2024-12-05_13h09.46.267,Test,2024.2.1,59.99883278331856,2024-12-05 13h10.11.498611 +0100,
23,150,120,57,None,20,20,0,,,,,,,,0,20,20,22,,,,,,,,,,,,,115.7773920269974,,,,,,,,,,,,,,,,,,,,,,,115.76776462499402,115.7773920269974,115.97736291200272,115.97736291200272,115.97736291200272,117.67749837999872,117.67749837999872,117.6615598060016,,,,,,,,,,,,,,,,,,,,,,,,,,,,,,,,,,,,,,,,,,,,,,,,,,,,,,,,,,,,809571,001,2024-12-05_13h09.46.267,Test,2024.2.1,59.99883278331856,2024-12-05 13h10.11.498611 +0100,
18,150,90,7,None,21,21,0,,,,,,,,0,21,21,17,,,,,,,,,,,,,117.67749837999872,,,,,,,,,,,,,,,,,,,,,,,117.66766980299144,117.67749837999872,117.87750823999522,117.87750823999522,117.87750823999522,119.57785349799087,119.57785349799087,119.56211010100378,,,,,,,,,,,,,,,,,,,,,,,,,,,,,,,,,,,,,,,,,,,,,,,,,,,,,,,,,,,,809571,001,2024-12-05_13h09.46.267,Test,2024.2.1,59.99883278331856,2024-12-05 13h10.11.498611 +0100,
35,150,180,29,None,22,22,0,,,,,,,,0,22,22,34,,,,,,,,,,,,,119.57785349799087,,,,,,,,,,,,,,,,,,,,,,,119.5698631760024,119.57785349799087,119.77791194999008,119.77791194999008,119.77791194999008,121.4782978459989,121.4782978459989,121.46196062299714,,,,,,,,,,,,,,,,,,,,,,,,,,,,,,,,,,,,,,,,,,,,,,,,,,,,,,,,,,,,809571,001,2024-12-05_13h09.46.267,Test,2024.2.1,59.99883278331856,2024-12-05 13h10.11.498611 +0100,
33,150,180,43,None,23,23,0,,,,,,,,0,23,23,32,,,,,,,,,,,,,121.4782978459989,,,,,,,,,,,,,,,,,,,,,,,121.4695272629906,121.4782978459989,121.67757021999569,121.67757021999569,121.67757021999569,123.37799174099928,123.37799174099928,123.36314389600011,,,,,,,,,,,,,,,,,,,,,,,,,,,,,,,,,,,,,,,,,,,,,,,,,,,,,,,,,,,,809571,001,2024-12-05_13h09.46.267,Test,2024.2.1,59.99883278331856,2024-12-05 13h10.11.498611 +0100,
10,150,30,19,None,24,24,0,,,,,,,,0,24,24,9,,,,,,,,,,,,,123.37799174099928,,,,,,,,,,,,,,,,,,,,,,,123.36847162200138,123.37799174099928,123.5783529689943,123.5783529689943,123.5783529689943,125.28206769299868,125.28206769299868,125.26343310299853,,,,,,,,,,,,,,,,,,,,,,,,,,,,,,,,,,,,,,,,,,,,,,,,,,,,,,,,,,,,809571,001,2024-12-05_13h09.46.267,Test,2024.2.1,59.99883278331856,2024-12-05 13h10.11.498611 +0100,
26,150,150,13,None,25,25,0,,,,,,,,0,25,25,25,,,,,,,,,,,,,125.28206769299868,,,,,,,,,,,,,,,,,,,,,,,125.27336381899659,125.28206769299868,125.4787327459926,125.4787327459926,125.49513796599058,127.18042297200009,127.18042297200009,127.16289480199339,,,,,,,,,,,,,,,,,,,,,,,,,,,,,,,,,,,,,,,,,,,,,,,,,,,,,,,,,,,,809571,001,2024-12-05_13h09.46.267,Test,2024.2.1,59.99883278331856,2024-12-05 13h10.11.498611 +0100,
16,150,90,31,None,26,26,0,,,,,,,,0,26,26,15,,,,,,,,,,,,,127.18042297200009,,,,,,,,,,,,,,,,,,,,,,,127.17185331099608,127.18042297200009,127.37857648199133,127.37857648199133,127.39503524599422,129.0784987359948,129.0784987359948,129.06288179400144,,,,,,,,,,,,,,,,,,,,,,,,,,,,,,,,,,,,,,,,,,,,,,,,,,,,,,,,,,,,809571,001,2024-12-05_13h09.46.267,Test,2024.2.1,59.99883278331856,2024-12-05 13h10.11.498611 +0100,
9,150,30,40,None,27,27,0,,,,,,,,0,27,27,8,,,,,,,,,,,,,129.0784987359948,,,,,,,,,,,,,,,,,,,,,,,129.06955796599505,129.0784987359948,129.27871284200228,129.27871284200228,129.27871284200228,130.9786387399945,130.9786387399945,130.96257444100047,,,,,,,,,,,,,,,,,,,,,,,,,,,,,,,,,,,,,,,,,,,,,,,,,,,,,,,,,,,,809571,001,2024-12-05_13h09.46.267,Test,2024.2.1,59.99883278331856,2024-12-05 13h10.11.498611 +0100,
20,150,90,15,None,28,28,0,,,,,,,,0,28,28,19,,,,,,,,,,,,,130.9786387399945,,,,,,,,,,,,,,,,,,,,,,,130.97062612899754,130.9786387399945,131.17898794499342,131.17898794499342,131.17898794499342,132.87868651399913,132.87868651399913,132.86310444500123,,,,,,,,,,,,,,,,,,,,,,,,,,,,,,,,,,,,,,,,,,,,,,,,,,,,,,,,,,,,809571,001,2024-12-05_13h09.46.267,Test,2024.2.1,59.99883278331856,2024-12-05 13h10.11.498611 +0100,
13,150,60,26,None,29,29,0,,,,,,,,0,29,29,12,,,,,,,,,,,,,132.87868651399913,,,,,,,,,,,,,,,,,,,,,,,132.87056537999888,132.87868651399913,133.0794964300003,133.0794964300003,133.0794964300003,134.78307801099436,134.78307801099436,134.76422984700184,,,,,,,,,,,,,,,,,,,,,,,,,,,,,,,,,,,,,,,,,,,,,,,,,,,,,,,,,,,,809571,001,2024-12-05_13h09.46.267,Test,2024.2.1,59.99883278331856,2024-12-05 13h10.11.498611 +0100,
1,150,0,28,None,30,30,0,,,,,,,,0,30,30,0,,,,,,,,,,,,,134.78307801099436,,,,,,,,,,,,,,,,,,,,,,,134.77416449099837,134.78307801099436,134.97879004800052,134.97879004800052,134.99553947299137,136.67857510499016,136.67857510499016,136.66292345199327,,,,,,,,,,,,,,,,,,,,,,,,,,,,,,,,,,,,,,,,,,,,,,,,,,,,,,,,,,,,809571,001,2024-12-05_13h09.46.267,Test,2024.2.1,59.99883278331856,2024-12-05 13h10.11.498611 +0100,
5,150,0,60,None,31,31,0,,,,,,,,0,31,31,4,,,,,,,,,,,,,136.67857510499016,,,,,,,,,,,,,,,,,,,,,,,136.66990626599,136.67857510499016,136.87878082999669,136.87878082999669,136.87878082999669,138.5784462599986,138.5784462599986,138.5634137899906,,,,,,,,,,,,,,,,,,,,,,,,,,,,,,,,,,,,,,,,,,,,,,,,,,,,,,,,,,,,809571,001,2024-12-05_13h09.46.267,Test,2024.2.1,59.99883278331856,2024-12-05 13h10.11.498611 +0100,
32,150,180,59,None,32,32,0,,,,,,,,0,32,32,31,,,,,,,,,,,,,138.5784462599986,,,,,,,,,,,,,,,,,,,,,,,138.56928442900244,138.5784462599986,138.77899475800223,138.77899475800223,138.77899475800223,140.48206255299738,140.48206255299738,140.46331430099963,,,,,,,,,,,,,,,,,,,,,,,,,,,,,,,,,,,,,,,,,,,,,,,,,,,,,,,,,,,,809571,001,2024-12-05_13h09.46.267,Test,2024.2.1,59.99883278331856,2024-12-05 13h10.11.498611 +0100,
6,150,30,34,None,33,33,0,,,,,,,,0,33,33,5,,,,,,,,,,,,,140.48206255299738,,,,,,,,,,,,,,,,,,,,,,,140.47270158799074,140.48206255299738,140.67950310099695,140.67950310099695,140.69587536399195,142.37932450800145,142.37932450800145,142.36325514399505,,,,,,,,,,,,,,,,,,,,,,,,,,,,,,,,,,,,,,,,,,,,,,,,,,,,,,,,,,,,809571,001,2024-12-05_13h09.46.267,Test,2024.2.1,59.99883278331856,2024-12-05 13h10.11.498611 +0100,
24,150,120,61,None,34,34,0,,,,,,,,0,34,34,23,,,,,,,,,,,,,142.37932450800145,,,,,,,,,,,,,,,,,,,,,,,142.37041001400212,142.37932450800145,142.57922316399345,142.57922316399345,142.57922316399345,144.2800527740037,144.2800527740037,144.26361650199397,,,,,,,,,,,,,,,,,,,,,,,,,,,,,,,,,,,,,,,,,,,,,,,,,,,,,,,,,,,,809571,001,2024-12-05_13h09.46.267,Test,2024.2.1,59.99883278331856,2024-12-05 13h10.11.498611 +0100,
,,,,,,,,,,,,,,,,,,,,,,,,,,,,,,,,,,,,,,,,,,,,,,,,,,,,,,,,,,,,,,144.26381055200181,144.2800527740037,144.2800527740037,157.69917733999318,space,13.406044969000504,None,,,,,,,,,,,,,,,,,,,,,,,,,,,,,,,,,,,,,,,,,,,,,,,,,,,,,809571,001,2024-12-05_13h09.46.267,Test,2024.2.1,59.99883278331856,2024-12-05 13h10.11.498611 +0100,
38,150,0,18,None,0,0,0,True,left,1.2774911769956816,None,,,,,,,,0,0,0,0,,,,,,,,,157.72484930099745,,,,,,,,,,,,,,,,,,,,,,,,,,,,,,,,,,,,,,157.71554538799683,157.72484930099745,158.7311617939995,159.71378712399746,159.71378712399746,159.71378712399746,160.99915917900216,left,1.2774911769956816,None,,,,,,,,,,,,,,,,,,,,,,,,,,,,,,,,,,,,,,,,,,,809571,001,2024-12-05_13h09.46.267,Test,2024.2.1,59.99883278331856,2024-12-05 13h10.11.498611 +0100,
64,150,150,66,None,1,1,0,True,left,0.9875053540017689,None,,,,,,,,0,1,1,1,,,,,,,,,161.01418983799522,,,,,,,,,,,,,,,,,,,,,,,,,,,,,,,,,,,,,,161.00526130499202,161.01418983799522,162.0144833259983,163.01434834700194,163.01434834700194,163.01434834700194,164.01641566699254,left,0.9875053540017689,None,,,,,,,,,,,,,,,,,,,,,,,,,,,,,,,,,,,,,,,,,,,809571,001,2024-12-05_13h09.46.267,Test,2024.2.1,59.99883278331856,2024-12-05 13h10.11.498611 +0100,
68,150,180,62,None,2,2,0,True,left,1.0531670859927544,None,,,,,,,,0,2,2,2,,,,,,,,,164.03268301200296,,,,,,,,,,,,,,,,,,,,,,,,,,,,,,,,,,,,,,164.023969818998,164.03268301200296,165.04761529099778,166.03095441899495,166.03095441899495,166.03095441899495,167.10003952299303,left,1.0531670859927544,None,,,,,,,,,,,,,,,,,,,,,,,,,,,,,,,,,,,,,,,,,,,809571,001,2024-12-05_13h09.46.267,Test,2024.2.1,59.99883278331856,2024-12-05 13h10.11.498611 +0100,
1,150,0,28,None,3,3,0,False,left,1.1661065710068215,None,,,,,,,,0,3,3,3,,,,,,,,,167.11386300499726,,,,,,,,,,,,,,,,,,,,,,,,,,,,,,,,,,,,,,167.10348132799845,167.11386300499726,168.1147623500001,169.114947294991,169.114947294991,169.114947294991,170.28421307999815,left,1.1661065710068215,None,,,,,,,,,,,,,,,,,,,,,,,,,,,,,,,,,,,,,,,,,,,809571,001,2024-12-05_13h09.46.267,Test,2024.2.1,59.99883278331856,2024-12-05 13h10.11.498611 +0100,
39,150,0,10,None,4,4,0,True,left,0.8387629000062589,None,,,,,,,,0,4,4,4,,,,,,,,,170.30053332199168,,,,,,,,,,,,,,,,,,,,,,,,,,,,,,,,,,,,,,170.29159299799358,170.30053332199168,171.31491184199695,172.29803377999633,172.29803377999633,172.29803377999633,173.1504264309915,left,0.8387629000062589,None,,,,,,,,,,,,,,,,,,,,,,,,,,,,,,,,,,,,,,,,,,,809571,001,2024-12-05_13h09.46.267,Test,2024.2.1,59.99883278331856,2024-12-05 13h10.11.498611 +0100,
8,150,30,50,None,5,5,0,False,right,0.7221709539880976,None,,,,,,,,0,5,5,5,,,,,,,,,173.16458068499924,,,,,,,,,,,,,,,,,,,,,,,,,,,,,,,,,,,,,,173.1540447909938,173.16458068499924,174.16523174400209,175.1649966709956,175.1649966709956,175.1649966709956,175.89976491699053,right,0.7221709539880976,None,,,,,,,,,,,,,,,,,,,,,,,,,,,,,,,,,,,,,,,,,,,809571,001,2024-12-05_13h09.46.267,Test,2024.2.1,59.99883278331856,2024-12-05 13h10.11.498611 +0100,
30,150,150,54,None,6,6,0,False,left,0.9936688379966654,None,,,,,,,,0,6,6,6,,,,,,,,,175.91527969799063,,,,,,,,,,,,,,,,,,,,,,,,,,,,,,,,,,,,,,175.90329278699937,175.91527969799063,176.91554144400288,177.91503484899295,177.91503484899295,177.91503484899295,178.91659513599006,left,0.9936688379966654,None,,,,,,,,,,,,,,,,,,,,,,,,,,,,,,,,,,,,,,,,,,,809571,001,2024-12-05_13h09.46.267,Test,2024.2.1,59.99883278331856,2024-12-05 13h10.11.498611 +0100,
51,150,90,16,None,7,7,0,True,right,1.465068338002311,None,,,,,,,,0,7,7,7,,,,,,,,,178.93235587899107,,,,,,,,,,,,,,,,,,,,,,,,,,,,,,,,,,,,,,178.9230379799992,178.93235587899107,179.93182657800207,180.9156071789912,180.9156071789912,180.9156071789912,182.38460227499309,right,1.465068338002311,None,,,,,,,,,,,,,,,,,,,,,,,,,,,,,,,,,,,,,,,,,,,809571,001,2024-12-05_13h09.46.267,Test,2024.2.1,59.99883278331856,2024-12-05 13h10.11.498611 +0100,
35,150,180,29,None,8,8,0,False,right,0.9517029639973771,None,,,,,,,,0,8,8,8,,,,,,,,,182.39883697900223,,,,,,,,,,,,,,,,,,,,,,,,,,,,,,,,,,,,,,182.38809723099985,182.39883697900223,183.399265258995,184.39886503000162,184.39886503000162,184.39886503000162,185.3672156160028,right,0.9517029639973771,None,,,,,,,,,,,,,,,,,,,,,,,,,,,,,,,,,,,,,,,,,,,809571,001,2024-12-05_13h09.46.267,Test,2024.2.1,59.99883278331856,2024-12-05 13h10.11.498611 +0100,
7,150,30,9,None,9,9,0,False,right,0.6988022320001619,None,,,,,,,,0,9,9,9,,,,,,,,,185.38179418900108,,,,,,,,,,,,,,,,,,,,,,,,,,,,,,,,,,,,,,185.3706788349955,185.38179418900108,186.3833045670035,187.3829617649899,187.3829617649899,187.3829617649899,188.08780151799147,right,0.6988022320001619,None,,,,,,,,,,,,,,,,,,,,,,,,,,,,,,,,,,,,,,,,,,,809571,001,2024-12-05_13h09.46.267,Test,2024.2.1,59.99883278331856,2024-12-05 13h10.11.498611 +0100,
42,150,30,4,None,10,10,0,True,right,1.3512014940060908,None,,,,,,,,0,10,10,10,,,,,,,,,188.10253926800215,,,,,,,,,,,,,,,,,,,,,,,,,,,,,,,,,,,,,,188.09384129100363,188.10253926800215,189.11596018199634,190.09964401299658,190.09964401299658,190.09964401299658,191.4680018229992,right,1.3512014940060908,None,,,,,,,,,,,,,,,,,,,,,,,,,,,,,,,,,,,,,,,,,,,809571,001,2024-12-05_13h09.46.267,Test,2024.2.1,59.99883278331856,2024-12-05 13h10.11.498611 +0100,
28,150,150,30,None,11,11,0,False,right,1.198726473012357,None,,,,,,,,0,11,11,11,,,,,,,,,191.48223309499735,,,,,,,,,,,,,,,,,,,,,,,,,,,,,,,,,,,,,,191.4715596199967,191.48223309499735,192.4835599749931,193.48332660300366,193.48332660300366,193.48332660300366,194.68517007799528,right,1.198726473012357,None,,,,,,,,,,,,,,,,,,,,,,,,,,,,,,,,,,,,,,,,,,,809571,001,2024-12-05_13h09.46.267,Test,2024.2.1,59.99883278331856,2024-12-05 13h10.11.498611 +0100,
27,150,150,56,None,12,12,0,False,right,0.8752838999935193,None,,,,,,,,0,12,12,12,,,,,,,,,194.6994527229981,,,,,,,,,,,,,,,,,,,,,,,,,,,,,,,,,,,,,,194.6887658189953,194.6994527229981,195.7411320980027,196.70010699899285,196.70010699899285,196.70010699899285,197.58513447799487,right,0.8752838999935193,None,,,,,,,,,,,,,,,,,,,,,,,,,,,,,,,,,,,,,,,,,,,809571,001,2024-12-05_13h09.46.267,Test,2024.2.1,59.99883278331856,2024-12-05 13h10.11.498611 +0100,
36,150,0,2,None,13,13,0,True,left,0.8748526700073853,None,,,,,,,,0,13,13,13,,,,,,,,,197.6007491569908,,,,,,,,,,,,,,,,,,,,,,,,,,,,,,,,,,,,,,197.59187133699015,197.6007491569908,198.59997389899218,199.60030529899814,199.60030529899814,199.60030529899814,200.48423585099226,left,0.8748526700073853,None,,,,,,,,,,,,,,,,,,,,,,,,,,,,,,,,,,,,,,,,,,,809571,001,2024-12-05_13h09.46.267,Test,2024.2.1,59.99883278331856,2024-12-05 13h10.11.498611 +0100,
43,150,30,24,None,14,14,0,True,left,1.1751620619907044,None,,,,,,,,0,14,14,14,,,,,,,,,200.50022720599372,,,,,,,,,,,,,,,,,,,,,,,,,,,,,,,,,,,,,,200.49128223399748,200.50022720599372,201.50095603200316,202.48367403500015,202.48367403500015,202.48367403500015,203.66840468900045,left,1.1751620619907044,None,,,,,,,,,,,,,,,,,,,,,,,,,,,,,,,,,,,,,,,,,,,809571,001,2024-12-05_13h09.46.267,Test,2024.2.1,59.99883278331856,2024-12-05 13h10.11.498611 +0100,
56,150,120,3,None,15,15,0,True,right,2.5179725930065615,None,,,,,,,,0,15,15,15,,,,,,,,,203.684697536999,,,,,,,,,,,,,,,,,,,,,,,,,,,,,,,,,,,,,,203.67575752700213,203.684697536999,204.700141497,205.68353351499536,205.68353351499536,205.68353351499536,208.21820918300364,right,2.5179725930065615,None,,,,,,,,,,,,,,,,,,,,,,,,,,,,,,,,,,,,,,,,,,,809571,001,2024-12-05_13h09.46.267,Test,2024.2.1,59.99883278331856,2024-12-05 13h10.11.498611 +0100,
16,150,90,31,None,16,16,0,False,left,1.8873677550000139,None,,,,,,,,0,16,16,16,,,,,,,,,208.23371604499698,,,,,,,,,,,,,,,,,,,,,,,,,,,,,,,,,,,,,,208.22182344399334,208.23371604499698,209.23484670899052,210.21766418799234,210.21766418799234,210.21766418799234,212.11961369100027,left,1.8873677550000139,None,,,,,,,,,,,,,,,,,,,,,,,,,,,,,,,,,,,,,,,,,,,809571,001,2024-12-05_13h09.46.267,Test,2024.2.1,59.99883278331856,2024-12-05 13h10.11.498611 +0100,
45,150,30,65,None,17,17,0,True,left,1.2426976799906697,None,,,,,,,,0,17,17,17,,,,,,,,,212.13487746499595,,,,,,,,,,,,,,,,,,,,,,,,,,,,,,,,,,,,,,212.12584405200323,212.13487746499595,213.13438997400226,214.1187468309945,214.1187468309945,214.1187468309945,215.36974436500168,left,1.2426976799906697,None,,,,,,,,,,,,,,,,,,,,,,,,,,,,,,,,,,,,,,,,,,,809571,001,2024-12-05_13h09.46.267,Test,2024.2.1,59.99883278331856,2024-12-05 13h10.11.498611 +0100,
31,150,180,33,None,18,18,0,False,left,1.017546269999002,None,,,,,,,,0,18,18,18,,,,,,,,,215.38372588399216,,,,,,,,,,,,,,,,,,,,,,,,,,,,,,,,,,,,,,215.37393479800085,215.38372588399216,216.38450894400012,217.38427362400398,217.38427362400398,217.38427362400398,218.4052802810038,left,1.017546269999002,None,,,,,,,,,,,,,,,,,,,,,,,,,,,,,,,,,,,,,,,,,,,809571,001,2024-12-05_13h09.46.267,Test,2024.2.1,59.99883278331856,2024-12-05 13h10.11.498611 +0100,
47,150,60,41,None,19,19,0,True,left,1.4225632339948788,None,,,,,,,,0,19,19,19,,,,,,,,,218.41968922500382,,,,,,,,,,,,,,,,,,,,,,,,,,,,,,,,,,,,,,218.4114157009899,218.41968922500382,219.43486659899645,220.4178800919908,220.4178800919908,220.4178800919908,221.8529524839978,left,1.4225632339948788,None,,,,,,,,,,,,,,,,,,,,,,,,,,,,,,,,,,,,,,,,,,,809571,001,2024-12-05_13h09.46.267,Test,2024.2.1,59.99883278331856,2024-12-05 13h10.11.498611 +0100,
69,150,180,68,None,20,20,0,True,right,1.441029248002451,None,,,,,,,,0,20,20,20,,,,,,,,,221.8675651169906,,,,,,,,,,,,,,,,,,,,,,,,,,,,,,,,,,,,,,221.8577093519998,221.8675651169906,222.86768089899851,223.86833854200086,223.86833854200086,223.86833854200086,225.31972595999832,right,1.441029248002451,None,,,,,,,,,,,,,,,,,,,,,,,,,,,,,,,,,,,,,,,,,,,809571,001,2024-12-05_13h09.46.267,Test,2024.2.1,59.99883278331856,2024-12-05 13h10.11.498611 +0100,
25,150,120,27,None,21,21,0,False,right,2.475222645996837,None,,,,,,,,0,21,21,21,,,,,,,,,225.3346953720029,,,,,,,,,,,,,,,,,,,,,,,,,,,,,,,,,,,,,,225.32345976500073,225.3346953720029,226.33478658700187,227.33531820299686,227.33531820299686,227.33531820299686,229.820835970997,right,2.475222645996837,None,,,,,,,,,,,,,,,,,,,,,,,,,,,,,,,,,,,,,,,,,,,809571,001,2024-12-05_13h09.46.267,Test,2024.2.1,59.99883278331856,2024-12-05 13h10.11.498611 +0100,
50,150,60,23,None,22,22,0,True,left,1.8300111839926103,None,,,,,,,,0,22,22,22,,,,,,,,,229.83611436499632,,,,,,,,,,,,,,,,,,,,,,,,,,,,,,,,,,,,,,229.82742156599124,229.83611436499632,230.83524538799247,231.8359051689913,231.8359051689913,231.8359051689913,233.67199375199561,left,1.8300111839926103,None,,,,,,,,,,,,,,,,,,,,,,,,,,,,,,,,,,,,,,,,,,,809571,001,2024-12-05_13h09.46.267,Test,2024.2.1,59.99883278331856,2024-12-05 13h10.11.498611 +0100,
55,150,90,70,None,23,23,0,True,left,0.890012352989288,None,,,,,,,,0,23,23,23,,,,,,,,,233.68901541699597,,,,,,,,,,,,,,,,,,,,,,,,,,,,,,,,,,,,,,233.67924864999077,233.68901541699597,234.70266976900166,235.6853726309928,235.6853726309928,235.6853726309928,236.58688455200172,left,0.890012352989288,None,,,,,,,,,,,,,,,,,,,,,,,,,,,,,,,,,,,,,,,,,,,809571,001,2024-12-05_13h09.46.267,Test,2024.2.1,59.99883278331856,2024-12-05 13h10.11.498611 +0100,
63,150,150,46,None,24,24,0,True,left,1.0589646650041686,None,,,,,,,,0,24,24,24,,,,,,,,,236.60168902599253,,,,,,,,,,,,,,,,,,,,,,,,,,,,,,,,,,,,,,236.5926345129992,236.60168902599253,237.60240749399236,238.60235957900295,238.60235957900295,238.60235957900295,239.67116243699274,left,1.0589646650041686,None,,,,,,,,,,,,,,,,,,,,,,,,,,,,,,,,,,,,,,,,,,,809571,001,2024-12-05_13h09.46.267,Test,2024.2.1,59.99883278331856,2024-12-05 13h10.11.498611 +0100,
10,150,30,19,None,25,25,0,False,right,0.8103628320095595,None,,,,,,,,0,25,25,25,,,,,,,,,239.68544696299068,,,,,,,,,,,,,,,,,,,,,,,,,,,,,,,,,,,,,,239.67529563899734,239.68544696299068,240.68556704100047,241.68592659500428,241.68592659500428,241.68592659500428,242.50461471699236,right,0.8103628320095595,None,,,,,,,,,,,,,,,,,,,,,,,,,,,,,,,,,,,,,,,,,,,809571,001,2024-12-05_13h09.46.267,Test,2024.2.1,59.99883278331856,2024-12-05 13h10.11.498611 +0100,
17,150,90,22,None,26,26,0,False,left,1.2851132900104858,None,,,,,,,,0,26,26,26,,,,,,,,,242.51951731499867,,,,,,,,,,,,,,,,,,,,,,,,,,,,,,,,,,,,,,242.50901944198995,242.51951731499867,243.51996602000145,244.52006643099594,244.52006643099594,244.52006643099594,245.821261649995,left,1.2851132900104858,None,,,,,,,,,,,,,,,,,,,,,,,,,,,,,,,,,,,,,,,,,,,809571,001,2024-12-05_13h09.46.267,Test,2024.2.1,59.99883278331856,2024-12-05 13h10.11.498611 +0100,
48,150,60,48,None,27,27,0,True,left,1.6059459609969053,None,,,,,,,,0,27,27,27,,,,,,,,,245.83745133399498,,,,,,,,,,,,,,,,,,,,,,,,,,,,,,,,,,,,,,245.82885522699507,245.83745133399498,246.85308078299568,247.83653167900047,247.83653167900047,247.83653167900047,249.45473047799896,left,1.6059459609969053,None,,,,,,,,,,,,,,,,,,,,,,,,,,,,,,,,,,,,,,,,,,,809571,001,2024-12-05_13h09.46.267,Test,2024.2.1,59.99883278331856,2024-12-05 13h10.11.498611 +0100,
54,150,90,69,None,28,28,0,True,right,0.8762211280118208,None,,,,,,,,0,28,28,28,,,,,,,,,249.46974346799834,,,,,,,,,,,,,,,,,,,,,,,,,,,,,,,,,,,,,,249.46017106198997,249.46974346799834,250.4702632539993,251.45386311599577,251.45386311599577,251.45386311599577,252.33848457899876,right,0.8762211280118208,None,,,,,,,,,,,,,,,,,,,,,,,,,,,,,,,,,,,,,,,,,,,809571,001,2024-12-05_13h09.46.267,Test,2024.2.1,59.99883278331856,2024-12-05 13h10.11.498611 +0100,
40,150,0,5,None,29,29,0,True,left,1.4843371530005243,None,,,,,,,,0,29,29,29,,,,,,,,,252.35384569699818,,,,,,,,,,,,,,,,,,,,,,,,,,,,,,,,,,,,,,252.3446696739993,252.35384569699818,253.35371112899156,254.33719624899095,254.33719624899095,254.33719624899095,255.83894814699306,left,1.4843371530005243,None,,,,,,,,,,,,,,,,,,,,,,,,,,,,,,,,,,,,,,,,,,,809571,001,2024-12-05_13h09.46.267,Test,2024.2.1,59.99883278331856,2024-12-05 13h10.11.498611 +0100,
3,150,0,67,None,30,30,0,False,right,1.2243202690006,None,,,,,,,,0,30,30,30,,,,,,,,,255.85319902999618,,,,,,,,,,,,,,,,,,,,,,,,,,,,,,,,,,,,,,255.84251544399012,255.85319902999618,256.8541256949975,257.83855491799477,257.83855491799477,257.83855491799477,259.07198125499417,right,1.2243202690006,None,,,,,,,,,,,,,,,,,,,,,,,,,,,,,,,,,,,,,,,,,,,809571,001,2024-12-05_13h09.46.267,Test,2024.2.1,59.99883278331856,2024-12-05 13h10.11.498611 +0100,
22,150,120,45,None,31,31,0,False,left,1.6722122430073796,None,,,,,,,,0,31,31,31,,,,,,,,,259.08682443499856,,,,,,,,,,,,,,,,,,,,,,,,,,,,,,,,,,,,,,259.07579047899344,259.08682443499856,260.08760047800024,261.0714471789979,261.0714471789979,261.0714471789979,262.75636577399564,left,1.6722122430073796,None,,,,,,,,,,,,,,,,,,,,,,,,,,,,,,,,,,,,,,,,,,,809571,001,2024-12-05_13h09.46.267,Test,2024.2.1,59.99883278331856,2024-12-05 13h10.11.498611 +0100,
21,150,120,53,None,32,32,0,False,left,1.1276677489950089,None,,,,,,,,0,32,32,32,,,,,,,,,262.7711063579918,,,,,,,,,,,,,,,,,,,,,,,,,,,,,,,,,,,,,,262.76062131299113,262.7711063579918,263.7714373899944,264.771246845994,264.771246845994,264.771246845994,265.90607272500347,left,1.1276677489950089,None,,,,,,,,,,,,,,,,,,,,,,,,,,,,,,,,,,,,,,,,,,,809571,001,2024-12-05_13h09.46.267,Test,2024.2.1,59.99883278331856,2024-12-05 13h10.11.498611 +0100,
59,150,120,38,None,33,33,0,True,right,0.9060284989973297,None,,,,,,,,0,33,33,33,,,,,,,,,265.92105025600176,,,,,,,,,,,,,,,,,,,,,,,,,,,,,,,,,,,,,,265.91133252899454,265.92105025600176,266.92123836099927,267.9216734740039,267.9216734740039,267.9216734740039,268.83958451899525,right,0.9060284989973297,None,,,,,,,,,,,,,,,,,,,,,,,,,,,,,,,,,,,,,,,,,,,809571,001,2024-12-05_13h09.46.267,Test,2024.2.1,59.99883278331856,2024-12-05 13h10.11.498611 +0100,
67,150,180,21,None,34,34,0,True,left,7.785273575995234,None,,,,,,,,0,34,34,34,,,,,,,,,268.8543081550015,,,,,,,,,,,,,,,,,,,,,,,,,,,,,,,,,,,,,,268.8448639010021,268.8543081550015,269.8550292860018,270.8552690409997,270.8552690409997,270.8552690409997,278.6575401979935,left,7.785273575995234,None,273.85489930699987,273.85489930699987,273.85489930699987,,,,,,,,,,,,,,,,,,,,,,,,,,,,,,,,,,,,,,,,809571,001,2024-12-05_13h09.46.267,Test,2024.2.1,59.99883278331856,2024-12-05 13h10.11.498611 +0100,
23,150,120,57,None,35,35,0,False,right,0.9134994909982197,None,,,,,,,,0,35,35,35,,,,,,,,,278.6715609590028,,,,,,,,,,,,,,,,,,,,,,,,,,,,,,,,,,,,,,278.66147801199986,278.6715609590028,279.6731199979986,280.6940620899986,280.6940620899986,280.6940620899986,281.6238930019899,right,0.9134994909982197,None,,,,,,,,,,,,,,,,,,,,,,,,,,,,,,,,,,,,,,,,,,,809571,001,2024-12-05_13h09.46.267,Test,2024.2.1,59.99883278331856,2024-12-05 13h10.11.498611 +0100,
33,150,180,43,None,36,36,0,False,right,1.2545889210014138,None,,,,,,,,0,36,36,36,,,,,,,,,281.63890432499466,,,,,,,,,,,,,,,,,,,,,,,,,,,,,,,,,,,,,,281.6274686639954,281.63890432499466,282.6390850979951,283.63945944799343,283.63945944799343,283.63945944799343,284.9076842929935,right,1.2545889210014138,None,,,,,,,,,,,,,,,,,,,,,,,,,,,,,,,,,,,,,,,,,,,809571,001,2024-12-05_13h09.46.267,Test,2024.2.1,59.99883278331856,2024-12-05 13h10.11.498611 +0100,
65,150,150,64,None,37,37,0,True,right,0.8230434380093357,None,,,,,,,,0,37,37,37,,,,,,,,,284.9224779109936,,,,,,,,,,,,,,,,,,,,,,,,,,,,,,,,,,,,,,284.91333757099346,284.9224779109936,285.92232096400403,286.92255160400236,286.92255160400236,286.92255160400236,287.75789502399857,right,0.8230434380093357,None,,,,,,,,,,,,,,,,,,,,,,,,,,,,,,,,,,,,,,,,,,,809571,001,2024-12-05_13h09.46.267,Test,2024.2.1,59.99883278331856,2024-12-05 13h10.11.498611 +0100,
37,150,0,63,None,38,38,0,True,left,1.451989698005491,None,,,,,,,,0,38,38,38,,,,,,,,,287.77369156198984,,,,,,,,,,,,,,,,,,,,,,,,,,,,,,,,,,,,,,287.7652869739977,287.77369156198984,288.7731142429984,289.7728428919945,289.7728428919945,289.7728428919945,291.24145766699803,left,1.451989698005491,None,,,,,,,,,,,,,,,,,,,,,,,,,,,,,,,,,,,,,,,,,,,809571,001,2024-12-05_13h09.46.267,Test,2024.2.1,59.99883278331856,2024-12-05 13h10.11.498611 +0100,
62,150,150,14,None,39,39,0,True,left,1.2859504639927763,None,,,,,,,,0,39,39,39,,,,,,,,,291.256987034998,,,,,,,,,,,,,,,,,,,,,,,,,,,,,,,,,,,,,,291.24726046399155,291.256987034998,292.2564993949927,293.25597529699735,293.25597529699735,293.25597529699735,294.5574890720018,left,1.2859504639927763,None,,,,,,,,,,,,,,,,,,,,,,,,,,,,,,,,,,,,,,,,,,,809571,001,2024-12-05_13h09.46.267,Test,2024.2.1,59.99883278331856,2024-12-05 13h10.11.498611 +0100,
44,150,30,55,None,40,40,0,True,left,1.4140839899919229,None,,,,,,,,0,40,40,40,,,,,,,,,294.57301534799626,,,,,,,,,,,,,,,,,,,,,,,,,,,,,,,,,,,,,,294.56301339199126,294.57301534799626,295.5734899800009,296.57381080600317,296.57381080600317,296.57381080600317,297.9922996709938,left,1.4140839899919229,None,,,,,,,,,,,,,,,,,,,,,,,,,,,,,,,,,,,,,,,,,,,809571,001,2024-12-05_13h09.46.267,Test,2024.2.1,59.99883278331856,2024-12-05 13h10.11.498611 +0100,
19,150,90,39,None,41,41,0,False,right,1.0849843970063375,None,,,,,,,,0,41,41,41,,,,,,,,,298.0061813850043,,,,,,,,,,,,,,,,,,,,,,,,,,,,,,,,,,,,,,297.9958478109911,298.0061813850043,299.0074966999964,300.00698730499425,300.00698730499425,300.00698730499425,301.1095253379899,right,1.0849843970063375,None,,,,,,,,,,,,,,,,,,,,,,,,,,,,,,,,,,,,,,,,,,,809571,001,2024-12-05_13h09.46.267,Test,2024.2.1,59.99883278331856,2024-12-05 13h10.11.498611 +0100,
53,150,90,47,None,42,42,0,True,left,1.4826186069985852,None,,,,,,,,0,42,42,42,,,,,,,,,301.1251292109955,,,,,,,,,,,,,,,,,,,,,,,,,,,,,,,,,,,,,,301.116420817998,301.1251292109955,302.1241127480025,303.1237351239979,303.1237351239979,303.1237351239979,304.61018022899225,left,1.4826186069985852,None,,,,,,,,,,,,,,,,,,,,,,,,,,,,,,,,,,,,,,,,,,,809571,001,2024-12-05_13h09.46.267,Test,2024.2.1,59.99883278331856,2024-12-05 13h10.11.498611 +0100,
9,150,30,40,None,43,43,0,False,right,1.0790770530002192,None,,,,,,,,0,43,43,43,,,,,,,,,304.6239004340023,,,,,,,,,,,,,,,,,,,,,,,,,,,,,,,,,,,,,,304.61373769899365,304.6239004340023,305.62384629200096,306.6237894419901,306.6237894419901,306.6237894419901,307.70889262999117,right,1.0790770530002192,None,,,,,,,,,,,,,,,,,,,,,,,,,,,,,,,,,,,,,,,,,,,809571,001,2024-12-05_13h09.46.267,Test,2024.2.1,59.99883278331856,2024-12-05 13h10.11.498611 +0100,
60,150,120,11,None,44,44,0,True,left,0.7625734220055165,None,,,,,,,,0,44,44,44,,,,,,,,,307.72498206599266,,,,,,,,,,,,,,,,,,,,,,,,,,,,,,,,,,,,,,307.7162348819984,307.72498206599266,308.72426571699907,309.7073275839939,309.7073275839939,309.7073275839939,310.4760027809971,left,0.7625734220055165,None,,,,,,,,,,,,,,,,,,,,,,,,,,,,,,,,,,,,,,,,,,,809571,001,2024-12-05_13h09.46.267,Test,2024.2.1,59.99883278331856,2024-12-05 13h10.11.498611 +0100,
58,150,120,8,None,45,45,0,True,left,1.0585229710122803,None,,,,,,,,0,45,45,45,,,,,,,,,310.49090902900207,,,,,,,,,,,,,,,,,,,,,,,,,,,,,,,,,,,,,,310.4813066189963,310.49090902900207,311.490805139998,312.49101484600396,312.49101484600396,312.49101484600396,313.56128724500013,left,1.0585229710122803,None,,,,,,,,,,,,,,,,,,,,,,,,,,,,,,,,,,,,,,,,,,,809571,001,2024-12-05_13h09.46.267,Test,2024.2.1,59.99883278331856,2024-12-05 13h10.11.498611 +0100,
46,150,60,44,None,46,46,0,True,right,0.7022649330028798,None,,,,,,,,0,46,46,46,,,,,,,,,313.5771790049912,,,,,,,,,,,,,,,,,,,,,,,,,,,,,,,,,,,,,,313.5682381079969,313.5771790049912,314.5922243709938,315.57481864599686,315.57481864599686,315.57481864599686,316.2936411559931,right,0.7022649330028798,None,,,,,,,,,,,,,,,,,,,,,,,,,,,,,,,,,,,,,,,,,,,809571,001,2024-12-05_13h09.46.267,Test,2024.2.1,59.99883278331856,2024-12-05 13h10.11.498611 +0100,
5,150,0,60,None,47,47,0,False,right,0.8934144679951714,None,,,,,,,,0,47,47,47,,,,,,,,,316.3092458609899,,,,,,,,,,,,,,,,,,,,,,,,,,,,,,,,,,,,,,316.30039290299464,316.3092458609899,317.30880179000087,318.3081829779985,318.3081829779985,318.3081829779985,319.2109923980024,right,0.8934144679951714,None,,,,,,,,,,,,,,,,,,,,,,,,,,,,,,,,,,,,,,,,,,,809571,001,2024-12-05_13h09.46.267,Test,2024.2.1,59.99883278331856,2024-12-05 13h10.11.498611 +0100,
34,150,180,35,None,48,48,0,False,right,1.2511582899896894,None,,,,,,,,0,48,48,48,,,,,,,,,319.22515177300374,,,,,,,,,,,,,,,,,,,,,,,,,,,,,,,,,,,,,,319.21625306099304,319.22515177300374,320.2249721440021,321.2248992679961,321.2248992679961,321.2248992679961,322.49257415899774,right,1.2511582899896894,None,,,,,,,,,,,,,,,,,,,,,,,,,,,,,,,,,,,,,,,,,,,809571,001,2024-12-05_13h09.46.267,Test,2024.2.1,59.99883278331856,2024-12-05 13h10.11.498611 +0100,
70,150,180,25,None,49,49,0,True,left,0.6726508019928588,None,,,,,,,,0,49,49,49,,,,,,,,,322.50789463600086,,,,,,,,,,,,,,,,,,,,,,,,,,,,,,,,,,,,,,322.49946640999406,322.50789463600086,323.5090182839922,324.49191168700054,324.49191168700054,324.49191168700054,325.17765696199785,left,0.6726508019928588,None,,,,,,,,,,,,,,,,,,,,,,,,,,,,,,,,,,,,,,,,,,,809571,001,2024-12-05_13h09.46.267,Test,2024.2.1,59.99883278331856,2024-12-05 13h10.11.498611 +0100,
49,150,60,58,None,50,50,0,True,left,1.3353357140003936,None,,,,,,,,0,50,50,50,,,,,,,,,325.1928941609949,,,,,,,,,,,,,,,,,,,,,,,,,,,,,,,,,,,,,,325.1834517459938,325.1928941609949,326.2090021240001,327.1919930699951,327.1919930699951,327.1919930699951,328.5442119340005,left,1.3353357140003936,None,,,,,,,,,,,,,,,,,,,,,,,,,,,,,,,,,,,,,,,,,,,809571,001,2024-12-05_13h09.46.267,Test,2024.2.1,59.99883278331856,2024-12-05 13h10.11.498611 +0100,
12,150,60,17,None,51,51,0,False,right,0.5224618389911484,None,,,,,,,,0,51,51,51,,,,,,,,,328.56066336999356,,,,,,,,,,,,,,,,,,,,,,,,,,,,,,,,,,,,,,328.55174868200265,328.56066336999356,329.57690830399224,330.5592592769972,330.5592592769972,330.5592592769972,331.09437891199195,right,0.5224618389911484,None,,,,,,,,,,,,,,,,,,,,,,,,,,,,,,,,,,,,,,,,,,,809571,001,2024-12-05_13h09.46.267,Test,2024.2.1,59.99883278331856,2024-12-05 13h10.11.498611 +0100,
11,150,60,20,None,52,52,0,False,right,1.5224890540121123,None,,,,,,,,0,52,52,52,,,,,,,,,331.1100136680034,,,,,,,,,,,,,,,,,,,,,,,,,,,,,,,,,,,,,,331.10114337000414,331.1100136680034,332.12568933999864,333.1089981730038,333.1089981730038,333.1089981730038,334.6443845350004,right,1.5224890540121123,None,,,,,,,,,,,,,,,,,,,,,,,,,,,,,,,,,,,,,,,,,,,809571,001,2024-12-05_13h09.46.267,Test,2024.2.1,59.99883278331856,2024-12-05 13h10.11.498611 +0100,
41,150,30,52,None,53,53,0,True,left,0.7388558280072175,None,,,,,,,,0,53,53,53,,,,,,,,,334.65892952200375,,,,,,,,,,,,,,,,,,,,,,,,,,,,,,,,,,,,,,334.6497775159951,334.65892952200375,335.6602747650031,336.6436331839941,336.6436331839941,336.6436331839941,337.3948593749956,left,0.7388558280072175,None,,,,,,,,,,,,,,,,,,,,,,,,,,,,,,,,,,,,,,,,,,,809571,001,2024-12-05_13h09.46.267,Test,2024.2.1,59.99883278331856,2024-12-05 13h10.11.498611 +0100,
24,150,120,61,None,54,54,0,False,left,1.5689576490112813,None,,,,,,,,0,54,54,54,,,,,,,,,337.41067274298985,,,,,,,,,,,,,,,,,,,,,,,,,,,,,,,,,,,,,,337.4017170439911,337.41067274298985,338.42674685099337,339.4095752860012,339.4095752860012,339.4095752860012,340.99549991798995,left,1.5689576490112813,None,,,,,,,,,,,,,,,,,,,,,,,,,,,,,,,,,,,,,,,,,,,809571,001,2024-12-05_13h09.46.267,Test,2024.2.1,59.99883278331856,2024-12-05 13h10.11.498611 +0100,
14,150,60,32,None,55,55,0,False,right,0.6008164349914296,None,,,,,,,,0,55,55,55,,,,,,,,,341.02512448599737,,,,,,,,,,,,,,,,,,,,,,,,,,,,,,,,,,,,,,341.00227081899357,341.02512448599737,342.0276583090017,343.0109344590019,343.0109344590019,343.0109344590019,343.6288171490014,right,0.6008164349914296,None,,,,,,,,,,,,,,,,,,,,,,,,,,,,,,,,,,,,,,,,,,,809571,001,2024-12-05_13h09.46.267,Test,2024.2.1,59.99883278331856,2024-12-05 13h10.11.498611 +0100,
13,150,60,26,None,56,56,0,False,right,1.1324107340042247,None,,,,,,,,0,56,56,56,,,,,,,,,343.64495717200043,,,,,,,,,,,,,,,,,,,,,,,,,,,,,,,,,,,,,,343.6360772810003,343.64495717200043,344.6599605099909,345.6436296519969,345.6436296519969,345.6436296519969,346.7797989239916,right,1.1324107340042247,None,,,,,,,,,,,,,,,,,,,,,,,,,,,,,,,,,,,,,,,,,,,809571,001,2024-12-05_13h09.46.267,Test,2024.2.1,59.99883278331856,2024-12-05 13h10.11.498611 +0100,
57,150,120,6,None,57,57,0,True,left,1.0686917299899505,None,,,,,,,,0,57,57,57,,,,,,,,,346.7941697139904,,,,,,,,,,,,,,,,,,,,,,,,,,,,,,,,,,,,,,346.78542744099104,346.7941697139904,347.7934027739975,348.79374721499335,348.79374721499335,348.79374721499335,349.8793599950004,left,1.0686917299899505,None,,,,,,,,,,,,,,,,,,,,,,,,,,,,,,,,,,,,,,,,,,,809571,001,2024-12-05_13h09.46.267,Test,2024.2.1,59.99883278331856,2024-12-05 13h10.11.498611 +0100,
15,150,60,42,None,58,58,0,False,right,1.868468179993215,None,,,,,,,,0,58,58,58,,,,,,,,,349.8946284679987,,,,,,,,,,,,,,,,,,,,,,,,,,,,,,,,,,,,,,349.88500206799654,349.8946284679987,350.8935890580033,351.89373043799424,351.89373043799424,351.89373043799424,353.7788922399923,right,1.868468179993215,None,,,,,,,,,,,,,,,,,,,,,,,,,,,,,,,,,,,,,,,,,,,809571,001,2024-12-05_13h09.46.267,Test,2024.2.1,59.99883278331856,2024-12-05 13h10.11.498611 +0100,
26,150,150,13,None,59,59,0,False,left,1.0695175389992073,None,,,,,,,,0,59,59,59,,,,,,,,,353.7946657299908,,,,,,,,,,,,,,,,,,,,,,,,,,,,,,,,,,,,,,353.78564378600277,353.7946657299908,354.7936763530015,355.79358754299756,355.79358754299756,355.79358754299756,356.8797520090011,left,1.0695175389992073,None,,,,,,,,,,,,,,,,,,,,,,,,,,,,,,,,,,,,,,,,,,,809571,001,2024-12-05_13h09.46.267,Test,2024.2.1,59.99883278331856,2024-12-05 13h10.11.498611 +0100,
29,150,150,12,None,60,60,0,False,left,0.6734107969969045,None,,,,,,,,0,60,60,60,,,,,,,,,356.89646707399515,,,,,,,,,,,,,,,,,,,,,,,,,,,,,,,,,,,,,,356.88722249899,356.89646707399515,357.91114850399026,358.8944113320031,358.8944113320031,358.8944113320031,359.5793522430031,left,0.6734107969969045,None,,,,,,,,,,,,,,,,,,,,,,,,,,,,,,,,,,,,,,,,,,,809571,001,2024-12-05_13h09.46.267,Test,2024.2.1,59.99883278331856,2024-12-05 13h10.11.498611 +0100,
18,150,90,7,None,61,61,0,False,right,0.7828848299977835,None,,,,,,,,0,61,61,61,,,,,,,,,359.5955635989958,,,,,,,,,,,,,,,,,,,,,,,,,,,,,,,,,,,,,,359.5862191100023,359.5955635989958,360.6109009569918,361.59470943699125,361.59470943699125,361.59470943699125,362.3808873539965,right,0.7828848299977835,None,,,,,,,,,,,,,,,,,,,,,,,,,,,,,,,,,,,,,,,,,,,809571,001,2024-12-05_13h09.46.267,Test,2024.2.1,59.99883278331856,2024-12-05 13h10.11.498611 +0100,
4,150,0,49,None,62,62,0,False,left,1.0170270950038685,None,,,,,,,,0,62,62,62,,,,,,,,,362.39715507699293,,,,,,,,,,,,,,,,,,,,,,,,,,,,,,,,,,,,,,362.38821183399705,362.39715507699293,363.4113344090001,364.39550863800105,364.39550863800105,364.39550863800105,365.42959072699887,left,1.0170270950038685,None,,,,,,,,,,,,,,,,,,,,,,,,,,,,,,,,,,,,,,,,,,,809571,001,2024-12-05_13h09.46.267,Test,2024.2.1,59.99883278331856,2024-12-05 13h10.11.498611 +0100,
20,150,90,15,None,63,63,0,False,left,0.8181997490028152,None,,,,,,,,0,63,63,63,,,,,,,,,365.44463569499203,,,,,,,,,,,,,,,,,,,,,,,,,,,,,,,,,,,,,,365.43570261199784,365.44463569499203,366.4445776329958,367.4452151919977,367.4452151919977,367.4452151919977,368.28034510200087,left,0.8181997490028152,None,,,,,,,,,,,,,,,,,,,,,,,,,,,,,,,,,,,,,,,,,,,809571,001,2024-12-05_13h09.46.267,Test,2024.2.1,59.99883278331856,2024-12-05 13h10.11.498611 +0100,
2,150,0,51,None,64,64,0,False,left,0.7352351959998487,None,,,,,,,,0,64,64,64,,,,,,,,,368.29575088300044,,,,,,,,,,,,,,,,,,,,,,,,,,,,,,,,,,,,,,368.2859693990031,368.29575088300044,369.29499479300284,370.29495037799643,370.29495037799643,370.29495037799643,371.04638924899336,left,0.7352351959998487,None,,,,,,,,,,,,,,,,,,,,,,,,,,,,,,,,,,,,,,,,,,,809571,001,2024-12-05_13h09.46.267,Test,2024.2.1,59.99883278331856,2024-12-05 13h10.11.498611 +0100,
61,150,150,37,None,65,65,0,True,left,1.3271106449974468,None,,,,,,,,0,65,65,65,,,,,,,,,371.06148559499707,,,,,,,,,,,,,,,,,,,,,,,,,,,,,,,,,,,,,,371.0522472369921,371.06148559499707,372.06175181300205,373.06185052299406,373.06185052299406,373.06185052299406,374.39783196100325,left,1.3271106449974468,None,,,,,,,,,,,,,,,,,,,,,,,,,,,,,,,,,,,,,,,,,,,809571,001,2024-12-05_13h09.46.267,Test,2024.2.1,59.99883278331856,2024-12-05 13h10.11.498611 +0100,
6,150,30,34,None,66,66,0,False,right,0.8344490929885069,None,,,,,,,,0,66,66,66,,,,,,,,,374.4164164949907,,,,,,,,,,,,,,,,,,,,,,,,,,,,,,,,,,,,,,374.4058214569959,374.4164164949907,375.42964802899223,376.4126569880027,376.4126569880027,376.4126569880027,377.26406534400303,right,0.8344490929885069,None,,,,,,,,,,,,,,,,,,,,,,,,,,,,,,,,,,,,,,,,,,,809571,001,2024-12-05_13h09.46.267,Test,2024.2.1,59.99883278331856,2024-12-05 13h10.11.498611 +0100,
52,150,90,36,None,67,67,0,True,left,0.6032908299966948,None,,,,,,,,0,67,67,67,,,,,,,,,377.2800478089921,,,,,,,,,,,,,,,,,,,,,,,,,,,,,,,,,,,,,,377.2711093889957,377.2800478089921,378.29646091599716,379.27907078199496,379.27907078199496,379.27907078199496,379.897639029994,left,0.6032908299966948,None,,,,,,,,,,,,,,,,,,,,,,,,,,,,,,,,,,,,,,,,,,,809571,001,2024-12-05_13h09.46.267,Test,2024.2.1,59.99883278331856,2024-12-05 13h10.11.498611 +0100,
32,150,180,59,None,68,68,0,False,left,0.6276047900028061,None,,,,,,,,0,68,68,68,,,,,,,,,379.91217942899675,,,,,,,,,,,,,,,,,,,,,,,,,,,,,,,,,,,,,,379.90316457099107,379.91217942899675,380.912427984993,381.912463132001,381.912463132001,381.912463132001,382.547649479995,left,0.6276047900028061,None,,,,,,,,,,,,,,,,,,,,,,,,,,,,,,,,,,,,,,,,,,,809571,001,2024-12-05_13h09.46.267,Test,2024.2.1,59.99883278331856,2024-12-05 13h10.11.498611 +0100,
66,150,180,1,None,69,69,0,True,left,0.9310648050013697,None,,,,,,,,0,69,69,69,,,,,,,,,382.57791541999904,,,,,,,,,,,,,,,,,,,,,,,,,,,,,,,,,,,,,,382.55482741499145,382.57791541999904,383.5791701470007,384.5468974719988,384.5468974719988,384.5468974719988,385.48193254799116,left,0.9310648050013697,None,,,,,,,,,,,,,,,,,,,,,,,,,,,,,,,,,,,,,,,,,,,809571,001,2024-12-05_13h09.46.267,Test,2024.2.1,59.99883278331856,2024-12-05 13h10.11.498611 +0100,
,,,,,,,,,,,,,,,,,,,,,,,,,,,,,,,,,,,,,,,,,,,,,,,,,,,,,,,,,,,,,,,,,,,,,,,,,,,,,,,,,,385.48210898299294,385.49629828799516,385.49629828799516,388.6652451150003,space,3.1517766390024917,None,,,,,,,,,,,,,,,,,,,,,,,,,,,,,,,,,809571,001,2024-12-05_13h09.46.267,Test,2024.2.1,59.99883278331856,2024-12-05 13h10.11.498611 +0100,
29,150,150,12,None,0,0,0,,,,,,,,,,,,,,,,0,0,0,28,,,,,388.68734878599935,,,,,,,,,,,,,,,,,,,,,,,,,,,,,,,,,,,,,,,,,,,,,,,,,,,,,,,,,,388.6776493459911,388.68734878599935,388.8795854409982,388.8795854409982,388.89634834899334,390.5800490230031,390.5800490230031,390.56438300499576,,,,,,,,,,,,,,,,,,,,,,,,,809571,001,2024-12-05_13h09.46.267,Test,2024.2.1,59.99883278331856,2024-12-05 13h10.11.498611 +0100,
4,150,0,49,None,1,1,0,,,,,,,,,,,,,,,,0,1,1,3,,,,,390.5800490230031,,,,,,,,,,,,,,,,,,,,,,,,,,,,,,,,,,,,,,,,,,,,,,,,,,,,,,,,,,390.5722306009993,390.5800490230031,390.7794836719986,390.7794836719986,390.7794836719986,392.47941774899664,392.47941774899664,392.463890383995,,,,,,,,,,,,,,,,,,,,,,,,,809571,001,2024-12-05_13h09.46.267,Test,2024.2.1,59.99883278331856,2024-12-05 13h10.11.498611 +0100,
33,150,180,43,None,2,2,0,,,,,,,,,,,,,,,,0,2,2,32,,,,,392.47941774899664,,,,,,,,,,,,,,,,,,,,,,,,,,,,,,,,,,,,,,,,,,,,,,,,,,,,,,,,,,392.4693742849922,392.47941774899664,392.67995132599026,392.67995132599026,392.67995132599026,394.3807032679906,394.3807032679906,394.36455725799897,,,,,,,,,,,,,,,,,,,,,,,,,809571,001,2024-12-05_13h09.46.267,Test,2024.2.1,59.99883278331856,2024-12-05 13h10.11.498611 +0100,
26,150,150,13,None,3,3,0,,,,,,,,,,,,,,,,0,3,3,25,,,,,394.3807032679906,,,,,,,,,,,,,,,,,,,,,,,,,,,,,,,,,,,,,,,,,,,,,,,,,,,,,,,,,,394.37182978799683,394.3807032679906,394.57995003399265,394.57995003399265,394.57995003399265,396.2802564140002,396.2802564140002,396.2650276869972,,,,,,,,,,,,,,,,,,,,,,,,,809571,001,2024-12-05_13h09.46.267,Test,2024.2.1,59.99883278331856,2024-12-05 13h10.11.498611 +0100,
14,150,60,32,None,4,4,0,,,,,,,,,,,,,,,,0,4,4,13,,,,,396.2802564140002,,,,,,,,,,,,,,,,,,,,,,,,,,,,,,,,,,,,,,,,,,,,,,,,,,,,,,,,,,396.2714251909929,396.2802564140002,396.4800209209934,396.4800209209934,396.4800209209934,398.1797431140003,398.1797431140003,398.1642815410014,,,,,,,,,,,,,,,,,,,,,,,,,809571,001,2024-12-05_13h09.46.267,Test,2024.2.1,59.99883278331856,2024-12-05 13h10.11.498611 +0100,
27,150,150,56,None,5,5,0,,,,,,,,,,,,,,,,0,5,5,26,,,,,398.1797431140003,,,,,,,,,,,,,,,,,,,,,,,,,,,,,,,,,,,,,,,,,,,,,,,,,,,,,,,,,,398.1701327759947,398.1797431140003,398.3806653240026,398.3806653240026,398.3806653240026,400.08102899900405,400.08102899900405,400.06505130000005,,,,,,,,,,,,,,,,,,,,,,,,,809571,001,2024-12-05_13h09.46.267,Test,2024.2.1,59.99883278331856,2024-12-05 13h10.11.498611 +0100,
6,150,30,34,None,6,6,0,,,,,,,,,,,,,,,,0,6,6,5,,,,,400.08102899900405,,,,,,,,,,,,,,,,,,,,,,,,,,,,,,,,,,,,,,,,,,,,,,,,,,,,,,,,,,400.07272177399136,400.08102899900405,400.28036832399084,400.28036832399084,400.28036832399084,401.98131225799443,401.98131225799443,401.9651756300009,,,,,,,,,,,,,,,,,,,,,,,,,809571,001,2024-12-05_13h09.46.267,Test,2024.2.1,59.99883278331856,2024-12-05 13h10.11.498611 +0100,
32,150,180,59,None,7,7,0,,,,,,,,,,,,,,,,0,7,7,31,,,,,401.98131225799443,,,,,,,,,,,,,,,,,,,,,,,,,,,,,,,,,,,,,,,,,,,,,,,,,,,,,,,,,,401.97254707799584,401.98131225799443,402.1805764199962,402.1805764199962,402.1805764199962,403.88041093500215,403.88041093500215,403.86539473700395,,,,,,,,,,,,,,,,,,,,,,,,,809571,001,2024-12-05_13h09.46.267,Test,2024.2.1,59.99883278331856,2024-12-05 13h10.11.498611 +0100,
34,150,180,35,None,8,8,0,,,,,,,,,,,,,,,,0,8,8,33,,,,,403.88041093500215,,,,,,,,,,,,,,,,,,,,,,,,,,,,,,,,,,,,,,,,,,,,,,,,,,,,,,,,,,403.87126868899213,403.88041093500215,404.0810729560035,404.0810729560035,404.0810729560035,405.7842202479951,405.7842202479951,405.76596544698987,,,,,,,,,,,,,,,,,,,,,,,,,809571,001,2024-12-05_13h09.46.267,Test,2024.2.1,59.99883278331856,2024-12-05 13h10.11.498611 +0100,
31,150,180,33,None,9,9,0,,,,,,,,,,,,,,,,0,9,9,30,,,,,405.7842202479951,,,,,,,,,,,,,,,,,,,,,,,,,,,,,,,,,,,,,,,,,,,,,,,,,,,,,,,,,,405.77577542599465,405.7842202479951,405.9809540379938,405.9809540379938,405.997479312995,407.6951009899931,407.6951009899931,407.6649946359976,,,,,,,,,,,,,,,,,,,,,,,,,809571,001,2024-12-05_13h09.46.267,Test,2024.2.1,59.99883278331856,2024-12-05 13h10.11.498611 +0100,
3,150,0,67,None,10,10,0,,,,,,,,,,,,,,,,0,10,10,2,,,,,407.6951009899931,,,,,,,,,,,,,,,,,,,,,,,,,,,,,,,,,,,,,,,,,,,,,,,,,,,,,,,,,,407.670804252004,407.6951009899931,407.8815026499942,407.8815026499942,407.89744323499326,409.58064286899753,409.58064286899753,409.56540514799417,,,,,,,,,,,,,,,,,,,,,,,,,809571,001,2024-12-05_13h09.46.267,Test,2024.2.1,59.99883278331856,2024-12-05 13h10.11.498611 +0100,
8,150,30,50,None,11,11,0,,,,,,,,,,,,,,,,0,11,11,7,,,,,409.58064286899753,,,,,,,,,,,,,,,,,,,,,,,,,,,,,,,,,,,,,,,,,,,,,,,,,,,,,,,,,,409.5709615550004,409.58064286899753,409.76442189399677,409.76442189399677,409.78152954899997,411.46478863399534,411.46478863399534,411.4491114830016,,,,,,,,,,,,,,,,,,,,,,,,,809571,001,2024-12-05_13h09.46.267,Test,2024.2.1,59.99883278331856,2024-12-05 13h10.11.498611 +0100,
9,150,30,40,None,12,12,0,,,,,,,,,,,,,,,,0,12,12,8,,,,,411.46478863399534,,,,,,,,,,,,,,,,,,,,,,,,,,,,,,,,,,,,,,,,,,,,,,,,,,,,,,,,,,411.4562118479953,411.46478863399534,411.66447513300227,411.66447513300227,411.66447513300227,413.3646987559914,413.3646987559914,413.34907908999594,,,,,,,,,,,,,,,,,,,,,,,,,809571,001,2024-12-05_13h09.46.267,Test,2024.2.1,59.99883278331856,2024-12-05 13h10.11.498611 +0100,
30,150,150,54,None,13,13,0,,,,,,,,,,,,,,,,0,13,13,29,,,,,413.3646987559914,,,,,,,,,,,,,,,,,,,,,,,,,,,,,,,,,,,,,,,,,,,,,,,,,,,,,,,,,,413.3544919979904,413.3646987559914,413.58096233400283,413.58096233400283,413.5642247509968,415.2813045410003,415.2813045410003,415.2653614739975,,,,,,,,,,,,,,,,,,,,,,,,,809571,001,2024-12-05_13h09.46.267,Test,2024.2.1,59.99883278331856,2024-12-05 13h10.11.498611 +0100,
28,150,150,30,None,14,14,0,,,,,,,,,,,,,,,,0,14,14,27,,,,,415.2813045410003,,,,,,,,,,,,,,,,,,,,,,,,,,,,,,,,,,,,,,,,,,,,,,,,,,,,,,,,,,415.27134277399455,415.2813045410003,415.46464969699446,415.46464969699446,415.4820384189952,417.16519428699394,417.16519428699394,417.1492550489929,,,,,,,,,,,,,,,,,,,,,,,,,809571,001,2024-12-05_13h09.46.267,Test,2024.2.1,59.99883278331856,2024-12-05 13h10.11.498611 +0100,
35,150,180,29,None,15,15,0,,,,,,,,,,,,,,,,0,15,15,34,,,,,417.16519428699394,,,,,,,,,,,,,,,,,,,,,,,,,,,,,,,,,,,,,,,,,,,,,,,,,,,,,,,,,,417.15608996798983,417.16519428699394,417.3655569449911,417.3655569449911,417.3655569449911,419.0647945639939,419.0647945639939,419.04932950399234,,,,,,,,,,,,,,,,,,,,,,,,,809571,001,2024-12-05_13h09.46.267,Test,2024.2.1,59.99883278331856,2024-12-05 13h10.11.498611 +0100,
5,150,0,60,None,16,16,0,,,,,,,,,,,,,,,,0,16,16,4,,,,,419.0647945639939,,,,,,,,,,,,,,,,,,,,,,,,,,,,,,,,,,,,,,,,,,,,,,,,,,,,,,,,,,419.0549203569972,419.0647945639939,419.2655298739992,419.2655298739992,419.2655298739992,420.96541153799626,420.96541153799626,420.94941311299044,,,,,,,,,,,,,,,,,,,,,,,,,809571,001,2024-12-05_13h09.46.267,Test,2024.2.1,59.99883278331856,2024-12-05 13h10.11.498611 +0100,
18,150,90,7,None,17,17,0,,,,,,,,,,,,,,,,0,17,17,17,,,,,420.96541153799626,,,,,,,,,,,,,,,,,,,,,,,,,,,,,,,,,,,,,,,,,,,,,,,,,,,,,,,,,,420.954555024,420.96541153799626,421.1661802890012,421.1661802890012,421.1661802890012,422.8648907129973,422.8648907129973,422.84971330799453,,,,,,,,,,,,,,,,,,,,,,,,,809571,001,2024-12-05_13h09.46.267,Test,2024.2.1,59.99883278331856,2024-12-05 13h10.11.498611 +0100,
10,150,30,19,None,18,18,0,,,,,,,,,,,,,,,,0,18,18,9,,,,,422.8648907129973,,,,,,,,,,,,,,,,,,,,,,,,,,,,,,,,,,,,,,,,,,,,,,,,,,,,,,,,,,422.85567554399313,422.8648907129973,423.0657571969932,423.0657571969932,423.0657571969932,424.76529520099575,424.76529520099575,424.7498387730011,,,,,,,,,,,,,,,,,,,,,,,,,809571,001,2024-12-05_13h09.46.267,Test,2024.2.1,59.99883278331856,2024-12-05 13h10.11.498611 +0100,
23,150,120,57,None,19,19,0,,,,,,,,,,,,,,,,0,19,19,22,,,,,424.76529520099575,,,,,,,,,,,,,,,,,,,,,,,,,,,,,,,,,,,,,,,,,,,,,,,,,,,,,,,,,,424.75580141499813,424.76529520099575,424.96559253599844,424.96559253599844,424.96559253599844,426.66647989499324,426.66647989499324,426.6499787779903,,,,,,,,,,,,,,,,,,,,,,,,,809571,001,2024-12-05_13h09.46.267,Test,2024.2.1,59.99883278331856,2024-12-05 13h10.11.498611 +0100,
11,150,60,20,None,20,20,0,,,,,,,,,,,,,,,,0,20,20,10,,,,,426.66647989499324,,,,,,,,,,,,,,,,,,,,,,,,,,,,,,,,,,,,,,,,,,,,,,,,,,,,,,,,,,426.6582695709949,426.66647989499324,426.8661027509952,426.8661027509952,426.8661027509952,428.5662062189949,428.5662062189949,428.5498724229983,,,,,,,,,,,,,,,,,,,,,,,,,809571,001,2024-12-05_13h09.46.267,Test,2024.2.1,59.99883278331856,2024-12-05 13h10.11.498611 +0100,
16,150,90,31,None,21,21,0,,,,,,,,,,,,,,,,0,21,21,15,,,,,428.5662062189949,,,,,,,,,,,,,,,,,,,,,,,,,,,,,,,,,,,,,,,,,,,,,,,,,,,,,,,,,,428.55691254499834,428.5662062189949,428.76598652299435,428.76598652299435,428.76598652299435,430.4676060389902,430.4676060389902,430.4513532429992,,,,,,,,,,,,,,,,,,,,,,,,,809571,001,2024-12-05_13h09.46.267,Test,2024.2.1,59.99883278331856,2024-12-05 13h10.11.498611 +0100,
24,150,120,61,None,22,22,0,,,,,,,,,,,,,,,,0,22,22,23,,,,,430.4676060389902,,,,,,,,,,,,,,,,,,,,,,,,,,,,,,,,,,,,,,,,,,,,,,,,,,,,,,,,,,430.4595497609989,430.4676060389902,430.666019641998,430.666019641998,430.6824059770006,432.3657942669961,432.3657942669961,432.3502143069927,,,,,,,,,,,,,,,,,,,,,,,,,809571,001,2024-12-05_13h09.46.267,Test,2024.2.1,59.99883278331856,2024-12-05 13h10.11.498611 +0100,
25,150,120,27,None,23,23,0,,,,,,,,,,,,,,,,0,23,23,24,,,,,432.3657942669961,,,,,,,,,,,,,,,,,,,,,,,,,,,,,,,,,,,,,,,,,,,,,,,,,,,,,,,,,,432.3563744409912,432.3657942669961,432.56599035300314,432.56599035300314,432.56599035300314,434.2653368159954,434.2653368159954,434.2505548240006,,,,,,,,,,,,,,,,,,,,,,,,,809571,001,2024-12-05_13h09.46.267,Test,2024.2.1,59.99883278331856,2024-12-05 13h10.11.498611 +0100,
17,150,90,22,None,24,24,0,,,,,,,,,,,,,,,,0,24,24,16,,,,,434.2653368159954,,,,,,,,,,,,,,,,,,,,,,,,,,,,,,,,,,,,,,,,,,,,,,,,,,,,,,,,,,434.2561037419946,434.2653368159954,434.46666434999497,434.46666434999497,434.46666434999497,436.1656525189901,436.1656525189901,436.15041827400273,,,,,,,,,,,,,,,,,,,,,,,,,809571,001,2024-12-05_13h09.46.267,Test,2024.2.1,59.99883278331856,2024-12-05 13h10.11.498611 +0100,
19,150,90,39,None,25,25,0,,,,,,,,,,,,,,,,0,25,25,18,,,,,436.1656525189901,,,,,,,,,,,,,,,,,,,,,,,,,,,,,,,,,,,,,,,,,,,,,,,,,,,,,,,,,,436.15607456999714,436.1656525189901,436.36650227000064,436.36650227000064,436.36650227000064,438.0663133319904,438.0663133319904,438.0506639469968,,,,,,,,,,,,,,,,,,,,,,,,,809571,001,2024-12-05_13h09.46.267,Test,2024.2.1,59.99883278331856,2024-12-05 13h10.11.498611 +0100,
1,150,0,28,None,26,26,0,,,,,,,,,,,,,,,,0,26,26,0,,,,,438.0663133319904,,,,,,,,,,,,,,,,,,,,,,,,,,,,,,,,,,,,,,,,,,,,,,,,,,,,,,,,,,438.05531177899684,438.0663133319904,438.26740012799564,438.26740012799564,438.26740012799564,439.96623979999276,439.96623979999276,439.9511538229999,,,,,,,,,,,,,,,,,,,,,,,,,809571,001,2024-12-05_13h09.46.267,Test,2024.2.1,59.99883278331856,2024-12-05 13h10.11.498611 +0100,
22,150,120,45,None,27,27,0,,,,,,,,,,,,,,,,0,27,27,21,,,,,439.96623979999276,,,,,,,,,,,,,,,,,,,,,,,,,,,,,,,,,,,,,,,,,,,,,,,,,,,,,,,,,,439.95805398699304,439.96623979999276,440.16649596400384,440.16649596400384,440.16649596400384,441.8662083050003,441.8662083050003,441.85103464100393,,,,,,,,,,,,,,,,,,,,,,,,,809571,001,2024-12-05_13h09.46.267,Test,2024.2.1,59.99883278331856,2024-12-05 13h10.11.498611 +0100,
12,150,60,17,None,28,28,0,,,,,,,,,,,,,,,,0,28,28,11,,,,,441.8662083050003,,,,,,,,,,,,,,,,,,,,,,,,,,,,,,,,,,,,,,,,,,,,,,,,,,,,,,,,,,441.8567208549939,441.8662083050003,442.0674749309983,442.0674749309983,442.0674749309983,443.76813843999116,443.76813843999116,443.7516180620005,,,,,,,,,,,,,,,,,,,,,,,,,809571,001,2024-12-05_13h09.46.267,Test,2024.2.1,59.99883278331856,2024-12-05 13h10.11.498611 +0100,
20,150,90,15,None,29,29,0,,,,,,,,,,,,,,,,0,29,29,19,,,,,443.76813843999116,,,,,,,,,,,,,,,,,,,,,,,,,,,,,,,,,,,,,,,,,,,,,,,,,,,,,,,,,,443.759797849998,443.76813843999116,443.9667462819925,443.9667462819925,443.9667462819925,445.666553018993,445.666553018993,445.6515288739902,,,,,,,,,,,,,,,,,,,,,,,,,809571,001,2024-12-05_13h09.46.267,Test,2024.2.1,59.99883278331856,2024-12-05 13h10.11.498611 +0100,
7,150,30,9,None,30,30,0,,,,,,,,,,,,,,,,0,30,30,6,,,,,445.666553018993,,,,,,,,,,,,,,,,,,,,,,,,,,,,,,,,,,,,,,,,,,,,,,,,,,,,,,,,,,445.65735089499503,445.666553018993,445.8673287690035,445.8673287690035,445.8673287690035,447.5677288099978,447.5677288099978,447.5516787989909,,,,,,,,,,,,,,,,,,,,,,,,,809571,001,2024-12-05_13h09.46.267,Test,2024.2.1,59.99883278331856,2024-12-05 13h10.11.498611 +0100,
15,150,60,42,None,31,31,0,,,,,,,,,,,,,,,,0,31,31,14,,,,,447.5677288099978,,,,,,,,,,,,,,,,,,,,,,,,,,,,,,,,,,,,,,,,,,,,,,,,,,,,,,,,,,447.55957850099367,447.5677288099978,447.76680515299086,447.76680515299086,447.7835120910022,449.47043416899396,449.47043416899396,449.45290720999765,,,,,,,,,,,,,,,,,,,,,,,,,809571,001,2024-12-05_13h09.46.267,Test,2024.2.1,59.99883278331856,2024-12-05 13h10.11.498611 +0100,
21,150,120,53,None,32,32,0,,,,,,,,,,,,,,,,0,32,32,20,,,,,449.47043416899396,,,,,,,,,,,,,,,,,,,,,,,,,,,,,,,,,,,,,,,,,,,,,,,,,,,,,,,,,,449.4622854210029,449.47043416899396,449.6676737139933,449.6676737139933,449.68441698199604,451.3678986860032,451.3678986860032,451.35156936600106,,,,,,,,,,,,,,,,,,,,,,,,,809571,001,2024-12-05_13h09.46.267,Test,2024.2.1,59.99883278331856,2024-12-05 13h10.11.498611 +0100,
2,150,0,51,None,33,33,0,,,,,,,,,,,,,,,,0,33,33,1,,,,,451.3678986860032,,,,,,,,,,,,,,,,,,,,,,,,,,,,,,,,,,,,,,,,,,,,,,,,,,,,,,,,,,451.35888716399495,451.3678986860032,451.56761538599676,451.56761538599676,451.56761538599676,453.2672046739899,453.2672046739899,453.25129443299375,,,,,,,,,,,,,,,,,,,,,,,,,809571,001,2024-12-05_13h09.46.267,Test,2024.2.1,59.99883278331856,2024-12-05 13h10.11.498611 +0100,
13,150,60,26,None,34,34,0,,,,,,,,,,,,,,,,0,34,34,12,,,,,453.2672046739899,,,,,,,,,,,,,,,,,,,,,,,,,,,,,,,,,,,,,,,,,,,,,,,,,,,,,,,,,,453.25645871600136,453.2672046739899,453.46856940998987,453.46856940998987,453.46856940998987,455.16755265499523,455.16755265499523,455.1520535210002,,,,,,,,,,,,,,,,,,,,,,,,,809571,001,2024-12-05_13h09.46.267,Test,2024.2.1,59.99883278331856,2024-12-05 13h10.11.498611 +0100,
,,,,,,,,,,,,,,,,,,,,,,,,,,,,,,,,,,,,,,,,,,,,,,,,,,,,,,,,,,,,,,,,,,,,,,,,,,,,,,,,,,,,,,,,,,,,,,,,,455.1522359130031,455.16755265499523,455.16755265499523,468.8865499169915,space,13.70380101900082,None,,,,,,,,,,,,,,,,,,809571,001,2024-12-05_13h09.46.267,Test,2024.2.1,59.99883278331856,2024-12-05 13h10.11.498611 +0100,
38,150,0,18,None,0,0,0,True,,,,left,0.9557988580054371,None,,,,,,,,,,,,,0,0,0,0,468.9107243670005,,,,,,,,,,,,,,,,,,,,,,,,,,,,,,,,,,,,,,,,,,,,,,,,,,,,,,,,,,,,,,,,,,,,,,,,,468.9013944030012,468.9107243670005,469.91871792699385,470.8862214539986,470.8862214539986,470.8862214539986,471.85365333300433,left,0.9557988580054371,None,,,,,,,,809571,001,2024-12-05_13h09.46.267,Test,2024.2.1,59.99883278331856,2024-12-05 13h10.11.498611 +0100,
64,150,150,66,None,1,1,0,True,,,,left,0.811942946005729,None,,,,,,,,,,,,,0,1,1,1,471.88433835699107,,,,,,,,,,,,,,,,,,,,,,,,,,,,,,,,,,,,,,,,,,,,,,,,,,,,,,,,,,,,,,,,,,,,,,,,,471.86117838199425,471.88433835699107,472.8855980669905,473.86899065699254,473.86899065699254,473.86899065699254,474.6876420560002,left,0.811942946005729,None,,,,,,,,809571,001,2024-12-05_13h09.46.267,Test,2024.2.1,59.99883278331856,2024-12-05 13h10.11.498611 +0100,
68,150,180,62,None,2,2,0,True,,,,right,0.943061497004237,None,,,,,,,,,,,,,0,2,2,2,474.70472971299023,,,,,,,,,,,,,,,,,,,,,,,,,,,,,,,,,,,,,,,,,,,,,,,,,,,,,,,,,,,,,,,,,,,,,,,,,474.6946167819988,474.70472971299023,475.71884104199125,476.70293190100347,476.70293190100347,476.70293190100347,477.65389306799625,right,0.943061497004237,None,,,,,,,,809571,001,2024-12-05_13h09.46.267,Test,2024.2.1,59.99883278331856,2024-12-05 13h10.11.498611 +0100,
1,150,0,28,None,3,3,0,False,,,,right,0.7931532420043368,None,,,,,,,,,,,,,0,3,3,3,477.6689674310037,,,,,,,,,,,,,,,,,,,,,,,,,,,,,,,,,,,,,,,,,,,,,,,,,,,,,,,,,,,,,,,,,,,,,,,,,477.65893500100356,477.6689674310037,478.66948114999104,479.6526305699954,479.6526305699954,479.6526305699954,480.45431978200213,right,0.7931532420043368,None,,,,,,,,809571,001,2024-12-05_13h09.46.267,Test,2024.2.1,59.99883278331856,2024-12-05 13h10.11.498611 +0100,
39,150,0,10,None,4,4,0,True,,,,left,0.7731595070072217,None,,,,,,,,,,,,,0,4,4,4,480.4706373230001,,,,,,,,,,,,,,,,,,,,,,,,,,,,,,,,,,,,,,,,,,,,,,,,,,,,,,,,,,,,,,,,,,,,,,,,,480.4617178579938,480.4706373230001,481.47026444299263,482.4527211889945,482.4527211889945,482.4527211889945,483.23769876599545,left,0.7731595070072217,None,,,,,,,,809571,001,2024-12-05_13h09.46.267,Test,2024.2.1,59.99883278331856,2024-12-05 13h10.11.498611 +0100,
8,150,30,50,None,5,5,0,False,,,,left,1.4844250430032844,None,,,,,,,,,,,,,0,5,5,5,483.2530244160007,,,,,,,,,,,,,,,,,,,,,,,,,,,,,,,,,,,,,,,,,,,,,,,,,,,,,,,,,,,,,,,,,,,,,,,,,483.2412459299958,483.2530244160007,484.252901586995,485.25312057699193,485.25312057699193,485.25312057699193,486.7553482259973,left,1.4844250430032844,None,,,,,,,,809571,001,2024-12-05_13h09.46.267,Test,2024.2.1,59.99883278331856,2024-12-05 13h10.11.498611 +0100,
30,150,150,54,None,6,6,0,False,,,,left,0.7501040549977915,None,,,,,,,,,,,,,0,6,6,6,486.7700597229996,,,,,,,,,,,,,,,,,,,,,,,,,,,,,,,,,,,,,,,,,,,,,,,,,,,,,,,,,,,,,,,,,,,,,,,,,486.75889215199277,486.7700597229996,487.7697691170033,488.7698266200023,488.7698266200023,488.7698266200023,489.5229713689914,left,0.7501040549977915,None,,,,,,,,809571,001,2024-12-05_13h09.46.267,Test,2024.2.1,59.99883278331856,2024-12-05 13h10.11.498611 +0100,
51,150,90,16,None,7,7,0,True,,,,right,0.8511286930006463,None,,,,,,,,,,,,,0,7,7,7,489.5380774689984,,,,,,,,,,,,,,,,,,,,,,,,,,,,,,,,,,,,,,,,,,,,,,,,,,,,,,,,,,,,,,,,,,,,,,,,,489.52894950300106,489.5380774689984,490.5538980609999,491.5368074470025,491.5368074470025,491.5368074470025,492.40480012100306,right,0.8511286930006463,None,,,,,,,,809571,001,2024-12-05_13h09.46.267,Test,2024.2.1,59.99883278331856,2024-12-05 13h10.11.498611 +0100,
35,150,180,29,None,8,8,0,False,,,,left,0.6381944849999854,None,,,,,,,,,,,,,0,8,8,8,492.4192015949957,,,,,,,,,,,,,,,,,,,,,,,,,,,,,,,,,,,,,,,,,,,,,,,,,,,,,,,,,,,,,,,,,,,,,,,,,492.408992785,492.4192015949957,493.4204851550021,494.42064910499903,494.42064910499903,494.42064910499903,495.07143455799087,left,0.6381944849999854,None,,,,,,,,809571,001,2024-12-05_13h09.46.267,Test,2024.2.1,59.99883278331856,2024-12-05 13h10.11.498611 +0100,
7,150,30,9,None,9,9,0,False,,,,left,0.8686043389898259,None,,,,,,,,,,,,,0,9,9,9,495.08672249599476,,,,,,,,,,,,,,,,,,,,,,,,,,,,,,,,,,,,,,,,,,,,,,,,,,,,,,,,,,,,,,,,,,,,,,,,,495.07491213399044,495.08672249599476,496.0877775609988,497.07041298299737,497.07041298299737,497.07041298299737,497.9559201910015,left,0.8686043389898259,None,,,,,,,,809571,001,2024-12-05_13h09.46.267,Test,2024.2.1,59.99883278331856,2024-12-05 13h10.11.498611 +0100,
42,150,30,4,None,10,10,0,True,,,,left,0.8505625449906802,None,,,,,,,,,,,,,0,10,10,10,497.97074139799224,,,,,,,,,,,,,,,,,,,,,,,,,,,,,,,,,,,,,,,,,,,,,,,,,,,,,,,,,,,,,,,,,,,,,,,,,497.96185035999224,497.97074139799224,498.9715222859959,499.95480286299426,499.95480286299426,499.95480286299426,500.82185746000323,left,0.8505625449906802,None,,,,,,,,809571,001,2024-12-05_13h09.46.267,Test,2024.2.1,59.99883278331856,2024-12-05 13h10.11.498611 +0100,
28,150,150,30,None,11,11,0,False,,,,left,0.7666373310057679,None,,,,,,,,,,,,,0,11,11,11,500.83720183999685,,,,,,,,,,,,,,,,,,,,,,,,,,,,,,,,,,,,,,,,,,,,,,,,,,,,,,,,,,,,,,,,,,,,,,,,,500.8253729779972,500.83720183999685,501.8376793339994,502.82197910199466,502.82197910199466,502.82197910199466,503.6052459439961,left,0.7666373310057679,None,,,,,,,,809571,001,2024-12-05_13h09.46.267,Test,2024.2.1,59.99883278331856,2024-12-05 13h10.11.498611 +0100,
27,150,150,56,None,12,12,0,False,,,,left,0.8169664640008705,None,,,,,,,,,,,,,0,12,12,12,503.6209401169908,,,,,,,,,,,,,,,,,,,,,,,,,,,,,,,,,,,,,,,,,,,,,,,,,,,,,,,,,,,,,,,,,,,,,,,,,503.608968289991,503.6209401169908,504.62090430599346,505.6055235410022,505.6055235410022,505.6055235410022,506.4397978240013,left,0.8169664640008705,None,,,,,,,,809571,001,2024-12-05_13h09.46.267,Test,2024.2.1,59.99883278331856,2024-12-05 13h10.11.498611 +0100,
36,150,0,2,None,13,13,0,True,,,,left,0.8742210470081773,None,,,,,,,,,,,,,0,13,13,13,506.45433195999067,,,,,,,,,,,,,,,,,,,,,,,,,,,,,,,,,,,,,,,,,,,,,,,,,,,,,,,,,,,,,,,,,,,,,,,,,506.44500311498996,506.45433195999067,507.4544862549956,508.45441286699497,508.45441286699497,508.45441286699497,509.34037876799994,left,0.8742210470081773,None,,,,,,,,809571,001,2024-12-05_13h09.46.267,Test,2024.2.1,59.99883278331856,2024-12-05 13h10.11.498611 +0100,
43,150,30,24,None,14,14,0,True,,,,left,0.8769496269960655,None,,,,,,,,,,,,,0,14,14,14,509.35644136999326,,,,,,,,,,,,,,,,,,,,,,,,,,,,,,,,,,,,,,,,,,,,,,,,,,,,,,,,,,,,,,,,,,,,,,,,,509.34799786499934,509.35644136999326,510.37140664800245,511.3550863080018,511.3550863080018,511.3550863080018,512.2398260079935,left,0.8769496269960655,None,,,,,,,,809571,001,2024-12-05_13h09.46.267,Test,2024.2.1,59.99883278331856,2024-12-05 13h10.11.498611 +0100,
56,150,120,3,None,15,15,0,True,,,,left,0.6669737920019543,None,,,,,,,,,,,,,0,15,15,15,512.2552463129978,,,,,,,,,,,,,,,,,,,,,,,,,,,,,,,,,,,,,,,,,,,,,,,,,,,,,,,,,,,,,,,,,,,,,,,,,512.2453169389919,512.2552463129978,513.254789654995,514.2558829499903,514.2558829499903,514.2558829499903,514.9395616499969,left,0.6669737920019543,None,,,,,,,,809571,001,2024-12-05_13h09.46.267,Test,2024.2.1,59.99883278331856,2024-12-05 13h10.11.498611 +0100,
16,150,90,31,None,16,16,0,False,,,,right,1.2554498579993378,None,,,,,,,,,,,,,0,16,16,16,514.9548368209944,,,,,,,,,,,,,,,,,,,,,,,,,,,,,,,,,,,,,,,,,,,,,,,,,,,,,,,,,,,,,,,,,,,,,,,,,514.943342575003,514.9548368209944,515.9552508159977,516.9555963759922,516.9555963759922,516.9555963759922,518.2237538990012,right,1.2554498579993378,None,,,,,,,,809571,001,2024-12-05_13h09.46.267,Test,2024.2.1,59.99883278331856,2024-12-05 13h10.11.498611 +0100,
45,150,30,65,None,17,17,0,True,,,,left,0.5974041830049828,None,,,,,,,,,,,,,0,17,17,17,518.2391080489906,,,,,,,,,,,,,,,,,,,,,,,,,,,,,,,,,,,,,,,,,,,,,,,,,,,,,,,,,,,,,,,,,,,,,,,,,518.2297508439951,518.2391080489906,519.2389661159978,520.2391472309973,520.2391472309973,520.2391472309973,520.841183106997,left,0.5974041830049828,None,,,,,,,,809571,001,2024-12-05_13h09.46.267,Test,2024.2.1,59.99883278331856,2024-12-05 13h10.11.498611 +0100,
31,150,180,33,None,18,18,0,False,,,,right,2.545651419990463,None,,,,,,,,,,,,,0,18,18,18,520.8551152269938,,,,,,,,,,,,,,,,,,,,,,,,,,,,,,,,,,,,,,,,,,,,,,,,,,,,,,,,,,,,,,,,,,,,,,,,,520.8454396259913,520.8551152269938,521.8553896770027,522.8570214869978,522.8570214869978,522.8570214869978,525.4075359949929,right,2.545651419990463,None,,,,,,,,809571,001,2024-12-05_13h09.46.267,Test,2024.2.1,59.99883278331856,2024-12-05 13h10.11.498611 +0100,
47,150,60,41,None,19,19,0,True,,,,left,1.1065317800093908,None,,,,,,,,,,,,,0,19,19,19,525.4238955100009,,,,,,,,,,,,,,,,,,,,,,,,,,,,,,,,,,,,,,,,,,,,,,,,,,,,,,,,,,,,,,,,,,,,,,,,,525.4149347769999,525.4238955100009,526.4395324770012,527.4227985369944,527.4227985369944,527.4227985369944,528.5430794580025,left,1.1065317800093908,None,,,,,,,,809571,001,2024-12-05_13h09.46.267,Test,2024.2.1,59.99883278331856,2024-12-05 13h10.11.498611 +0100,
69,150,180,68,None,20,20,0,True,,,,right,0.5881522790004965,None,,,,,,,,,,,,,0,20,20,20,528.5587793720042,,,,,,,,,,,,,,,,,,,,,,,,,,,,,,,,,,,,,,,,,,,,,,,,,,,,,,,,,,,,,,,,,,,,,,,,,528.5497010529944,528.5587793720042,529.5734309719992,530.5561758459953,530.5561758459953,530.5561758459953,531.1583376429917,right,0.5881522790004965,None,,,,,,,,809571,001,2024-12-05_13h09.46.267,Test,2024.2.1,59.99883278331856,2024-12-05 13h10.11.498611 +0100,
25,150,120,27,None,21,21,0,False,,,,left,0.6586898239911534,None,,,,,,,,,,,,,0,21,21,21,531.1736175109982,,,,,,,,,,,,,,,,,,,,,,,,,,,,,,,,,,,,,,,,,,,,,,,,,,,,,,,,,,,,,,,,,,,,,,,,,531.1639148039976,531.1736175109982,532.1729399759934,533.172594210002,533.172594210002,533.172594210002,533.8415891119948,left,0.6586898239911534,None,,,,,,,,809571,001,2024-12-05_13h09.46.267,Test,2024.2.1,59.99883278331856,2024-12-05 13h10.11.498611 +0100,
50,150,60,23,None,22,22,0,True,,,,left,0.9560516890051076,None,,,,,,,,,,,,,0,22,22,22,533.8563324069983,,,,,,,,,,,,,,,,,,,,,,,,,,,,,,,,,,,,,,,,,,,,,,,,,,,,,,,,,,,,,,,,,,,,,,,,,533.8470280899928,533.8563324069983,534.8563099759922,535.856505112999,535.856505112999,535.856505112999,536.8242147779965,left,0.9560516890051076,None,,,,,,,,809571,001,2024-12-05_13h09.46.267,Test,2024.2.1,59.99883278331856,2024-12-05 13h10.11.498611 +0100,
55,150,90,70,None,23,23,0,True,,,,left,0.5710217749874573,None,,,,,,,,,,,,,0,23,23,23,536.8396030139993,,,,,,,,,,,,,,,,,,,,,,,,,,,,,,,,,,,,,,,,,,,,,,,,,,,,,,,,,,,,,,,,,,,,,,,,,536.8293421010021,536.8396030139993,537.8403870879993,538.8405724769982,538.8405724769982,538.8405724769982,539.4258291110018,left,0.5710217749874573,None,,,,,,,,809571,001,2024-12-05_13h09.46.267,Test,2024.2.1,59.99883278331856,2024-12-05 13h10.11.498611 +0100,
63,150,150,46,None,24,24,0,True,,,,left,0.5002146350016119,None,,,,,,,,,,,,,0,24,24,24,539.44174358499,,,,,,,,,,,,,,,,,,,,,,,,,,,,,,,,,,,,,,,,,,,,,,,,,,,,,,,,,,,,,,,,,,,,,,,,,539.4334475539945,539.44174358499,540.4570847019932,541.4405394549976,541.4405394549976,541.4405394549976,541.9430455940019,left,0.5002146350016119,None,,,,,,,,809571,001,2024-12-05_13h09.46.267,Test,2024.2.1,59.99883278331856,2024-12-05 13h10.11.498611 +0100,
10,150,30,19,None,25,25,0,False,,,,left,0.5940269459970295,None,,,,,,,,,,,,,0,25,25,25,541.959110137992,,,,,,,,,,,,,,,,,,,,,,,,,,,,,,,,,,,,,,,,,,,,,,,,,,,,,,,,,,,,,,,,,,,,,,,,,541.9505089040031,541.959110137992,542.9736603950005,543.9575179669919,543.9575179669919,543.9575179669919,544.5588250759902,left,0.5940269459970295,None,,,,,,,,809571,001,2024-12-05_13h09.46.267,Test,2024.2.1,59.99883278331856,2024-12-05 13h10.11.498611 +0100,
17,150,90,22,None,26,26,0,False,,,,left,0.5322725550067844,None,,,,,,,,,,,,,0,26,26,26,544.5749989640026,,,,,,,,,,,,,,,,,,,,,,,,,,,,,,,,,,,,,,,,,,,,,,,,,,,,,,,,,,,,,,,,,,,,,,,,,544.5664964500029,544.5749989640026,545.5914106220007,546.5738115599961,546.5738115599961,546.5738115599961,547.1101950439916,left,0.5322725550067844,None,,,,,,,,809571,001,2024-12-05_13h09.46.267,Test,2024.2.1,59.99883278331856,2024-12-05 13h10.11.498611 +0100,
48,150,60,48,None,27,27,0,True,,,,left,0.7775468059990089,None,,,,,,,,,,,,,0,27,27,27,547.1245656749961,,,,,,,,,,,,,,,,,,,,,,,,,,,,,,,,,,,,,,,,,,,,,,,,,,,,,,,,,,,,,,,,,,,,,,,,,547.1160843230027,547.1245656749961,548.1242118369992,549.1245141359977,549.1245141359977,549.1245141359977,549.9091960249934,left,0.7775468059990089,None,,,,,,,,809571,001,2024-12-05_13h09.46.267,Test,2024.2.1,59.99883278331856,2024-12-05 13h10.11.498611 +0100,
54,150,90,69,None,28,28,0,True,,,,right,0.4849779910000507,None,,,,,,,,,,,,,0,28,28,28,549.9252105759952,,,,,,,,,,,,,,,,,,,,,,,,,,,,,,,,,,,,,,,,,,,,,,,,,,,,,,,,,,,,,,,,,,,,,,,,,549.9161502609932,549.9252105759952,550.9408442080021,551.9084852969972,551.9084852969972,551.9084852969972,552.4100463909999,right,0.4849779910000507,None,,,,,,,,809571,001,2024-12-05_13h09.46.267,Test,2024.2.1,59.99883278331856,2024-12-05 13h10.11.498611 +0100,
40,150,0,5,None,29,29,0,True,,,,left,0.6218237220018636,None,,,,,,,,,,,,,0,29,29,29,552.4246918690042,,,,,,,,,,,,,,,,,,,,,,,,,,,,,,,,,,,,,,,,,,,,,,,,,,,,,,,,,,,,,,,,,,,,,,,,,552.4158527440013,552.4246918690042,553.4239768589905,554.4248191060033,554.4248191060033,554.4248191060033,555.0604170559964,left,0.6218237220018636,None,,,,,,,,809571,001,2024-12-05_13h09.46.267,Test,2024.2.1,59.99883278331856,2024-12-05 13h10.11.498611 +0100,
3,150,0,67,None,30,30,0,False,,,,left,0.49476928000513,None,,,,,,,,,,,,,0,30,30,30,555.0756123309984,,,,,,,,,,,,,,,,,,,,,,,,,,,,,,,,,,,,,,,,,,,,,,,,,,,,,,,,,,,,,,,,,,,,,,,,,555.0677064310003,555.0756123309984,556.0756000559923,557.0750819989917,557.0750819989917,557.0750819989917,557.5765134579997,left,0.49476928000513,None,,,,,,,,809571,001,2024-12-05_13h09.46.267,Test,2024.2.1,59.99883278331856,2024-12-05 13h10.11.498611 +0100,
22,150,120,45,None,31,31,0,False,,,,left,0.531669948992203,None,,,,,,,,,,,,,0,31,31,31,557.5917607419979,,,,,,,,,,,,,,,,,,,,,,,,,,,,,,,,,,,,,,,,,,,,,,,,,,,,,,,,,,,,,,,,,,,,,,,,,557.5833409449988,557.5917607419979,558.5911015500023,559.5913282039983,559.5913282039983,559.5913282039983,560.1270346829988,left,0.531669948992203,None,,,,,,,,809571,001,2024-12-05_13h09.46.267,Test,2024.2.1,59.99883278331856,2024-12-05 13h10.11.498611 +0100,
21,150,120,53,None,32,32,0,False,,,,left,0.4922106599988183,None,,,,,,,,,,,,,0,32,32,32,560.1437555519951,,,,,,,,,,,,,,,,,,,,,,,,,,,,,,,,,,,,,,,,,,,,,,,,,,,,,,,,,,,,,,,,,,,,,,,,,560.1345045140042,560.1437555519951,561.1584725239954,562.1420350699918,562.1420350699918,562.1420350699918,562.6431683919945,left,0.4922106599988183,None,,,,,,,,809571,001,2024-12-05_13h09.46.267,Test,2024.2.1,59.99883278331856,2024-12-05 13h10.11.498611 +0100,
59,150,120,38,None,33,33,0,True,,,,left,0.508285435003927,None,,,,,,,,,,,,,0,33,33,33,562.6580349159922,,,,,,,,,,,,,,,,,,,,,,,,,,,,,,,,,,,,,,,,,,,,,,,,,,,,,,,,,,,,,,,,,,,,,,,,,562.6487267439952,562.6580349159922,563.6583923349972,564.6410319930001,564.6410319930001,564.6410319930001,565.1597545529949,left,0.508285435003927,None,,,,,,,,809571,001,2024-12-05_13h09.46.267,Test,2024.2.1,59.99883278331856,2024-12-05 13h10.11.498611 +0100,
67,150,180,21,None,34,34,0,True,,,,right,0.8242409030062845,None,,,,,,,,,,,,,0,34,34,34,565.1751562690042,,,,,,,,,,,,,,,,,,,,,,,,,,,,,,,,,,,,,,,,,,,,,,,,,,,,,,,,,,,,,,,,,,,,,,,,,565.1666181390028,565.1751562690042,566.1756880869943,567.1752237280016,567.1752237280016,567.1752237280016,568.0097043709975,right,0.8242409030062845,None,,,,,,,,809571,001,2024-12-05_13h09.46.267,Test,2024.2.1,59.99883278331856,2024-12-05 13h10.11.498611 +0100,
23,150,120,57,None,35,35,0,False,,,,left,0.5415556209918577,None,,,,,,,,,,,,,0,35,35,35,568.0256489780004,,,,,,,,,,,,,,,,,,,,,,,,,,,,,,,,,,,,,,,,,,,,,,,,,,,,,,,,,,,,,,,,,,,,,,,,,568.0163265439915,568.0256489780004,569.0254295929917,570.0083963679936,570.0083963679936,570.0083963679936,570.5606059400016,left,0.5415556209918577,None,,,,,,,,809571,001,2024-12-05_13h09.46.267,Test,2024.2.1,59.99883278331856,2024-12-05 13h10.11.498611 +0100,
33,150,180,43,None,36,36,0,False,,,,left,0.4770361260016216,None,,,,,,,,,,,,,0,36,36,36,570.57597012099,,,,,,,,,,,,,,,,,,,,,,,,,,,,,,,,,,,,,,,,,,,,,,,,,,,,,,,,,,,,,,,,,,,,,,,,,570.5662691739999,570.57597012099,571.5762536419934,572.5759461389971,572.5759461389971,572.5759461389971,573.0610111799906,left,0.4770361260016216,None,,,,,,,,809571,001,2024-12-05_13h09.46.267,Test,2024.2.1,59.99883278331856,2024-12-05 13h10.11.498611 +0100,
65,150,150,64,None,37,37,0,True,,,,left,0.5571241290017497,None,,,,,,,,,,,,,0,37,37,37,573.0764277639973,,,,,,,,,,,,,,,,,,,,,,,,,,,,,,,,,,,,,,,,,,,,,,,,,,,,,,,,,,,,,,,,,,,,,,,,,573.0674744249991,573.0764277639973,574.0759026619926,575.0757499089959,575.0757499089959,575.0757499089959,575.6442306599929,left,0.5571241290017497,None,,,,,,,,809571,001,2024-12-05_13h09.46.267,Test,2024.2.1,59.99883278331856,2024-12-05 13h10.11.498611 +0100,
37,150,0,63,None,38,38,0,True,,,,left,0.8580640480067814,None,,,,,,,,,,,,,0,38,38,38,575.6601928799937,,,,,,,,,,,,,,,,,,,,,,,,,,,,,,,,,,,,,,,,,,,,,,,,,,,,,,,,,,,,,,,,,,,,,,,,,575.6515531769983,575.6601928799937,576.6597078339983,577.6596593669965,577.6596593669965,577.6596593669965,578.5281640009925,left,0.8580640480067814,None,,,,,,,,809571,001,2024-12-05_13h09.46.267,Test,2024.2.1,59.99883278331856,2024-12-05 13h10.11.498611 +0100,
62,150,150,14,None,39,39,0,True,,,,left,0.5897206430090591,None,,,,,,,,,,,,,0,39,39,39,578.5437590399961,,,,,,,,,,,,,,,,,,,,,,,,,,,,,,,,,,,,,,,,,,,,,,,,,,,,,,,,,,,,,,,,,,,,,,,,,578.5339837639913,578.5437590399961,579.5430914519966,580.5427200409904,580.5427200409904,580.5427200409904,581.1445324529923,left,0.5897206430090591,None,,,,,,,,809571,001,2024-12-05_13h09.46.267,Test,2024.2.1,59.99883278331856,2024-12-05 13h10.11.498611 +0100,
44,150,30,55,None,40,40,0,True,,,,left,1.054750849987613,None,,,,,,,,,,,,,0,40,40,40,581.1592140949942,,,,,,,,,,,,,,,,,,,,,,,,,,,,,,,,,,,,,,,,,,,,,,,,,,,,,,,,,,,,,,,,,,,,,,,,,581.150059031992,581.1592140949942,582.159562476998,583.1597441670019,583.1597441670019,583.1597441670019,584.2281967430026,left,1.054750849987613,None,,,,,,,,809571,001,2024-12-05_13h09.46.267,Test,2024.2.1,59.99883278331856,2024-12-05 13h10.11.498611 +0100,
19,150,90,39,None,41,41,0,False,,,,left,0.9677755070006242,None,,,,,,,,,,,,,0,41,41,41,584.2432677219913,,,,,,,,,,,,,,,,,,,,,,,,,,,,,,,,,,,,,,,,,,,,,,,,,,,,,,,,,,,,,,,,,,,,,,,,,584.2341132479924,584.2432677219913,585.2436071979901,586.2435420429974,586.2435420429974,586.2435420429974,587.2283583739918,left,0.9677755070006242,None,,,,,,,,809571,001,2024-12-05_13h09.46.267,Test,2024.2.1,59.99883278331856,2024-12-05 13h10.11.498611 +0100,
53,150,90,47,None,42,42,0,True,,,,right,0.9590575420006644,None,,,,,,,,,,,,,0,42,42,42,587.2446235410025,,,,,,,,,,,,,,,,,,,,,,,,,,,,,,,,,,,,,,,,,,,,,,,,,,,,,,,,,,,,,,,,,,,,,,,,,587.235718580996,587.2446235410025,588.2435021529964,589.2278370799904,589.2278370799904,589.2278370799904,590.194980514003,right,0.9590575420006644,None,,,,,,,,809571,001,2024-12-05_13h09.46.267,Test,2024.2.1,59.99883278331856,2024-12-05 13h10.11.498611 +0100,
9,150,30,40,None,43,43,0,False,,,,left,0.585837218008237,None,,,,,,,,,,,,,0,43,43,43,590.2106112909969,,,,,,,,,,,,,,,,,,,,,,,,,,,,,,,,,,,,,,,,,,,,,,,,,,,,,,,,,,,,,,,,,,,,,,,,,590.2017593199998,590.2106112909969,591.2105816609983,592.2104313680029,592.2104313680029,592.2104313680029,592.8120195829979,left,0.585837218008237,None,,,,,,,,809571,001,2024-12-05_13h09.46.267,Test,2024.2.1,59.99883278331856,2024-12-05 13h10.11.498611 +0100,
60,150,120,11,None,44,44,0,True,,,,left,0.8255420930072432,None,,,,,,,,,,,,,0,44,44,44,592.8284055709955,,,,,,,,,,,,,,,,,,,,,,,,,,,,,,,,,,,,,,,,,,,,,,,,,,,,,,,,,,,,,,,,,,,,,,,,,592.8186150169931,592.8284055709955,593.8437932759989,594.8113612610032,594.8113612610032,594.8113612610032,595.6457553170039,left,0.8255420930072432,None,,,,,,,,809571,001,2024-12-05_13h09.46.267,Test,2024.2.1,59.99883278331856,2024-12-05 13h10.11.498611 +0100,
58,150,120,8,None,45,45,0,True,,,,left,0.9851677199912956,None,,,,,,,,,,,,,0,45,45,45,595.6629289039993,,,,,,,,,,,,,,,,,,,,,,,,,,,,,,,,,,,,,,,,,,,,,,,,,,,,,,,,,,,,,,,,,,,,,,,,,595.6534912630013,595.6629289039993,596.6770080150018,597.6601974249934,597.6601974249934,597.6601974249934,598.6629245029908,left,0.9851677199912956,None,,,,,,,,809571,001,2024-12-05_13h09.46.267,Test,2024.2.1,59.99883278331856,2024-12-05 13h10.11.498611 +0100,
46,150,60,44,None,46,46,0,True,,,,left,0.6215706310031237,None,,,,,,,,,,,,,0,46,46,46,598.6836910720012,,,,,,,,,,,,,,,,,,,,,,,,,,,,,,,,,,,,,,,,,,,,,,,,,,,,,,,,,,,,,,,,,,,,,,,,,598.6756305699964,598.6836910720012,599.6940129699942,600.6771393119998,600.6771393119998,600.6771393119998,601.3120139879902,left,0.6215706310031237,None,,,,,,,,809571,001,2024-12-05_13h09.46.267,Test,2024.2.1,59.99883278331856,2024-12-05 13h10.11.498611 +0100,
5,150,0,60,None,47,47,0,False,,,,right,0.8890859880048083,None,,,,,,,,,,,,,0,47,47,47,601.3290735320043,,,,,,,,,,,,,,,,,,,,,,,,,,,,,,,,,,,,,,,,,,,,,,,,,,,,,,,,,,,,,,,,,,,,,,,,,601.3203506589925,601.3290735320043,602.3439455280022,603.3276266559988,603.3276266559988,603.3276266559988,604.229642456994,right,0.8890859880048083,None,,,,,,,,809571,001,2024-12-05_13h09.46.267,Test,2024.2.1,59.99883278331856,2024-12-05 13h10.11.498611 +0100,
34,150,180,35,None,48,48,0,False,,,,left,0.6373957230098313,None,,,,,,,,,,,,,0,48,48,48,604.2498744420009,,,,,,,,,,,,,,,,,,,,,,,,,,,,,,,,,,,,,,,,,,,,,,,,,,,,,,,,,,,,,,,,,,,,,,,,,604.2423063159949,604.2498744420009,605.2608620059909,606.2446932789899,606.2446932789899,606.2446932789899,606.8959805689956,left,0.6373957230098313,None,,,,,,,,809571,001,2024-12-05_13h09.46.267,Test,2024.2.1,59.99883278331856,2024-12-05 13h10.11.498611 +0100,
70,150,180,25,None,49,49,0,True,,,,left,0.572957676005899,None,,,,,,,,,,,,,0,49,49,49,606.9121878759906,,,,,,,,,,,,,,,,,,,,,,,,,,,,,,,,,,,,,,,,,,,,,,,,,,,,,,,,,,,,,,,,,,,,,,,,,606.9035973970022,606.9121878759906,607.9112604779948,608.9113523959968,608.9113523959968,608.9113523959968,609.4964665409934,left,0.572957676005899,None,,,,,,,,809571,001,2024-12-05_13h09.46.267,Test,2024.2.1,59.99883278331856,2024-12-05 13h10.11.498611 +0100,
49,150,60,58,None,50,50,0,True,,,,right,0.4969068530044751,None,,,,,,,,,,,,,0,50,50,50,609.5123493589927,,,,,,,,,,,,,,,,,,,,,,,,,,,,,,,,,,,,,,,,,,,,,,,,,,,,,,,,,,,,,,,,,,,,,,,,,609.502609335992,609.5123493589927,610.5277848659898,611.5119287559937,611.5119287559937,611.5119287559937,612.0151213289937,right,0.4969068530044751,None,,,,,,,,809571,001,2024-12-05_13h09.46.267,Test,2024.2.1,59.99883278331856,2024-12-05 13h10.11.498611 +0100,
12,150,60,17,None,51,51,0,False,,,,right,0.7943472810002277,None,,,,,,,,,,,,,0,51,51,51,612.0328117979952,,,,,,,,,,,,,,,,,,,,,,,,,,,,,,,,,,,,,,,,,,,,,,,,,,,,,,,,,,,,,,,,,,,,,,,,,612.0230362290022,612.0328117979952,613.0447142589983,614.0284819789958,614.0284819789958,614.0284819789958,614.8301660080033,right,0.7943472810002277,None,,,,,,,,809571,001,2024-12-05_13h09.46.267,Test,2024.2.1,59.99883278331856,2024-12-05 13h10.11.498611 +0100,
11,150,60,20,None,52,52,0,False,,,,left,0.8045869149937062,None,,,,,,,,,,,,,0,52,52,52,614.8460150390019,,,,,,,,,,,,,,,,,,,,,,,,,,,,,,,,,,,,,,,,,,,,,,,,,,,,,,,,,,,,,,,,,,,,,,,,,614.8362536369968,614.8460150390019,615.8450312269997,616.8453000949958,616.8453000949958,616.8453000949958,617.6636385219899,left,0.8045869149937062,None,,,,,,,,809571,001,2024-12-05_13h09.46.267,Test,2024.2.1,59.99883278331856,2024-12-05 13h10.11.498611 +0100,
41,150,30,52,None,53,53,0,True,,,,left,0.8797116319910856,None,,,,,,,,,,,,,0,53,53,53,617.6785764959932,,,,,,,,,,,,,,,,,,,,,,,,,,,,,,,,,,,,,,,,,,,,,,,,,,,,,,,,,,,,,,,,,,,,,,,,,617.6692932320002,617.6785764959932,618.6784929299902,619.6783791310008,619.6783791310008,619.6783791310008,620.5646491099906,left,0.8797116319910856,None,,,,,,,,809571,001,2024-12-05_13h09.46.267,Test,2024.2.1,59.99883278331856,2024-12-05 13h10.11.498611 +0100,
24,150,120,61,None,54,54,0,False,,,,left,0.5915663030027645,None,,,,,,,,,,,,,0,54,54,54,620.5798613209918,,,,,,,,,,,,,,,,,,,,,,,,,,,,,,,,,,,,,,,,,,,,,,,,,,,,,,,,,,,,,,,,,,,,,,,,,620.5703131890041,620.5798613209918,621.5959685359994,622.5626827529923,622.5626827529923,622.5626827529923,623.1651936069975,left,0.5915663030027645,None,,,,,,,,809571,001,2024-12-05_13h09.46.267,Test,2024.2.1,59.99883278331856,2024-12-05 13h10.11.498611 +0100,
14,150,60,32,None,55,55,0,False,,,,right,1.205060381005751,None,,,,,,,,,,,,,0,55,55,55,623.1820820779976,,,,,,,,,,,,,,,,,,,,,,,,,,,,,,,,,,,,,,,,,,,,,,,,,,,,,,,,,,,,,,,,,,,,,,,,,623.1731401169964,623.1820820779976,624.1952209909941,625.1793633539928,625.1793633539928,625.1793633539928,626.3973871560011,right,1.205060381005751,None,,,,,,,,809571,001,2024-12-05_13h09.46.267,Test,2024.2.1,59.99883278331856,2024-12-05 13h10.11.498611 +0100,
13,150,60,26,None,56,56,0,False,,,,left,0.6306859050091589,None,,,,,,,,,,,,,0,56,56,56,626.4187964040029,,,,,,,,,,,,,,,,,,,,,,,,,,,,,,,,,,,,,,,,,,,,,,,,,,,,,,,,,,,,,,,,,,,,,,,,,626.4025122500025,626.4187964040029,627.4298369610042,628.4128518880025,628.4128518880025,628.4128518880025,629.0481920089951,left,0.6306859050091589,None,,,,,,,,809571,001,2024-12-05_13h09.46.267,Test,2024.2.1,59.99883278331856,2024-12-05 13h10.11.498611 +0100,
57,150,120,6,None,57,57,0,True,,,,left,0.585504131988273,None,,,,,,,,,,,,,0,57,57,57,629.0776544709952,,,,,,,,,,,,,,,,,,,,,,,,,,,,,,,,,,,,,,,,,,,,,,,,,,,,,,,,,,,,,,,,,,,,,,,,,629.0552858949959,629.0776544709952,630.0797108279949,631.0625466990023,631.0625466990023,631.0625466990023,631.6643593089975,left,0.585504131988273,None,,,,,,,,809571,001,2024-12-05_13h09.46.267,Test,2024.2.1,59.99883278331856,2024-12-05 13h10.11.498611 +0100,
15,150,60,42,None,58,58,0,False,,,,left,0.5696775199903641,None,,,,,,,,,,,,,0,58,58,58,631.6792088099901,,,,,,,,,,,,,,,,,,,,,,,,,,,,,,,,,,,,,,,,,,,,,,,,,,,,,,,,,,,,,,,,,,,,,,,,,631.6705986649904,631.6792088099901,632.6801474620006,633.6915642599924,633.6915642599924,633.6915642599924,634.2657461369963,left,0.5696775199903641,None,,,,,,,,809571,001,2024-12-05_13h09.46.267,Test,2024.2.1,59.99883278331856,2024-12-05 13h10.11.498611 +0100,
26,150,150,13,None,59,59,0,False,,,,left,0.5235232359991642,None,,,,,,,,,,,,,0,59,59,59,634.2803137599985,,,,,,,,,,,,,,,,,,,,,,,,,,,,,,,,,,,,,,,,,,,,,,,,,,,,,,,,,,,,,,,,,,,,,,,,,634.2713787160028,634.2803137599985,635.2799728819955,636.2801411319961,636.2801411319961,636.2801411319961,636.8152964710025,left,0.5235232359991642,None,,,,,,,,809571,001,2024-12-05_13h09.46.267,Test,2024.2.1,59.99883278331856,2024-12-05 13h10.11.498611 +0100,
29,150,150,12,None,60,60,0,False,,,,left,0.9390803960122867,None,,,,,,,,,,,,,0,60,60,60,636.8302933029918,,,,,,,,,,,,,,,,,,,,,,,,,,,,,,,,,,,,,,,,,,,,,,,,,,,,,,,,,,,,,,,,,,,,,,,,,636.8215204360022,636.8302933029918,637.8304123699927,638.8301507159922,638.8301507159922,638.8301507159922,639.7819399879954,left,0.9390803960122867,None,,,,,,,,809571,001,2024-12-05_13h09.46.267,Test,2024.2.1,59.99883278331856,2024-12-05 13h10.11.498611 +0100,
18,150,90,7,None,61,61,0,False,,,,right,0.8815486690000398,None,,,,,,,,,,,,,0,61,61,61,639.7970215739915,,,,,,,,,,,,,,,,,,,,,,,,,,,,,,,,,,,,,,,,,,,,,,,,,,,,,,,,,,,,,,,,,,,,,,,,,639.7872133199999,639.7970215739915,640.7961275849957,641.7972058529995,641.7972058529995,641.7972058529995,642.6826329589967,right,0.8815486690000398,None,,,,,,,,809571,001,2024-12-05_13h09.46.267,Test,2024.2.1,59.99883278331856,2024-12-05 13h10.11.498611 +0100,
4,150,0,49,None,62,62,0,False,,,,left,0.5401352870103437,None,,,,,,,,,,,,,0,62,62,62,642.6973292890034,,,,,,,,,,,,,,,,,,,,,,,,,,,,,,,,,,,,,,,,,,,,,,,,,,,,,,,,,,,,,,,,,,,,,,,,,642.6882295179967,642.6973292890034,643.6971866730019,644.6971838289901,644.6971838289901,644.6971838289901,645.2489010239951,left,0.5401352870103437,None,,,,,,,,809571,001,2024-12-05_13h09.46.267,Test,2024.2.1,59.99883278331856,2024-12-05 13h10.11.498611 +0100,
20,150,90,15,None,63,63,0,False,,,,left,0.4890994579909602,None,,,,,,,,,,,,,0,63,63,63,645.2650678200007,,,,,,,,,,,,,,,,,,,,,,,,,,,,,,,,,,,,,,,,,,,,,,,,,,,,,,,,,,,,,,,,,,,,,,,,,645.2552022719901,645.2650678200007,646.2805017740029,647.2641777370009,647.2641777370009,647.2641777370009,647.7655920039979,left,0.4890994579909602,None,,,,,,,,809571,001,2024-12-05_13h09.46.267,Test,2024.2.1,59.99883278331856,2024-12-05 13h10.11.498611 +0100,
2,150,0,51,None,64,64,0,False,,,,left,0.6181530149915488,None,,,,,,,,,,,,,0,64,64,64,647.7812581839971,,,,,,,,,,,,,,,,,,,,,,,,,,,,,,,,,,,,,,,,,,,,,,,,,,,,,,,,,,,,,,,,,,,,,,,,,647.7723874069925,647.7812581839971,648.7810160189983,649.7811547140009,649.7811547140009,649.7811547140009,650.4160236860043,left,0.6181530149915488,None,,,,,,,,809571,001,2024-12-05_13h09.46.267,Test,2024.2.1,59.99883278331856,2024-12-05 13h10.11.498611 +0100,
61,150,150,37,None,65,65,0,True,,,,left,0.8343637650104938,None,,,,,,,,,,,,,0,65,65,65,650.445880239,,,,,,,,,,,,,,,,,,,,,,,,,,,,,,,,,,,,,,,,,,,,,,,,,,,,,,,,,,,,,,,,,,,,,,,,,650.4234823699953,650.445880239,651.4478415039921,652.4311354559904,652.4311354559904,652.4311354559904,653.2675885359931,left,0.8343637650104938,None,,,,,,,,809571,001,2024-12-05_13h09.46.267,Test,2024.2.1,59.99883278331856,2024-12-05 13h10.11.498611 +0100,
6,150,30,34,None,66,66,0,False,,,,left,0.9340095150109846,None,,,,,,,,,,,,,0,66,66,66,653.2857481279934,,,,,,,,,,,,,,,,,,,,,,,,,,,,,,,,,,,,,,,,,,,,,,,,,,,,,,,,,,,,,,,,,,,,,,,,,653.2765111609915,653.2857481279934,654.2982522169914,655.2811596099928,655.2811596099928,655.2811596099928,656.2177965949959,left,0.9340095150109846,None,,,,,,,,809571,001,2024-12-05_13h09.46.267,Test,2024.2.1,59.99883278331856,2024-12-05 13h10.11.498611 +0100,
52,150,90,36,None,67,67,0,True,,,,left,0.945007844013162,None,,,,,,,,,,,,,0,67,67,67,656.2361689200043,,,,,,,,,,,,,,,,,,,,,,,,,,,,,,,,,,,,,,,,,,,,,,,,,,,,,,,,,,,,,,,,,,,,,,,,,656.2269764130033,656.2361689200043,657.2479934049916,658.2317094549944,658.2317094549944,658.2317094549944,659.183500803003,left,0.945007844013162,None,,,,,,,,809571,001,2024-12-05_13h09.46.267,Test,2024.2.1,59.99883278331856,2024-12-05 13h10.11.498611 +0100,
32,150,180,59,None,68,68,0,False,,,,left,0.5387213729991345,None,,,,,,,,,,,,,0,68,68,68,659.1988821249979,,,,,,,,,,,,,,,,,,,,,,,,,,,,,,,,,,,,,,,,,,,,,,,,,,,,,,,,,,,,,,,,,,,,,,,,,659.1902647399984,659.1988821249979,660.1985980460013,661.1979272280005,661.1979272280005,661.1979272280005,661.7503205949906,left,0.5387213729991345,None,,,,,,,,809571,001,2024-12-05_13h09.46.267,Test,2024.2.1,59.99883278331856,2024-12-05 13h10.11.498611 +0100,
66,150,180,1,None,69,69,0,True,,,,left,0.7428032680036267,None,,,,,,,,,,,,,0,69,69,69,661.7647785869922,,,,,,,,,,,,,,,,,,,,,,,,,,,,,,,,,,,,,,,,,,,,,,,,,,,,,,,,,,,,,,,,,,,,,,,,,661.7556611369946,661.7647785869922,662.7653318939992,663.7651795889979,663.7651795889979,663.7651795889979,664.5164590060012,left,0.7428032680036267,None,,,,,,,,809571,001,2024-12-05_13h09.46.267,Test,2024.2.1,59.99883278331856,2024-12-05 13h10.11.498611 +0100,
,,,,,,,,,,,,,,,,,,,,,,,,,,,,,,,,,,,,,,,,,,,,,,,,,,,,,,,,,,,,,,,,,,,,,,,,,,,,,,,,,,,,,,,,,,,,,,,,,,,,,,,,,,,,,,,,,,664.5166491349955,664.5321765139961,664.5321765139961,666.5671486520005,space,2.0179883360106032,None,809571,001,2024-12-05_13h09.46.267,Test,2024.2.1,59.99883278331856,2024-12-05 13h10.11.498611 +0100,
