Trial_Number,Exposure_Duration,Displacement_Angle,Stimulus,Response,thisN,thisTrialN,thisRepN,Is_Distractor,key_resp_3.keys,key_resp_3.rt,key_resp_3.duration,key_resp_7.keys,key_resp_7.rt,key_resp_7.duration,trials.thisRepN,trials.thisTrialN,trials.thisN,trials.thisIndex,trials_2.thisRepN,trials_2.thisTrialN,trials_2.thisN,trials_2.thisIndex,trials_3.thisRepN,trials_3.thisTrialN,trials_3.thisN,trials_3.thisIndex,trials_4.thisRepN,trials_4.thisTrialN,trials_4.thisN,trials_4.thisIndex,thisRow.t,notes,Intro_to_experiment.started,important1_2.started,key_resp_8.started,Intro_to_experiment.stopped,key_resp_8.keys,key_resp_8.rt,key_resp_8.duration,important.started,important1.started,key_resp_4.started,important.stopped,key_resp_4.keys,key_resp_4.rt,key_resp_4.duration,training_instruction.started,key_resp_9.started,important1_3.started,training_instruction.stopped,key_resp_9.keys,key_resp_9.rt,key_resp_9.duration,training_trial.started,cross.started,image.started,aperture.started,cross.stopped,image.stopped,aperture.stopped,training_trial.stopped,New_instruction.started,text.started,key_resp_2.started,New_instruction.stopped,key_resp_2.keys,key_resp_2.rt,key_resp_2.duration,test_trial.started,cross2.started,cross2.stopped,image_2.started,key_resp_3.started,aperture_2.started,test_trial.stopped,trials_2.key_resp_3.keys,trials_2.key_resp_3.rt,trials_2.key_resp_3.duration,image_2.stopped,aperture_2.stopped,text_3.started,start_blok_2.started,key_resp_5.started,text_4.started,start_blok_2.stopped,key_resp_5.keys,key_resp_5.rt,key_resp_5.duration,training_2.started,cross_2.started,image_3.started,aperture_3.started,cross_2.stopped,image_3.stopped,aperture_3.stopped,training_2.stopped,nyeste_instruks.started,text_5.started,key_resp_6.started,nyeste_instruks.stopped,key_resp_6.keys,key_resp_6.rt,key_resp_6.duration,test_2.started,cross2_2.started,cross2_2.stopped,image_4.started,key_resp_7.started,aperture_4.started,test_2.stopped,trials_4.key_resp_7.keys,trials_4.key_resp_7.rt,trials_4.key_resp_7.duration,image_4.stopped,aperture_4.stopped,text_6.started,Instruction.started,Instruktion.started,key_resp.started,Instruction.stopped,key_resp.keys,key_resp.rt,key_resp.duration,participant,session,date,expName,psychopyVersion,frameRate,expStart,
,,,,,,,,,,,,,,,,,,,,,,,,,,,,,,,,,0.005954207998001948,0.012291332997847348,0.012291332997847348,5.721596082992619,space,5.680719790994772,None,,,,,,,,,,,,,,,,,,,,,,,,,,,,,,,,,,,,,,,,,,,,,,,,,,,,,,,,,,,,,,,,,,,,,,,,,,,,,,,,,,,,,815228,001,2024-11-21_15h10.14.871,Test,2024.2.4,None,2024-11-21 15h10.31.219460 +0100,
,,,,,,,,,,,,,,,,,,,,,,,,,,,,,,,,,,,,,,,,5.7216559160006,5.736014999987674,5.736014999987674,6.294488957995782,space,0.5510689170041587,None,,,,,,,,,,,,,,,,,,,,,,,,,,,,,,,,,,,,,,,,,,,,,,,,,,,,,,,,,,,,,,,,,,,,,,,,,,,,,,815228,001,2024-11-21_15h10.14.871,Test,2024.2.4,None,2024-11-21 15h10.31.219460 +0100,
,,,,,,,,,,,,,,,,,,,,,,,,,,,,,,,,,,,,,,,,,,,,,,,6.294580290996237,6.306808415989508,6.306808415989508,6.787817874996108,space,0.47535408299881965,None,,,,,,,,,,,,,,,,,,,,,,,,,,,,,,,,,,,,,,,,,,,,,,,,,,,,,,,,,,,,,,,,,,,,,,,815228,001,2024-11-21_15h10.14.871,Test,2024.2.4,None,2024-11-21 15h10.31.219460 +0100,
33,150,180,21,None,0,0,0,,,,,,,,0,0,0,32,,,,,,,,,,,,,6.841117124989978,,,,,,,,,,,,,,,,,,,,,,,6.833300290993066,6.841117124989978,6.985183374999906,6.985183374999906,7.039090624995879,8.686216124988277,8.686216124988277,8.670233582990477,,,,,,,,,,,,,,,,,,,,,,,,,,,,,,,,,,,,,,,,,,,,,,,,,,,,,,,,,,,,,,,815228,001,2024-11-21_15h10.14.871,Test,2024.2.4,None,2024-11-21 15h10.31.219460 +0100,
17,150,90,26,None,1,1,0,,,,,,,,0,1,1,16,,,,,,,,,,,,,8.686216124988277,,,,,,,,,,,,,,,,,,,,,,,8.6812666659971,8.702721082998323,8.889895874992362,8.889895874992362,8.903539915991132,10.588844540994614,10.588844540994614,10.575504915992497,,,,,,,,,,,,,,,,,,,,,,,,,,,,,,,,,,,,,,,,,,,,,,,,,,,,,,,,,,,,,,,815228,001,2024-11-21_15h10.14.871,Test,2024.2.4,None,2024-11-21 15h10.31.219460 +0100,
35,150,180,1,None,2,2,0,,,,,,,,0,2,2,34,,,,,,,,,,,,,10.588844540994614,,,,,,,,,,,,,,,,,,,,,,,10.58442037498753,10.588844540994614,10.786080790989217,10.786080790989217,10.786080790989217,12.487279624998337,12.487279624998337,12.470178332994692,,,,,,,,,,,,,,,,,,,,,,,,,,,,,,,,,,,,,,,,,,,,,,,,,,,,,,,,,,,,,,,815228,001,2024-11-21_15h10.14.871,Test,2024.2.4,None,2024-11-21 15h10.31.219460 +0100,
4,150,0,44,None,3,3,0,,,,,,,,0,3,3,3,,,,,,,,,,,,,12.487279624998337,,,,,,,,,,,,,,,,,,,,,,,12.482573999994202,12.502610874988022,12.686185624988866,12.686185624988866,12.6926403749967,14.38380633298948,14.38380633298948,14.370290708000539,,,,,,,,,,,,,,,,,,,,,,,,,,,,,,,,,,,,,,,,,,,,,,,,,,,,,,,,,,,,,,,815228,001,2024-11-21_15h10.14.871,Test,2024.2.4,None,2024-11-21 15h10.31.219460 +0100,
9,150,30,4,None,4,4,0,,,,,,,,0,4,4,8,,,,,,,,,,,,,14.38380633298948,,,,,,,,,,,,,,,,,,,,,,,14.379127415988478,14.388071207999019,14.586073582991958,14.586073582991958,14.586073582991958,16.287506374996156,16.287506374996156,16.270722999994177,,,,,,,,,,,,,,,,,,,,,,,,,,,,,,,,,,,,,,,,,,,,,,,,,,,,,,,,,,,,,,,815228,001,2024-11-21_15h10.14.871,Test,2024.2.4,None,2024-11-21 15h10.31.219460 +0100,
28,150,150,65,None,5,5,0,,,,,,,,0,5,5,27,,,,,,,,,,,,,16.287506374996156,,,,,,,,,,,,,,,,,,,,,,,16.28267504098767,16.302727332993527,16.486085332988296,16.486085332988296,16.492313499999,18.18529333299375,18.18529333299375,18.170790707998094,,,,,,,,,,,,,,,,,,,,,,,,,,,,,,,,,,,,,,,,,,,,,,,,,,,,,,,,,,,,,,,815228,001,2024-11-21_15h10.14.871,Test,2024.2.4,None,2024-11-21 15h10.31.219460 +0100,
16,150,90,68,None,6,6,0,,,,,,,,0,6,6,15,,,,,,,,,,,,,18.18529333299375,,,,,,,,,,,,,,,,,,,,,,,18.180442749988288,18.189313499999116,18.386011040987796,18.386011040987796,18.386011040987796,20.08411170799809,20.08411170799809,20.070429957995657,,,,,,,,,,,,,,,,,,,,,,,,,,,,,,,,,,,,,,,,,,,,,,,,,,,,,,,,,,,,,,,815228,001,2024-11-21_15h10.14.871,Test,2024.2.4,None,2024-11-21 15h10.31.219460 +0100,
23,150,120,45,None,7,7,0,,,,,,,,0,7,7,22,,,,,,,,,,,,,20.08411170799809,,,,,,,,,,,,,,,,,,,,,,,20.078710916001,20.088975832986762,20.28634766599862,20.28634766599862,20.28634766599862,21.9859727909934,21.9859727909934,21.970398457997362,,,,,,,,,,,,,,,,,,,,,,,,,,,,,,,,,,,,,,,,,,,,,,,,,,,,,,,,,,,,,,,815228,001,2024-11-21_15h10.14.871,Test,2024.2.4,None,2024-11-21 15h10.31.219460 +0100,
31,150,180,6,None,8,8,0,,,,,,,,0,8,8,30,,,,,,,,,,,,,21.9859727909934,,,,,,,,,,,,,,,,,,,,,,,21.98101783299353,21.989867415992194,22.186226665988215,22.186226665988215,22.186226665988215,23.885624374990584,23.885624374990584,23.87053245799325,,,,,,,,,,,,,,,,,,,,,,,,,,,,,,,,,,,,,,,,,,,,,,,,,,,,,,,,,,,,,,,815228,001,2024-11-21_15h10.14.871,Test,2024.2.4,None,2024-11-21 15h10.31.219460 +0100,
14,150,60,54,None,9,9,0,,,,,,,,0,9,9,13,,,,,,,,,,,,,23.885624374990584,,,,,,,,,,,,,,,,,,,,,,,23.88068041599763,23.89287954098836,24.086072582998895,24.086072582998895,24.092663624993293,25.784670374996495,25.784670374996495,25.770494790995144,,,,,,,,,,,,,,,,,,,,,,,,,,,,,,,,,,,,,,,,,,,,,,,,,,,,,,,,,,,,,,,815228,001,2024-11-21_15h10.14.871,Test,2024.2.4,None,2024-11-21 15h10.31.219460 +0100,
13,150,60,56,None,10,10,0,,,,,,,,0,10,10,12,,,,,,,,,,,,,25.784670374996495,,,,,,,,,,,,,,,,,,,,,,,25.77961783298815,25.78968841599999,25.98635574999207,25.98635574999207,25.98635574999207,27.68532029099879,27.68532029099879,27.67032933299197,,,,,,,,,,,,,,,,,,,,,,,,,,,,,,,,,,,,,,,,,,,,,,,,,,,,,,,,,,,,,,,815228,001,2024-11-21_15h10.14.871,Test,2024.2.4,None,2024-11-21 15h10.31.219460 +0100,
29,150,150,42,None,11,11,0,,,,,,,,0,11,11,28,,,,,,,,,,,,,27.68532029099879,,,,,,,,,,,,,,,,,,,,,,,27.680403749996913,27.7026600829995,27.885873915991397,27.885873915991397,27.891107666000607,29.584338499989826,29.584338499989826,29.570343125000363,,,,,,,,,,,,,,,,,,,,,,,,,,,,,,,,,,,,,,,,,,,,,,,,,,,,,,,,,,,,,,,815228,001,2024-11-21_15h10.14.871,Test,2024.2.4,None,2024-11-21 15h10.31.219460 +0100,
6,150,30,35,None,12,12,0,,,,,,,,0,12,12,5,,,,,,,,,,,,,29.584338499989826,,,,,,,,,,,,,,,,,,,,,,,29.579505957997753,29.588791165995644,29.786077707991353,29.786077707991353,29.786077707991353,31.486138583000866,31.486138583000866,31.470778165996308,,,,,,,,,,,,,,,,,,,,,,,,,,,,,,,,,,,,,,,,,,,,,,,,,,,,,,,,,,,,,,,815228,001,2024-11-21_15h10.14.871,Test,2024.2.4,None,2024-11-21 15h10.31.219460 +0100,
20,150,90,52,None,13,13,0,,,,,,,,0,13,13,19,,,,,,,,,,,,,31.486138583000866,,,,,,,,,,,,,,,,,,,,,,,31.481270499993116,31.4903236659884,31.686160249999375,31.686160249999375,31.686160249999375,33.384002915991005,33.384002915991005,33.37041295800009,,,,,,,,,,,,,,,,,,,,,,,,,,,,,,,,,,,,,,,,,,,,,,,,,,,,,,,,,,,,,,,815228,001,2024-11-21_15h10.14.871,Test,2024.2.4,None,2024-11-21 15h10.31.219460 +0100,
18,150,90,22,None,14,14,0,,,,,,,,0,14,14,17,,,,,,,,,,,,,33.384002915991005,,,,,,,,,,,,,,,,,,,,,,,33.379129749999265,33.38891874998808,33.58626508299494,33.58626508299494,33.58626508299494,35.28487237499212,35.28487237499212,35.27014312498795,,,,,,,,,,,,,,,,,,,,,,,,,,,,,,,,,,,,,,,,,,,,,,,,,,,,,,,,,,,,,,,815228,001,2024-11-21_15h10.14.871,Test,2024.2.4,None,2024-11-21 15h10.31.219460 +0100,
15,150,60,60,None,15,15,0,,,,,,,,0,15,15,14,,,,,,,,,,,,,35.28487237499212,,,,,,,,,,,,,,,,,,,,,,,35.27984795799421,35.28918429098849,35.4860837909946,35.4860837909946,35.4860837909946,37.184206207995885,37.184206207995885,37.1705709159869,,,,,,,,,,,,,,,,,,,,,,,,,,,,,,,,,,,,,,,,,,,,,,,,,,,,,,,,,,,,,,,815228,001,2024-11-21_15h10.14.871,Test,2024.2.4,None,2024-11-21 15h10.31.219460 +0100,
7,150,30,27,None,16,16,0,,,,,,,,0,16,16,6,,,,,,,,,,,,,37.184206207995885,,,,,,,,,,,,,,,,,,,,,,,37.17938462499296,37.18856691599649,37.38602133298991,37.38602133298991,37.38602133298991,39.08519683299528,39.08519683299528,39.070550749995164,,,,,,,,,,,,,,,,,,,,,,,,,,,,,,,,,,,,,,,,,,,,,,,,,,,,,,,,,,,,,,,815228,001,2024-11-21_15h10.14.871,Test,2024.2.4,None,2024-11-21 15h10.31.219460 +0100,
25,150,120,51,None,17,17,0,,,,,,,,0,17,17,24,,,,,,,,,,,,,39.08519683299528,,,,,,,,,,,,,,,,,,,,,,,39.0801599159895,39.089710415995796,39.286044582986506,39.286044582986506,39.286044582986506,40.985186957987025,40.985186957987025,40.97073604099569,,,,,,,,,,,,,,,,,,,,,,,,,,,,,,,,,,,,,,,,,,,,,,,,,,,,,,,,,,,,,,,815228,001,2024-11-21_15h10.14.871,Test,2024.2.4,None,2024-11-21 15h10.31.219460 +0100,
1,150,0,13,None,18,18,0,,,,,,,,0,18,18,0,,,,,,,,,,,,,40.985186957987025,,,,,,,,,,,,,,,,,,,,,,,40.980286874997546,40.98988316599571,41.186101415994926,41.186101415994926,41.186101415994926,42.88535616599256,42.88535616599256,42.870775499992305,,,,,,,,,,,,,,,,,,,,,,,,,,,,,,,,,,,,,,,,,,,,,,,,,,,,,,,,,,,,,,,815228,001,2024-11-21_15h10.14.871,Test,2024.2.4,None,2024-11-21 15h10.31.219460 +0100,
26,150,150,67,None,19,19,0,,,,,,,,0,19,19,25,,,,,,,,,,,,,42.88535616599256,,,,,,,,,,,,,,,,,,,,,,,42.88049829099327,42.890217707987176,43.086231207998935,43.086231207998935,43.086231207998935,44.784106790990336,44.784106790990336,44.770358999987366,,,,,,,,,,,,,,,,,,,,,,,,,,,,,,,,,,,,,,,,,,,,,,,,,,,,,,,,,,,,,,,815228,001,2024-11-21_15h10.14.871,Test,2024.2.4,None,2024-11-21 15h10.31.219460 +0100,
10,150,30,47,None,20,20,0,,,,,,,,0,20,20,9,,,,,,,,,,,,,44.784106790990336,,,,,,,,,,,,,,,,,,,,,,,44.77918258299178,44.788222499992116,44.98608824999246,44.98608824999246,44.98608824999246,46.68482841599325,46.68482841599325,46.67051366598753,,,,,,,,,,,,,,,,,,,,,,,,,,,,,,,,,,,,,,,,,,,,,,,,,,,,,,,,,,,,,,,815228,001,2024-11-21_15h10.14.871,Test,2024.2.4,None,2024-11-21 15h10.31.219460 +0100,
12,150,60,15,None,21,21,0,,,,,,,,0,21,21,11,,,,,,,,,,,,,46.68482841599325,,,,,,,,,,,,,,,,,,,,,,,46.67948824999621,46.689415124987136,46.8861207079899,46.8861207079899,46.8861207079899,48.58472795799025,48.58472795799025,48.570330290996935,,,,,,,,,,,,,,,,,,,,,,,,,,,,,,,,,,,,,,,,,,,,,,,,,,,,,,,,,,,,,,,815228,001,2024-11-21_15h10.14.871,Test,2024.2.4,None,2024-11-21 15h10.31.219460 +0100,
8,150,30,40,None,22,22,0,,,,,,,,0,22,22,7,,,,,,,,,,,,,48.58472795799025,,,,,,,,,,,,,,,,,,,,,,,48.579885707993526,48.589644457999384,48.78600508299132,48.78600508299132,48.78600508299132,50.48368787499203,50.48368787499203,50.47021262499038,,,,,,,,,,,,,,,,,,,,,,,,,,,,,,,,,,,,,,,,,,,,,,,,,,,,,,,,,,,,,,,815228,001,2024-11-21_15h10.14.871,Test,2024.2.4,None,2024-11-21 15h10.31.219460 +0100,
21,150,120,61,None,23,23,0,,,,,,,,0,23,23,20,,,,,,,,,,,,,50.48368787499203,,,,,,,,,,,,,,,,,,,,,,,50.47882604099868,50.48856812498707,50.68607516599877,50.68607516599877,50.68607516599877,52.38337424999918,52.38337424999918,52.37027995799144,,,,,,,,,,,,,,,,,,,,,,,,,,,,,,,,,,,,,,,,,,,,,,,,,,,,,,,,,,,,,,,815228,001,2024-11-21_15h10.14.871,Test,2024.2.4,None,2024-11-21 15h10.31.219460 +0100,
19,150,90,28,None,24,24,0,,,,,,,,0,24,24,18,,,,,,,,,,,,,52.38337424999918,,,,,,,,,,,,,,,,,,,,,,,52.37815866598976,52.38739937498758,52.591342540996266,52.591342540996266,52.591342540996266,54.2903375409951,54.2903375409951,54.276181124994764,,,,,,,,,,,,,,,,,,,,,,,,,,,,,,,,,,,,,,,,,,,,,,,,,,,,,,,,,,,,,,,815228,001,2024-11-21_15h10.14.871,Test,2024.2.4,None,2024-11-21 15h10.31.219460 +0100,
2,150,0,41,None,25,25,0,,,,,,,,0,25,25,1,,,,,,,,,,,,,54.2903375409951,,,,,,,,,,,,,,,,,,,,,,,54.28492849999748,54.2903375409951,54.48609458300052,54.48609458300052,54.48609458300052,56.1839426660008,56.1839426660008,56.170454082996,,,,,,,,,,,,,,,,,,,,,,,,,,,,,,,,,,,,,,,,,,,,,,,,,,,,,,,,,,,,,,,815228,001,2024-11-21_15h10.14.871,Test,2024.2.4,None,2024-11-21 15h10.31.219460 +0100,
34,150,180,18,None,26,26,0,,,,,,,,0,26,26,33,,,,,,,,,,,,,56.1839426660008,,,,,,,,,,,,,,,,,,,,,,,56.17900137499964,56.18893525000021,56.38596758298809,56.38596758298809,56.38596758298809,58.08491237499402,58.08491237499402,58.070480040987604,,,,,,,,,,,,,,,,,,,,,,,,,,,,,,,,,,,,,,,,,,,,,,,,,,,,,,,,,,,,,,,815228,001,2024-11-21_15h10.14.871,Test,2024.2.4,None,2024-11-21 15h10.31.219460 +0100,
27,150,150,43,None,27,27,0,,,,,,,,0,27,27,26,,,,,,,,,,,,,58.08491237499402,,,,,,,,,,,,,,,,,,,,,,,58.08011595800053,58.08897454099497,58.28603054099949,58.28603054099949,58.28603054099949,59.98452308299602,59.98452308299602,59.970195582995075,,,,,,,,,,,,,,,,,,,,,,,,,,,,,,,,,,,,,,,,,,,,,,,,,,,,,,,,,,,,,,,815228,001,2024-11-21_15h10.14.871,Test,2024.2.4,None,2024-11-21 15h10.31.219460 +0100,
22,150,120,2,None,28,28,0,,,,,,,,0,28,28,21,,,,,,,,,,,,,59.98452308299602,,,,,,,,,,,,,,,,,,,,,,,59.97962341598759,59.98909049999202,60.18615262499952,60.18615262499952,60.18615262499952,61.88353749999078,61.88353749999078,61.8701213329914,,,,,,,,,,,,,,,,,,,,,,,,,,,,,,,,,,,,,,,,,,,,,,,,,,,,,,,,,,,,,,,815228,001,2024-11-21_15h10.14.871,Test,2024.2.4,None,2024-11-21 15h10.31.219460 +0100,
11,150,60,7,None,29,29,0,,,,,,,,0,29,29,10,,,,,,,,,,,,,61.88353749999078,,,,,,,,,,,,,,,,,,,,,,,61.87915220799914,61.88725670799613,62.08577987499302,62.08577987499302,62.08577987499302,63.78575191598793,63.78575191598793,63.77043841598788,,,,,,,,,,,,,,,,,,,,,,,,,,,,,,,,,,,,,,,,,,,,,,,,,,,,,,,,,,,,,,,815228,001,2024-11-21_15h10.14.871,Test,2024.2.4,None,2024-11-21 15h10.31.219460 +0100,
30,150,150,29,None,30,30,0,,,,,,,,0,30,30,29,,,,,,,,,,,,,63.78575191598793,,,,,,,,,,,,,,,,,,,,,,,63.780191832993296,63.80268724999041,63.986052540989476,63.986052540989476,63.99229108299187,65.68460141599644,65.68460141599644,65.67053766599565,,,,,,,,,,,,,,,,,,,,,,,,,,,,,,,,,,,,,,,,,,,,,,,,,,,,,,,,,,,,,,,815228,001,2024-11-21_15h10.14.871,Test,2024.2.4,None,2024-11-21 15h10.31.219460 +0100,
32,150,180,9,None,31,31,0,,,,,,,,0,31,31,31,,,,,,,,,,,,,65.68460141599644,,,,,,,,,,,,,,,,,,,,,,,65.67959566599166,65.68913987498672,65.88614129099005,65.88614129099005,65.88614129099005,67.58513437499641,67.58513437499641,67.57071649999125,,,,,,,,,,,,,,,,,,,,,,,,,,,,,,,,,,,,,,,,,,,,,,,,,,,,,,,,,,,,,,,815228,001,2024-11-21_15h10.14.871,Test,2024.2.4,None,2024-11-21 15h10.31.219460 +0100,
5,150,0,37,None,32,32,0,,,,,,,,0,32,32,4,,,,,,,,,,,,,67.58513437499641,,,,,,,,,,,,,,,,,,,,,,,67.580201165998,67.58945287499228,67.78626704099588,67.78626704099588,67.78626704099588,69.48567945799732,69.48567945799732,69.47045012499439,,,,,,,,,,,,,,,,,,,,,,,,,,,,,,,,,,,,,,,,,,,,,,,,,,,,,,,,,,,,,,,815228,001,2024-11-21_15h10.14.871,Test,2024.2.4,None,2024-11-21 15h10.31.219460 +0100,
3,150,0,57,None,33,33,0,,,,,,,,0,33,33,2,,,,,,,,,,,,,69.48567945799732,,,,,,,,,,,,,,,,,,,,,,,69.48069091599609,69.50260012499348,69.68619070798741,69.68619070798741,69.69212479099224,71.3853164579923,71.3853164579923,71.37080095800047,,,,,,,,,,,,,,,,,,,,,,,,,,,,,,,,,,,,,,,,,,,,,,,,,,,,,,,,,,,,,,,815228,001,2024-11-21_15h10.14.871,Test,2024.2.4,None,2024-11-21 15h10.31.219460 +0100,
24,150,120,19,None,34,34,0,,,,,,,,0,34,34,23,,,,,,,,,,,,,71.3853164579923,,,,,,,,,,,,,,,,,,,,,,,71.38026674999855,71.38955237499613,71.58617658299045,71.58617658299045,71.58617658299045,73.27647504099878,73.27647504099878,73.27062041599129,,,,,,,,,,,,,,,,,,,,,,,,,,,,,,,,,,,,,,,,,,,,,,,,,,,,,,,,,,,,,,,815228,001,2024-11-21_15h10.14.871,Test,2024.2.4,None,2024-11-21 15h10.31.219460 +0100,
,,,,,,,,,,,,,,,,,,,,,,,,,,,,,,,,,,,,,,,,,,,,,,,,,,,,,,,,,,,,,,73.27094129098987,73.28559345800022,73.28559345800022,74.90829179099819,space,1.6015522079978837,None,,,,,,,,,,,,,,,,,,,,,,,,,,,,,,,,,,,,,,,,,,,,,,,,,,,,,,,,815228,001,2024-11-21_15h10.14.871,Test,2024.2.4,None,2024-11-21 15h10.31.219460 +0100,
9,150,30,4,None,0,0,0,False,right,0.7527889999910258,None,,,,,,,,0,0,0,0,,,,,,,,,74.93810829099675,,,,,,,,,,,,,,,,,,,,,,,,,,,,,,,,,,,,,,74.93194674998813,74.93810829099675,75.93605824999395,76.9014967080002,76.9014967080002,76.9014967080002,77.66127849998884,right,0.7527889999910258,None,,,,,,,,,,,,,,,,,,,,,,,,,,,,,,,,,,,,,,,,,,,,,,815228,001,2024-11-21_15h10.14.871,Test,2024.2.4,None,2024-11-21 15h10.31.219460 +0100,
27,150,150,43,None,1,1,0,False,right,0.7425029169971822,None,,,,,,,,0,1,1,1,,,,,,,,,77.76910091598984,,,,,,,,,,,,,,,,,,,,,,,,,,,,,,,,,,,,,,77.67068549999385,77.76910091598984,78.75803729098698,79.66047804099799,79.66047804099799,79.66047804099799,80.40580354099802,right,0.7425029169971822,None,,,,,,,,,,,,,,,,,,,,,,,,,,,,,,,,,,,,,,,,,,,,,,815228,001,2024-11-21_15h10.14.871,Test,2024.2.4,None,2024-11-21 15h10.31.219460 +0100,
5,150,0,37,None,2,2,0,False,left,1.192027874989435,None,,,,,,,,0,2,2,2,,,,,,,,,80.42301937499724,,,,,,,,,,,,,,,,,,,,,,,,,,,,,,,,,,,,,,80.41623270799755,80.42301937499724,81.41945299999497,82.40282049999223,82.40282049999223,82.40282049999223,83.60525574999338,left,1.192027874989435,None,,,,,,,,,,,,,,,,,,,,,,,,,,,,,,,,,,,,,,,,,,,,,,815228,001,2024-11-21_15h10.14.871,Test,2024.2.4,None,2024-11-21 15h10.31.219460 +0100,
53,150,90,53,None,3,3,0,True,left,0.8501239579927642,None,,,,,,,,0,3,3,3,,,,,,,,,83.6216163749923,,,,,,,,,,,,,,,,,,,,,,,,,,,,,,,,,,,,,,83.61474274999637,83.6216163749923,84.6193582079868,85.60304770799121,85.60304770799121,85.60304770799121,86.4560129159945,left,0.8501239579927642,None,,,,,,,,,,,,,,,,,,,,,,,,,,,,,,,,,,,,,,,,,,,,,,815228,001,2024-11-21_15h10.14.871,Test,2024.2.4,None,2024-11-21 15h10.31.219460 +0100,
10,150,30,47,None,4,4,0,False,right,1.050555459005409,None,,,,,,,,0,4,4,4,,,,,,,,,86.47358883298875,,,,,,,,,,,,,,,,,,,,,,,,,,,,,,,,,,,,,,86.4656772499875,86.47358883298875,87.46946716599632,88.4530789579876,88.4530789579876,88.4530789579876,89.51678966599866,right,1.050555459005409,None,,,,,,,,,,,,,,,,,,,,,,,,,,,,,,,,,,,,,,,,,,,,,,815228,001,2024-11-21_15h10.14.871,Test,2024.2.4,None,2024-11-21 15h10.31.219460 +0100,
13,150,60,56,None,5,5,0,False,right,0.6020430420030607,None,,,,,,,,0,5,5,5,,,,,,,,,89.53124466599547,,,,,,,,,,,,,,,,,,,,,,,,,,,,,,,,,,,,,,89.5264621249953,89.53124466599547,90.52435712498846,91.51015699999698,91.51015699999698,91.51015699999698,92.12154791598732,right,0.6020430420030607,None,,,,,,,,,,,,,,,,,,,,,,,,,,,,,,,,,,,,,,,,,,,,,,815228,001,2024-11-21_15h10.14.871,Test,2024.2.4,None,2024-11-21 15h10.31.219460 +0100,
21,150,120,61,None,6,6,0,False,right,0.7176313749951078,None,,,,,,,,0,6,6,6,,,,,,,,,92.13900825000019,,,,,,,,,,,,,,,,,,,,,,,,,,,,,,,,,,,,,,92.13207662499917,92.13900825000019,93.13599474998773,94.11947049999435,94.11947049999435,94.11947049999435,94.84853774998919,right,0.7176313749951078,None,,,,,,,,,,,,,,,,,,,,,,,,,,,,,,,,,,,,,,,,,,,,,,815228,001,2024-11-21_15h10.14.871,Test,2024.2.4,None,2024-11-21 15h10.31.219460 +0100,
16,150,90,68,None,7,7,0,False,right,0.7961327500088373,None,,,,,,,,0,7,7,7,,,,,,,,,94.86194679098844,,,,,,,,,,,,,,,,,,,,,,,,,,,,,,,,,,,,,,94.85735195799498,94.86194679098844,95.85802033299115,96.8443099159922,96.8443099159922,96.8443099159922,97.64395012499881,right,0.7961327500088373,None,,,,,,,,,,,,,,,,,,,,,,,,,,,,,,,,,,,,,,,,,,,,,,815228,001,2024-11-21_15h10.14.871,Test,2024.2.4,None,2024-11-21 15h10.31.219460 +0100,
70,150,180,49,None,8,8,0,True,right,1.2590373750135768,None,,,,,,,,0,8,8,8,,,,,,,,,97.6608937909914,,,,,,,,,,,,,,,,,,,,,,,,,,,,,,,,,,,,,,97.65356554099708,97.6608937909914,98.65799487500044,99.64394812499813,99.64394812499813,99.64394812499813,100.91100983299839,right,1.2590373750135768,None,,,,,,,,,,,,,,,,,,,,,,,,,,,,,,,,,,,,,,,,,,,,,,815228,001,2024-11-21_15h10.14.871,Test,2024.2.4,None,2024-11-21 15h10.31.219460 +0100,
51,150,90,46,None,9,9,0,True,right,1.4150796250032727,None,,,,,,,,0,9,9,9,,,,,,,,,100.92090887499216,,,,,,,,,,,,,,,,,,,,,,,,,,,,,,,,,,,,,,100.91709245799575,100.92090887499216,101.91946854098933,102.91004733298905,102.91004733298905,102.91004733298905,104.32779854099499,right,1.4150796250032727,None,,,,,,,,,,,,,,,,,,,,,,,,,,,,,,,,,,,,,,,,,,,,,,815228,001,2024-11-21_15h10.14.871,Test,2024.2.4,None,2024-11-21 15h10.31.219460 +0100,
50,150,60,36,None,10,10,0,True,left,1.0956706659926567,None,,,,,,,,0,10,10,10,,,,,,,,,104.34325562498998,,,,,,,,,,,,,,,,,,,,,,,,,,,,,,,,,,,,,,104.3367235409969,104.34325562498998,105.34092645799683,106.32689441599359,106.32689441599359,106.32689441599359,107.4272084159893,left,1.0956706659926567,None,,,,,,,,,,,,,,,,,,,,,,,,,,,,,,,,,,,,,,,,,,,,,,815228,001,2024-11-21_15h10.14.871,Test,2024.2.4,None,2024-11-21 15h10.31.219460 +0100,
29,150,150,42,None,11,11,0,False,right,0.6867422499926761,None,,,,,,,,0,11,11,11,,,,,,,,,107.44020699999237,,,,,,,,,,,,,,,,,,,,,,,,,,,,,,,,,,,,,,107.43452316599723,107.44020699999237,108.4360383329913,109.42650758298987,109.42650758298987,109.42650758298987,110.12156266599777,right,0.6867422499926761,None,,,,,,,,,,,,,,,,,,,,,,,,,,,,,,,,,,,,,,,,,,,,,,815228,001,2024-11-21_15h10.14.871,Test,2024.2.4,None,2024-11-21 15h10.31.219460 +0100,
66,150,180,50,None,12,12,0,True,right,0.9615753329999279,None,,,,,,,,0,12,12,12,,,,,,,,,110.13723541599757,,,,,,,,,,,,,,,,,,,,,,,,,,,,,,,,,,,,,,110.13067166598921,110.13723541599757,111.13615079098963,112.11953349999385,112.11953349999385,112.11953349999385,113.08813274999557,right,0.9615753329999279,None,,,,,,,,,,,,,,,,,,,,,,,,,,,,,,,,,,,,,,,,,,,,,,815228,001,2024-11-21_15h10.14.871,Test,2024.2.4,None,2024-11-21 15h10.31.219460 +0100,
20,150,90,52,None,13,13,0,False,right,0.799992124986602,None,,,,,,,,0,13,13,13,,,,,,,,,113.10529116599355,,,,,,,,,,,,,,,,,,,,,,,,,,,,,,,,,,,,,,113.09910833300091,113.10529116599355,114.10258699998667,115.08621549999225,115.08621549999225,115.08621549999225,115.88927245799277,right,0.799992124986602,None,,,,,,,,,,,,,,,,,,,,,,,,,,,,,,,,,,,,,,,,,,,,,,815228,001,2024-11-21_15h10.14.871,Test,2024.2.4,None,2024-11-21 15h10.31.219460 +0100,
48,150,60,5,None,14,14,0,True,right,0.8356272079981863,None,,,,,,,,0,14,14,14,,,,,,,,,115.90487449998909,,,,,,,,,,,,,,,,,,,,,,,,,,,,,,,,,,,,,,115.89823329099454,115.90487449998909,116.90298070799327,117.88596829099697,117.88596829099697,117.88596829099697,118.72830008299206,right,0.8356272079981863,None,,,,,,,,,,,,,,,,,,,,,,,,,,,,,,,,,,,,,,,,,,,,,,815228,001,2024-11-21_15h10.14.871,Test,2024.2.4,None,2024-11-21 15h10.31.219460 +0100,
68,150,180,66,None,15,15,0,True,right,0.7873062500002561,None,,,,,,,,0,15,15,15,,,,,,,,,118.7450174580008,,,,,,,,,,,,,,,,,,,,,,,,,,,,,,,,,,,,,,118.73769387499487,118.7450174580008,119.74136737499794,120.7275634999969,120.7275634999969,120.7275634999969,121.52190074999817,right,0.7873062500002561,None,,,,,,,,,,,,,,,,,,,,,,,,,,,,,,,,,,,,,,,,,,,,,,815228,001,2024-11-21_15h10.14.871,Test,2024.2.4,None,2024-11-21 15h10.31.219460 +0100,
35,150,180,1,None,16,16,0,False,right,0.9293737080006395,None,,,,,,,,0,16,16,16,,,,,,,,,121.5389248749998,,,,,,,,,,,,,,,,,,,,,,,,,,,,,,,,,,,,,,121.5318950410001,121.5389248749998,122.53599141599261,123.5195523329894,123.5195523329894,123.5195523329894,124.45466070799739,right,0.9293737080006395,None,,,,,,,,,,,,,,,,,,,,,,,,,,,,,,,,,,,,,,,,,,,,,,815228,001,2024-11-21_15h10.14.871,Test,2024.2.4,None,2024-11-21 15h10.31.219460 +0100,
30,150,150,29,None,17,17,0,False,right,0.9359660410118522,None,,,,,,,,0,17,17,17,,,,,,,,,124.47151633299654,,,,,,,,,,,,,,,,,,,,,,,,,,,,,,,,,,,,,,124.46510620799381,124.47151633299654,125.46942749999289,126.45265279099112,126.45265279099112,126.45265279099112,127.39460487499309,right,0.9359660410118522,None,,,,,,,,,,,,,,,,,,,,,,,,,,,,,,,,,,,,,,,,,,,,,,815228,001,2024-11-21_15h10.14.871,Test,2024.2.4,None,2024-11-21 15h10.31.219460 +0100,
4,150,0,44,None,18,18,0,False,right,1.0648531249898952,None,,,,,,,,0,18,18,18,,,,,,,,,127.40877445798833,,,,,,,,,,,,,,,,,,,,,,,,,,,,,,,,,,,,,,127.40246387499792,127.40877445798833,128.40260591599508,129.39312249999784,129.39312249999784,129.39312249999784,130.46075208298862,right,1.0648531249898952,None,,,,,,,,,,,,,,,,,,,,,,,,,,,,,,,,,,,,,,,,,,,,,,815228,001,2024-11-21_15h10.14.871,Test,2024.2.4,None,2024-11-21 15h10.31.219460 +0100,
34,150,180,18,None,19,19,0,False,right,0.7171074170037173,None,,,,,,,,0,19,19,19,,,,,,,,,130.47663491599087,,,,,,,,,,,,,,,,,,,,,,,,,,,,,,,,,,,,,,130.47009208299278,130.47663491599087,131.47374529099034,132.45940166599758,132.45940166599758,132.45940166599758,133.18801533299848,right,0.7171074170037173,None,,,,,,,,,,,,,,,,,,,,,,,,,,,,,,,,,,,,,,,,,,,,,,815228,001,2024-11-21_15h10.14.871,Test,2024.2.4,None,2024-11-21 15h10.31.219460 +0100,
47,150,60,14,None,20,20,0,True,left,0.9250673329952406,None,,,,,,,,0,20,20,20,,,,,,,,,133.20529479099787,,,,,,,,,,,,,,,,,,,,,,,,,,,,,,,,,,,,,,133.1986974159954,133.20529479099787,134.20260920799046,135.18616883299546,135.18616883299546,135.18616883299546,136.12143404099334,left,0.9250673329952406,None,,,,,,,,,,,,,,,,,,,,,,,,,,,,,,,,,,,,,,,,,,,,,,815228,001,2024-11-21_15h10.14.871,Test,2024.2.4,None,2024-11-21 15h10.31.219460 +0100,
54,150,90,11,None,21,21,0,True,left,1.3907280419953167,None,,,,,,,,0,21,21,21,,,,,,,,,136.1366596250009,,,,,,,,,,,,,,,,,,,,,,,,,,,,,,,,,,,,,,136.13014133299293,136.1366596250009,137.12428041599924,138.11961374999373,138.11961374999373,138.11961374999373,139.5215052079875,left,1.3907280419953167,None,,,,,,,,,,,,,,,,,,,,,,,,,,,,,,,,,,,,,,,,,,,,,,815228,001,2024-11-21_15h10.14.871,Test,2024.2.4,None,2024-11-21 15h10.31.219460 +0100,
11,150,60,7,None,22,22,0,False,left,1.5748060409969185,None,,,,,,,,0,22,22,22,,,,,,,,,139.53814770799363,,,,,,,,,,,,,,,,,,,,,,,,,,,,,,,,,,,,,,139.53184020798653,139.53814770799363,140.5361117499997,141.51944674999686,141.51944674999686,141.51944674999686,143.10483883299457,left,1.5748060409969185,None,,,,,,,,,,,,,,,,,,,,,,,,,,,,,,,,,,,,,,,,,,,,,,815228,001,2024-11-21_15h10.14.871,Test,2024.2.4,None,2024-11-21 15h10.31.219460 +0100,
19,150,90,28,None,23,23,0,False,right,0.9139891250088112,None,,,,,,,,0,23,23,23,,,,,,,,,143.12169987498783,,,,,,,,,,,,,,,,,,,,,,,,,,,,,,,,,,,,,,143.11496708299092,143.12169987498783,144.11942054099927,145.10281654099526,145.10281654099526,145.10281654099526,146.02149774999998,right,0.9139891250088112,None,,,,,,,,,,,,,,,,,,,,,,,,,,,,,,,,,,,,,,,,,,,,,,815228,001,2024-11-21_15h10.14.871,Test,2024.2.4,None,2024-11-21 15h10.31.219460 +0100,
60,150,120,17,None,24,24,0,True,right,1.1030664999998407,None,,,,,,,,0,24,24,24,,,,,,,,,146.03777445798914,,,,,,,,,,,,,,,,,,,,,,,,,,,,,,,,,,,,,,146.03113762498833,146.03777445798914,147.03641645799507,148.01963004098798,148.01963004098798,148.01963004098798,149.1274118329893,right,1.1030664999998407,None,,,,,,,,,,,,,,,,,,,,,,,,,,,,,,,,,,,,,,,,,,,,,,815228,001,2024-11-21_15h10.14.871,Test,2024.2.4,None,2024-11-21 15h10.31.219460 +0100,
46,150,60,31,None,25,25,0,True,left,0.6846109170001,None,,,,,,,,0,25,25,25,,,,,,,,,149.14167383300082,,,,,,,,,,,,,,,,,,,,,,,,,,,,,,,,,,,,,,149.1352998749935,149.14167383300082,150.1360507079953,151.12646987498738,151.12646987498738,151.12646987498738,151.8214749579929,left,0.6846109170001,None,,,,,,,,,,,,,,,,,,,,,,,,,,,,,,,,,,,,,,,,,,,,,,815228,001,2024-11-21_15h10.14.871,Test,2024.2.4,None,2024-11-21 15h10.31.219460 +0100,
3,150,0,57,None,26,26,0,False,left,1.3334353329992155,None,,,,,,,,0,26,26,26,,,,,,,,,151.8366271249979,,,,,,,,,,,,,,,,,,,,,,,,,,,,,,,,,,,,,,151.83033008298662,151.8366271249979,152.82383308299177,153.81959199999983,153.81959199999983,153.81959199999983,155.15612537499692,left,1.3334353329992155,None,,,,,,,,,,,,,,,,,,,,,,,,,,,,,,,,,,,,,,,,,,,,,,815228,001,2024-11-21_15h10.14.871,Test,2024.2.4,None,2024-11-21 15h10.31.219460 +0100,
23,150,120,45,None,27,27,0,False,left,0.9110443750105333,None,,,,,,,,0,27,27,27,,,,,,,,,155.17210841599444,,,,,,,,,,,,,,,,,,,,,,,,,,,,,,,,,,,,,,155.1654306249984,155.17210841599444,156.16943708299368,157.1528033749928,157.1528033749928,157.1528033749928,158.07153608299268,left,0.9110443750105333,None,,,,,,,,,,,,,,,,,,,,,,,,,,,,,,,,,,,,,,,,,,,,,,815228,001,2024-11-21_15h10.14.871,Test,2024.2.4,None,2024-11-21 15h10.31.219460 +0100,
52,150,90,10,None,28,28,0,True,left,0.8416926250065444,None,,,,,,,,0,28,28,28,,,,,,,,,158.08684545799042,,,,,,,,,,,,,,,,,,,,,,,,,,,,,,,,,,,,,,158.07998083299026,158.08684545799042,159.07463795799413,160.06956624999293,160.06956624999293,160.06956624999293,160.9210597499914,left,0.8416926250065444,None,,,,,,,,,,,,,,,,,,,,,,,,,,,,,,,,,,,,,,,,,,,,,,815228,001,2024-11-21_15h10.14.871,Test,2024.2.4,None,2024-11-21 15h10.31.219460 +0100,
2,150,0,41,None,29,29,0,False,right,0.8304015829926357,None,,,,,,,,0,29,29,29,,,,,,,,,160.93401437498687,,,,,,,,,,,,,,,,,,,,,,,,,,,,,,,,,,,,,,160.9276531249925,160.93401437498687,161.924254499987,162.91944591599167,162.91944591599167,162.91944591599167,163.75487004099705,right,0.8304015829926357,None,,,,,,,,,,,,,,,,,,,,,,,,,,,,,,,,,,,,,,,,,,,,,,815228,001,2024-11-21_15h10.14.871,Test,2024.2.4,None,2024-11-21 15h10.31.219460 +0100,
18,150,90,22,None,30,30,0,False,right,0.7508166670013452,None,,,,,,,,0,30,30,30,,,,,,,,,163.77045174999512,,,,,,,,,,,,,,,,,,,,,,,,,,,,,,,,,,,,,,163.7633852079889,163.77045174999512,164.75811879099638,165.75282870799128,165.75282870799128,165.75282870799128,166.51453808299266,right,0.7508166670013452,None,,,,,,,,,,,,,,,,,,,,,,,,,,,,,,,,,,,,,,,,,,,,,,815228,001,2024-11-21_15h10.14.871,Test,2024.2.4,None,2024-11-21 15h10.31.219460 +0100,
7,150,30,27,None,31,31,0,False,left,1.5487060000014026,None,,,,,,,,0,31,31,31,,,,,,,,,166.52711641599308,,,,,,,,,,,,,,,,,,,,,,,,,,,,,,,,,,,,,,166.52239970798837,166.52711641599308,167.5246942909871,168.5098340830009,168.5098340830009,168.5098340830009,170.06082195798808,left,1.5487060000014026,None,,,,,,,,,,,,,,,,,,,,,,,,,,,,,,,,,,,,,,,,,,,,,,815228,001,2024-11-21_15h10.14.871,Test,2024.2.4,None,2024-11-21 15h10.31.219460 +0100,
69,150,180,58,None,32,32,0,True,left,1.0863096670072991,None,,,,,,,,0,32,32,32,,,,,,,,,170.07676720799645,,,,,,,,,,,,,,,,,,,,,,,,,,,,,,,,,,,,,,170.07028191599238,170.07676720799645,171.07403258299746,172.06087683299847,172.06087683299847,172.06087683299847,173.15503145799448,left,1.0863096670072991,None,,,,,,,,,,,,,,,,,,,,,,,,,,,,,,,,,,,,,,,,,,,,,,815228,001,2024-11-21_15h10.14.871,Test,2024.2.4,None,2024-11-21 15h10.31.219460 +0100,
38,150,0,38,None,33,33,0,True,left,1.0958297079923796,None,,,,,,,,0,33,33,33,,,,,,,,,173.1711534579954,,,,,,,,,,,,,,,,,,,,,,,,,,,,,,,,,,,,,,173.1642139159958,173.1711534579954,174.16946320798888,175.15287016599905,175.15287016599905,175.15287016599905,176.25471029098844,left,1.0958297079923796,None,,,,,,,,,,,,,,,,,,,,,,,,,,,,,,,,,,,,,,,,,,,,,,815228,001,2024-11-21_15h10.14.871,Test,2024.2.4,None,2024-11-21 15h10.31.219460 +0100,
55,150,90,70,None,34,34,0,True,right,0.9191165419906611,None,,,,,,,,0,34,34,34,,,,,,,,,176.27109141599794,,,,,,,,,,,,,,,,,,,,,,,,,,,,,,,,,,,,,,176.26444437498867,176.27109141599794,177.26931891599088,178.25265583299915,178.25265583299915,178.25265583299915,179.17785112498677,right,0.9191165419906611,None,,,,,,,,,,,,,,,,,,,,,,,,,,,,,,,,,,,,,,,,,,,,,,815228,001,2024-11-21_15h10.14.871,Test,2024.2.4,None,2024-11-21 15h10.31.219460 +0100,
28,150,150,65,None,35,35,0,False,left,1.4839292499964358,None,,,,,,,,0,35,35,35,,,,,,,,,179.19352791599522,,,,,,,,,,,,,,,,,,,,,,,,,,,,,,,,,,,,,,179.18695916599245,179.19352791599522,180.1906014159904,181.1756926659873,181.1756926659873,181.1756926659873,182.66193858299812,left,1.4839292499964358,None,,,,,,,,,,,,,,,,,,,,,,,,,,,,,,,,,,,,,,,,,,,,,,815228,001,2024-11-21_15h10.14.871,Test,2024.2.4,None,2024-11-21 15h10.31.219460 +0100,
6,150,30,35,None,36,36,0,False,left,1.3261658750125207,None,,,,,,,,0,36,36,36,,,,,,,,,182.67862937499012,,,,,,,,,,,,,,,,,,,,,,,,,,,,,,,,,,,,,,182.67125879100058,182.67862937499012,183.67431379099435,184.66034970799228,184.66034970799228,184.66034970799228,185.9895112499944,left,1.3261658750125207,None,,,,,,,,,,,,,,,,,,,,,,,,,,,,,,,,,,,,,,,,,,,,,,815228,001,2024-11-21_15h10.14.871,Test,2024.2.4,None,2024-11-21 15h10.31.219460 +0100,
33,150,180,21,None,37,37,0,False,left,1.0005450419994304,None,,,,,,,,0,37,37,37,,,,,,,,,186.0056475409947,,,,,,,,,,,,,,,,,,,,,,,,,,,,,,,,,,,,,,185.99876137499814,186.0056475409947,187.00274466599512,187.98613791599928,187.98613791599928,187.98613791599928,188.99809495799127,left,1.0005450419994304,None,,,,,,,,,,,,,,,,,,,,,,,,,,,,,,,,,,,,,,,,,,,,,,815228,001,2024-11-21_15h10.14.871,Test,2024.2.4,None,2024-11-21 15h10.31.219460 +0100,
59,150,120,64,None,38,38,0,True,left,0.960374625006807,None,,,,,,,,0,38,38,38,,,,,,,,,189.01057604099333,,,,,,,,,,,,,,,,,,,,,,,,,,,,,,,,,,,,,,189.00589258299442,189.01057604099333,190.00756216599257,190.99287337499845,190.99287337499845,190.99287337499845,191.9565160409984,left,0.960374625006807,None,,,,,,,,,,,,,,,,,,,,,,,,,,,,,,,,,,,,,,,,,,,,,,815228,001,2024-11-21_15h10.14.871,Test,2024.2.4,None,2024-11-21 15h10.31.219460 +0100,
44,150,30,32,None,39,39,0,True,left,1.155713750005816,None,,,,,,,,0,39,39,39,,,,,,,,,191.97286695799266,,,,,,,,,,,,,,,,,,,,,,,,,,,,,,,,,,,,,,191.96617679100018,191.97286695799266,192.96948845799488,193.9528360409895,193.9528360409895,193.9528360409895,195.11122662499838,left,1.155713750005816,None,,,,,,,,,,,,,,,,,,,,,,,,,,,,,,,,,,,,,,,,,,,,,,815228,001,2024-11-21_15h10.14.871,Test,2024.2.4,None,2024-11-21 15h10.31.219460 +0100,
65,150,150,25,None,40,40,0,True,right,1.1991580000030808,None,,,,,,,,0,40,40,40,,,,,,,,,195.12703645799775,,,,,,,,,,,,,,,,,,,,,,,,,,,,,,,,,,,,,,195.12045720798778,195.12703645799775,196.12455712498922,197.11097179100034,197.11097179100034,197.11097179100034,198.32156316599867,right,1.1991580000030808,None,,,,,,,,,,,,,,,,,,,,,,,,,,,,,,,,,,,,,,,,,,,,,,815228,001,2024-11-21_15h10.14.871,Test,2024.2.4,None,2024-11-21 15h10.31.219460 +0100,
64,150,150,30,None,41,41,0,True,left,1.759217416998581,None,,,,,,,,0,41,41,41,,,,,,,,,198.33825387498655,,,,,,,,,,,,,,,,,,,,,,,,,,,,,,,,,,,,,,198.33141645799333,198.33825387498655,199.33603129099356,200.31861170798948,200.31861170798948,200.31861170798948,202.08634687498852,left,1.759217416998581,None,,,,,,,,,,,,,,,,,,,,,,,,,,,,,,,,,,,,,,,,,,,,,,815228,001,2024-11-21_15h10.14.871,Test,2024.2.4,None,2024-11-21 15h10.31.219460 +0100,
26,150,150,67,None,42,42,0,False,left,1.1559410419868072,None,,,,,,,,0,42,42,42,,,,,,,,,202.0984035829897,,,,,,,,,,,,,,,,,,,,,,,,,,,,,,,,,,,,,,202.09271429099317,202.0984035829897,203.0913959999889,204.0771055410005,204.0771055410005,204.0771055410005,205.23874966599396,left,1.1559410419868072,None,,,,,,,,,,,,,,,,,,,,,,,,,,,,,,,,,,,,,,,,,,,,,,815228,001,2024-11-21_15h10.14.871,Test,2024.2.4,None,2024-11-21 15h10.31.219460 +0100,
37,150,0,24,None,43,43,0,True,left,1.9588993749930523,None,,,,,,,,0,43,43,43,,,,,,,,,205.25460849999217,,,,,,,,,,,,,,,,,,,,,,,,,,,,,,,,,,,,,,205.24784741598705,205.25460849999217,206.25283429099363,207.25322145799873,207.25322145799873,207.25322145799873,209.2237524999946,left,1.9588993749930523,None,,,,,,,,,,,,,,,,,,,,,,,,,,,,,,,,,,,,,,,,,,,,,,815228,001,2024-11-21_15h10.14.871,Test,2024.2.4,None,2024-11-21 15h10.31.219460 +0100,
31,150,180,6,None,44,44,0,False,right,1.0877790419908706,None,,,,,,,,0,44,44,44,,,,,,,,,209.24362424999708,,,,,,,,,,,,,,,,,,,,,,,,,,,,,,,,,,,,,,209.23550704099762,209.24362424999708,210.24074824999843,211.21956495799532,211.21956495799532,211.21956495799532,212.31124591598928,right,1.0877790419908706,None,,,,,,,,,,,,,,,,,,,,,,,,,,,,,,,,,,,,,,,,,,,,,,815228,001,2024-11-21_15h10.14.871,Test,2024.2.4,None,2024-11-21 15h10.31.219460 +0100,
39,150,0,8,None,45,45,0,True,left,1.7564069170039147,None,,,,,,,,0,45,45,45,,,,,,,,,212.32724383298773,,,,,,,,,,,,,,,,,,,,,,,,,,,,,,,,,,,,,,212.32096762499714,212.32724383298773,213.3248095829913,214.30998037499376,214.30998037499376,214.30998037499376,216.07216266599426,left,1.7564069170039147,None,,,,,,,,,,,,,,,,,,,,,,,,,,,,,,,,,,,,,,,,,,,,,,815228,001,2024-11-21_15h10.14.871,Test,2024.2.4,None,2024-11-21 15h10.31.219460 +0100,
43,150,30,33,None,46,46,0,True,left,2.8850222500041127,None,,,,,,,,0,46,46,46,,,,,,,,,216.08770054100023,,,,,,,,,,,,,,,,,,,,,,,,,,,,,,,,,,,,,,216.0816210829944,216.08770054100023,217.08604516599735,218.06942704098765,218.06942704098765,218.06942704098765,220.96190316599677,left,2.8850222500041127,None,,,,,,,,,,,,,,,,,,,,,,,,,,,,,,,,,,,,,,,,,,,,,,815228,001,2024-11-21_15h10.14.871,Test,2024.2.4,None,2024-11-21 15h10.31.219460 +0100,
32,150,180,9,None,47,47,0,False,right,1.5152897920052055,None,,,,,,,,0,47,47,47,,,,,,,,,220.97686062499997,,,,,,,,,,,,,,,,,,,,,,,,,,,,,,,,,,,,,,220.97061174998817,220.97686062499997,221.9738550829934,222.96081045799656,222.96081045799656,222.96081045799656,224.47908729099436,right,1.5152897920052055,None,,,,,,,,,,,,,,,,,,,,,,,,,,,,,,,,,,,,,,,,,,,,,,815228,001,2024-11-21_15h10.14.871,Test,2024.2.4,None,2024-11-21 15h10.31.219460 +0100,
14,150,60,54,None,48,48,0,False,right,1.5120492499991087,None,,,,,,,,0,48,48,48,,,,,,,,,224.49540408299072,,,,,,,,,,,,,,,,,,,,,,,,,,,,,,,,,,,,,,224.4885814159934,224.49540408299072,225.4912810829992,226.4768533329916,226.4768533329916,226.4768533329916,227.9932337909995,right,1.5120492499991087,None,,,,,,,,,,,,,,,,,,,,,,,,,,,,,,,,,,,,,,,,,,,,,,815228,001,2024-11-21_15h10.14.871,Test,2024.2.4,None,2024-11-21 15h10.31.219460 +0100,
8,150,30,40,None,49,49,0,False,right,1.9148022500012303,None,,,,,,,,0,49,49,49,,,,,,,,,228.0059591659956,,,,,,,,,,,,,,,,,,,,,,,,,,,,,,,,,,,,,,228.00023179099662,228.0059591659956,229.00271854099992,229.99323404098686,229.99323404098686,229.99323404098686,231.91083320799225,right,1.9148022500012303,None,,,,,,,,,,,,,,,,,,,,,,,,,,,,,,,,,,,,,,,,,,,,,,815228,001,2024-11-21_15h10.14.871,Test,2024.2.4,None,2024-11-21 15h10.31.219460 +0100,
63,150,150,69,None,50,50,0,True,right,1.0934602499910397,None,,,,,,,,0,50,50,50,,,,,,,,,231.92772420799884,,,,,,,,,,,,,,,,,,,,,,,,,,,,,,,,,,,,,,231.92084266598977,231.92772420799884,232.9243063749891,233.9099148749956,233.9099148749956,233.9099148749956,235.00678487498953,right,1.0934602499910397,None,,,,,,,,,,,,,,,,,,,,,,,,,,,,,,,,,,,,,,,,,,,,,,815228,001,2024-11-21_15h10.14.871,Test,2024.2.4,None,2024-11-21 15h10.31.219460 +0100,
17,150,90,26,None,51,51,0,False,right,1.3001281670003664,None,,,,,,,,0,51,51,51,,,,,,,,,235.02276300000085,,,,,,,,,,,,,,,,,,,,,,,,,,,,,,,,,,,,,,235.01635774999158,235.02276300000085,236.01955199999793,237.0031685409922,237.0031685409922,237.0031685409922,238.30579087499063,right,1.3001281670003664,None,,,,,,,,,,,,,,,,,,,,,,,,,,,,,,,,,,,,,,,,,,,,,,815228,001,2024-11-21_15h10.14.871,Test,2024.2.4,None,2024-11-21 15h10.31.219460 +0100,
57,150,120,55,None,52,52,0,True,right,2.10572554198734,None,,,,,,,,0,52,52,52,,,,,,,,,238.32225616599317,,,,,,,,,,,,,,,,,,,,,,,,,,,,,,,,,,,,,,238.315809540989,238.32225616599317,239.31940279099217,240.30294341599802,240.30294341599802,240.30294341599802,242.41151262499625,right,2.10572554198734,None,,,,,,,,,,,,,,,,,,,,,,,,,,,,,,,,,,,,,,,,,,,,,,815228,001,2024-11-21_15h10.14.871,Test,2024.2.4,None,2024-11-21 15h10.31.219460 +0100,
22,150,120,2,None,53,53,0,False,right,1.5211592499981634,None,,,,,,,,0,53,53,53,,,,,,,,,242.4268968749966,,,,,,,,,,,,,,,,,,,,,,,,,,,,,,,,,,,,,,242.4205445409898,242.4268968749966,243.42392149999796,244.41015537499334,244.41015537499334,244.41015537499334,245.9383328749973,right,1.5211592499981634,None,,,,,,,,,,,,,,,,,,,,,,,,,,,,,,,,,,,,,,,,,,,,,,815228,001,2024-11-21_15h10.14.871,Test,2024.2.4,None,2024-11-21 15h10.31.219460 +0100,
61,150,150,59,None,54,54,0,True,left,1.664045041994541,None,,,,,,,,0,54,54,54,,,,,,,,,245.95494520799548,,,,,,,,,,,,,,,,,,,,,,,,,,,,,,,,,,,,,,245.94835774999228,245.95494520799548,246.9527280409966,247.93634008298977,247.93634008298977,247.93634008298977,249.60483274998842,left,1.664045041994541,None,,,,,,,,,,,,,,,,,,,,,,,,,,,,,,,,,,,,,,,,,,,,,,815228,001,2024-11-21_15h10.14.871,Test,2024.2.4,None,2024-11-21 15h10.31.219460 +0100,
1,150,0,13,None,55,55,0,False,right,1.1338052089995472,None,,,,,,,,0,55,55,55,,,,,,,,,249.6195143329969,,,,,,,,,,,,,,,,,,,,,,,,,,,,,,,,,,,,,,249.61353445799614,249.6195143329969,250.60798520800017,251.60293733299477,251.60293733299477,251.60293733299477,252.7393597909977,right,1.1338052089995472,None,,,,,,,,,,,,,,,,,,,,,,,,,,,,,,,,,,,,,,,,,,,,,,815228,001,2024-11-21_15h10.14.871,Test,2024.2.4,None,2024-11-21 15h10.31.219460 +0100,
41,150,30,62,None,56,56,0,True,left,1.1677553339977749,None,,,,,,,,0,56,56,56,,,,,,,,,252.75501666599303,,,,,,,,,,,,,,,,,,,,,,,,,,,,,,,,,,,,,,252.74872791599773,252.75501666599303,253.75279424998735,254.7363148329896,254.7363148329896,254.7363148329896,255.9107243329927,left,1.1677553339977749,None,,,,,,,,,,,,,,,,,,,,,,,,,,,,,,,,,,,,,,,,,,,,,,815228,001,2024-11-21_15h10.14.871,Test,2024.2.4,None,2024-11-21 15h10.31.219460 +0100,
58,150,120,3,None,57,57,0,True,right,1.6192913340055384,None,,,,,,,,0,57,57,57,,,,,,,,,255.9262481249898,,,,,,,,,,,,,,,,,,,,,,,,,,,,,,,,,,,,,,255.92011208299664,255.9262481249898,256.92464970798756,257.91000320798776,257.91000320798776,257.91000320798776,259.5382818329963,right,1.6192913340055384,None,,,,,,,,,,,,,,,,,,,,,,,,,,,,,,,,,,,,,,,,,,,,,,815228,001,2024-11-21_15h10.14.871,Test,2024.2.4,None,2024-11-21 15h10.31.219460 +0100,
45,150,30,48,None,58,58,0,True,left,0.9892617089935811,None,,,,,,,,0,58,58,58,,,,,,,,,259.55458179098787,,,,,,,,,,,,,,,,,,,,,,,,,,,,,,,,,,,,,,259.54802341599134,259.55458179098787,260.5526131249935,261.53610766599013,261.53610766599013,261.53610766599013,262.52825949998805,left,0.9892617089935811,None,,,,,,,,,,,,,,,,,,,,,,,,,,,,,,,,,,,,,,,,,,,,,,815228,001,2024-11-21_15h10.14.871,Test,2024.2.4,None,2024-11-21 15h10.31.219460 +0100,
56,150,120,39,None,59,59,0,True,right,0.877846875009709,None,,,,,,,,0,59,59,59,,,,,,,,,262.54447562499263,,,,,,,,,,,,,,,,,,,,,,,,,,,,,,,,,,,,,,262.5376802079991,262.54447562499263,263.5412759579922,264.5267904999928,264.5267904999928,264.5267904999928,265.4105698749918,right,0.877846875009709,None,,,,,,,,,,,,,,,,,,,,,,,,,,,,,,,,,,,,,,,,,,,,,,815228,001,2024-11-21_15h10.14.871,Test,2024.2.4,None,2024-11-21 15h10.31.219460 +0100,
15,150,60,60,None,60,60,0,False,left,1.921405708999373,None,,,,,,,,0,60,60,60,,,,,,,,,265.4268284159916,,,,,,,,,,,,,,,,,,,,,,,,,,,,,,,,,,,,,,265.420173874998,265.4268284159916,266.4247287499893,267.40973529098846,267.40973529098846,267.40973529098846,269.3384225829941,left,1.921405708999373,None,,,,,,,,,,,,,,,,,,,,,,,,,,,,,,,,,,,,,,,,,,,,,,815228,001,2024-11-21_15h10.14.871,Test,2024.2.4,None,2024-11-21 15h10.31.219460 +0100,
49,150,60,16,None,61,61,0,True,right,1.6914593749970663,None,,,,,,,,0,61,61,61,,,,,,,,,269.3540326249931,,,,,,,,,,,,,,,,,,,,,,,,,,,,,,,,,,,,,,269.34743479099416,269.3540326249931,270.3526782909903,271.33616820799944,271.33616820799944,271.33616820799944,273.0382875409996,right,1.6914593749970663,None,,,,,,,,,,,,,,,,,,,,,,,,,,,,,,,,,,,,,,,,,,,,,,815228,001,2024-11-21_15h10.14.871,Test,2024.2.4,None,2024-11-21 15h10.31.219460 +0100,
25,150,120,51,None,62,62,0,False,right,3.850019167002756,None,,,,,,,,0,62,62,62,,,,,,,,,273.05373775000044,,,,,,,,,,,,,,,,,,,,,,,,,,,,,,,,,,,,,,273.0469844159961,273.05373775000044,274.0414810410002,275.03634862499894,275.03634862499894,275.03634862499894,278.88897691598686,right,3.850019167002756,None,278.02481862499553,278.02481862499553,278.03459833298984,,,,,,,,,,,,,,,,,,,,,,,,,,,,,,,,,,,,,,,,,,,815228,001,2024-11-21_15h10.14.871,Test,2024.2.4,None,2024-11-21 15h10.31.219460 +0100,
36,150,0,12,None,63,63,0,True,left,0.9358602080028504,None,,,,,,,,0,63,63,63,,,,,,,,,278.90479258299456,,,,,,,,,,,,,,,,,,,,,,,,,,,,,,,,,,,,,,278.8984249579953,278.90479258299456,279.9019604579953,280.8863475830003,280.8863475830003,280.8863475830003,281.8276890829875,left,0.9358602080028504,None,,,,,,,,,,,,,,,,,,,,,,,,,,,,,,,,,,,,,,,,,,,,,,815228,001,2024-11-21_15h10.14.871,Test,2024.2.4,None,2024-11-21 15h10.31.219460 +0100,
67,150,180,20,None,64,64,0,True,left,2.210303666011896,None,,,,,,,,0,64,64,64,,,,,,,,,281.8449069999915,,,,,,,,,,,,,,,,,,,,,,,,,,,,,,,,,,,,,,281.83723525000096,281.8449069999915,282.84072899998864,283.8271168749925,283.8271168749925,283.8271168749925,286.0448702499998,left,2.210303666011896,None,,,,,,,,,,,,,,,,,,,,,,,,,,,,,,,,,,,,,,,,,,,,,,815228,001,2024-11-21_15h10.14.871,Test,2024.2.4,None,2024-11-21 15h10.31.219460 +0100,
42,150,30,23,None,65,65,0,True,left,0.8700923750002403,None,,,,,,,,0,65,65,65,,,,,,,,,286.06261170799553,,,,,,,,,,,,,,,,,,,,,,,,,,,,,,,,,,,,,,286.05461858298804,286.06261170799553,287.058115790991,288.04350537499704,288.04350537499704,288.04350537499704,288.92171966598835,left,0.8700923750002403,None,,,,,,,,,,,,,,,,,,,,,,,,,,,,,,,,,,,,,,,,,,,,,,815228,001,2024-11-21_15h10.14.871,Test,2024.2.4,None,2024-11-21 15h10.31.219460 +0100,
24,150,120,19,None,66,66,0,False,right,1.3529977909929585,None,,,,,,,,0,66,66,66,,,,,,,,,288.9379893329897,,,,,,,,,,,,,,,,,,,,,,,,,,,,,,,,,,,,,,288.9313812909968,288.9379893329897,289.93592683300085,290.9195079159981,290.9195079159981,290.9195079159981,292.276597374992,right,1.3529977909929585,None,,,,,,,,,,,,,,,,,,,,,,,,,,,,,,,,,,,,,,,,,,,,,,815228,001,2024-11-21_15h10.14.871,Test,2024.2.4,None,2024-11-21 15h10.31.219460 +0100,
62,150,150,34,None,67,67,0,True,right,1.8632361670024693,None,,,,,,,,0,67,67,67,,,,,,,,,292.3032370409928,,,,,,,,,,,,,,,,,,,,,,,,,,,,,,,,,,,,,,292.29687254098826,292.3032370409928,293.2924026249966,294.28151187500043,294.28151187500043,294.28151187500043,296.1549718329916,right,1.8632361670024693,None,,,,,,,,,,,,,,,,,,,,,,,,,,,,,,,,,,,,,,,,,,,,,,815228,001,2024-11-21_15h10.14.871,Test,2024.2.4,None,2024-11-21 15h10.31.219460 +0100,
12,150,60,15,None,68,68,0,False,left,5.822589457995491,None,,,,,,,,0,68,68,68,,,,,,,,,296.1730467499874,,,,,,,,,,,,,,,,,,,,,,,,,,,,,,,,,,,,,,296.16647099998954,296.1730467499874,297.17443591599294,298.15296312498685,298.15296312498685,298.15296312498685,303.9780185409909,left,5.822589457995491,None,301.1415104159969,301.1415104159969,301.15278874999785,,,,,,,,,,,,,,,,,,,,,,,,,,,,,,,,,,,,,,,,,,,815228,001,2024-11-21_15h10.14.871,Test,2024.2.4,None,2024-11-21 15h10.31.219460 +0100,
40,150,0,63,None,69,69,0,True,left,0.866522124997573,None,,,,,,,,0,69,69,69,,,,,,,,,303.99523041599605,,,,,,,,,,,,,,,,,,,,,,,,,,,,,,,,,,,,,,303.9884844999906,303.99523041599605,304.9904422079999,305.9762459159974,305.9762459159974,305.9762459159974,306.85344474999874,left,0.866522124997573,None,,,,,,,,,,,,,,,,,,,,,,,,,,,,,,,,,,,,,,,,,,,,,,815228,001,2024-11-21_15h10.14.871,Test,2024.2.4,None,2024-11-21 15h10.31.219460 +0100,
,,,,,,,,,,,,,,,,,,,,,,,,,,,,,,,,,,,,,,,,,,,,,,,,,,,,,,,,,,,,,,,,,,,,,,,,,,,,,,,,,,306.8537666659977,306.86168024998915,306.86168024998915,308.87147270799323,space,2.0018295000045327,None,,,,,,,,,,,,,,,,,,,,,,,,,,,,,,,,,,,,815228,001,2024-11-21_15h10.14.871,Test,2024.2.4,None,2024-11-21 15h10.31.219460 +0100,
18,150,90,22,None,0,0,0,,,,,,,,,,,,,,,,0,0,0,17,,,,,308.90269679098856,,,,,,,,,,,,,,,,,,,,,,,,,,,,,,,,,,,,,,,,,,,,,,,,,,,,,,,,,,308.89511808298994,308.90269679098856,309.0687506659888,309.0687506659888,309.0900457499956,310.7679575410002,310.7679575410002,310.75362558299094,,,,,,,,,,,,,,,,,,,,,,,,,,,,815228,001,2024-11-21_15h10.14.871,Test,2024.2.4,None,2024-11-21 15h10.31.219460 +0100,
27,150,150,43,None,1,1,0,,,,,,,,,,,,,,,,0,1,1,26,,,,,310.7679575410002,,,,,,,,,,,,,,,,,,,,,,,,,,,,,,,,,,,,,,,,,,,,,,,,,,,,,,,,,,310.76307691598777,310.77218616599566,310.9694450829993,310.9694450829993,310.9694450829993,312.66725487499207,312.66725487499207,312.6533384159993,,,,,,,,,,,,,,,,,,,,,,,,,,,,815228,001,2024-11-21_15h10.14.871,Test,2024.2.4,None,2024-11-21 15h10.31.219460 +0100,
23,150,120,45,None,2,2,0,,,,,,,,,,,,,,,,0,2,2,22,,,,,312.66725487499207,,,,,,,,,,,,,,,,,,,,,,,,,,,,,,,,,,,,,,,,,,,,,,,,,,,,,,,,,,312.6624479999882,312.6709366659925,312.8695265409915,312.8695265409915,312.8695265409915,314.5677959579916,314.5677959579916,314.5539159159962,,,,,,,,,,,,,,,,,,,,,,,,,,,,815228,001,2024-11-21_15h10.14.871,Test,2024.2.4,None,2024-11-21 15h10.31.219460 +0100,
29,150,150,42,None,3,3,0,,,,,,,,,,,,,,,,0,3,3,28,,,,,314.5677959579916,,,,,,,,,,,,,,,,,,,,,,,,,,,,,,,,,,,,,,,,,,,,,,,,,,,,,,,,,,314.56266183299886,314.57147891599743,314.76955091599666,314.76955091599666,314.76955091599666,316.46791279099125,316.46791279099125,316.45389591599815,,,,,,,,,,,,,,,,,,,,,,,,,,,,815228,001,2024-11-21_15h10.14.871,Test,2024.2.4,None,2024-11-21 15h10.31.219460 +0100,
30,150,150,29,None,4,4,0,,,,,,,,,,,,,,,,0,4,4,29,,,,,316.46791279099125,,,,,,,,,,,,,,,,,,,,,,,,,,,,,,,,,,,,,,,,,,,,,,,,,,,,,,,,,,316.46288462499797,316.4732302909979,316.6695636660006,316.6695636660006,316.6695636660006,318.3675893749896,318.3675893749896,318.35367154100095,,,,,,,,,,,,,,,,,,,,,,,,,,,,815228,001,2024-11-21_15h10.14.871,Test,2024.2.4,None,2024-11-21 15h10.31.219460 +0100,
12,150,60,15,None,5,5,0,,,,,,,,,,,,,,,,0,5,5,11,,,,,318.3675893749896,,,,,,,,,,,,,,,,,,,,,,,,,,,,,,,,,,,,,,,,,,,,,,,,,,,,,,,,,,318.36267791599676,318.37255791599455,318.5695316659985,318.5695316659985,318.5695316659985,320.26715258299373,320.26715258299373,320.25355324998964,,,,,,,,,,,,,,,,,,,,,,,,,,,,815228,001,2024-11-21_15h10.14.871,Test,2024.2.4,None,2024-11-21 15h10.31.219460 +0100,
28,150,150,65,None,6,6,0,,,,,,,,,,,,,,,,0,6,6,27,,,,,320.26715258299373,,,,,,,,,,,,,,,,,,,,,,,,,,,,,,,,,,,,,,,,,,,,,,,,,,,,,,,,,,320.2622191249975,320.2719105829892,320.46938416599005,320.46938416599005,320.46938416599005,322.16838512499817,322.16838512499817,322.15357679099543,,,,,,,,,,,,,,,,,,,,,,,,,,,,815228,001,2024-11-21_15h10.14.871,Test,2024.2.4,None,2024-11-21 15h10.31.219460 +0100,
21,150,120,61,None,7,7,0,,,,,,,,,,,,,,,,0,7,7,20,,,,,322.16838512499817,,,,,,,,,,,,,,,,,,,,,,,,,,,,,,,,,,,,,,,,,,,,,,,,,,,,,,,,,,322.16321687499294,322.17286245799914,322.369440208,322.369440208,322.369440208,324.06791404099204,324.06791404099204,324.0538422499958,,,,,,,,,,,,,,,,,,,,,,,,,,,,815228,001,2024-11-21_15h10.14.871,Test,2024.2.4,None,2024-11-21 15h10.31.219460 +0100,
8,150,30,40,None,8,8,0,,,,,,,,,,,,,,,,0,8,8,7,,,,,324.06791404099204,,,,,,,,,,,,,,,,,,,,,,,,,,,,,,,,,,,,,,,,,,,,,,,,,,,,,,,,,,324.06291333299305,324.0726477499993,324.26954720799404,324.26954720799404,324.26954720799404,325.9687731659942,325.9687731659942,325.9538432499976,,,,,,,,,,,,,,,,,,,,,,,,,,,,815228,001,2024-11-21_15h10.14.871,Test,2024.2.4,None,2024-11-21 15h10.31.219460 +0100,
1,150,0,13,None,9,9,0,,,,,,,,,,,,,,,,0,9,9,0,,,,,325.9687731659942,,,,,,,,,,,,,,,,,,,,,,,,,,,,,,,,,,,,,,,,,,,,,,,,,,,,,,,,,,325.963857499999,325.98607145799906,326.1694905409968,326.1694905409968,326.1754013329919,327.8676155409921,327.8676155409921,327.85369987499143,,,,,,,,,,,,,,,,,,,,,,,,,,,,815228,001,2024-11-21_15h10.14.871,Test,2024.2.4,None,2024-11-21 15h10.31.219460 +0100,
19,150,90,28,None,10,10,0,,,,,,,,,,,,,,,,0,10,10,18,,,,,327.8676155409921,,,,,,,,,,,,,,,,,,,,,,,,,,,,,,,,,,,,,,,,,,,,,,,,,,,,,,,,,,327.8626427079871,327.87163062499894,328.0695150829997,328.0695150829997,328.0695150829997,329.7683365409903,329.7683365409903,329.75377508299425,,,,,,,,,,,,,,,,,,,,,,,,,,,,815228,001,2024-11-21_15h10.14.871,Test,2024.2.4,None,2024-11-21 15h10.31.219460 +0100,
26,150,150,67,None,11,11,0,,,,,,,,,,,,,,,,0,11,11,25,,,,,329.7683365409903,,,,,,,,,,,,,,,,,,,,,,,,,,,,,,,,,,,,,,,,,,,,,,,,,,,,,,,,,,329.7628102499875,329.772854040988,329.9693808749871,329.9693808749871,329.9693808749871,331.6677550829918,331.6677550829918,331.6537602499884,,,,,,,,,,,,,,,,,,,,,,,,,,,,815228,001,2024-11-21_15h10.14.871,Test,2024.2.4,None,2024-11-21 15h10.31.219460 +0100,
5,150,0,37,None,12,12,0,,,,,,,,,,,,,,,,0,12,12,4,,,,,331.6677550829918,,,,,,,,,,,,,,,,,,,,,,,,,,,,,,,,,,,,,,,,,,,,,,,,,,,,,,,,,,331.66291437498876,331.6718440830009,331.86948024999583,331.86948024999583,331.86948024999583,333.5692281659867,333.5692281659867,333.5539076249988,,,,,,,,,,,,,,,,,,,,,,,,,,,,815228,001,2024-11-21_15h10.14.871,Test,2024.2.4,None,2024-11-21 15h10.31.219460 +0100,
35,150,180,1,None,13,13,0,,,,,,,,,,,,,,,,0,13,13,34,,,,,333.5692281659867,,,,,,,,,,,,,,,,,,,,,,,,,,,,,,,,,,,,,,,,,,,,,,,,,,,,,,,,,,333.56306737499835,333.5739391249954,333.7697897909966,333.7697897909966,333.7697897909966,335.4682846249925,335.4682846249925,335.45392091599933,,,,,,,,,,,,,,,,,,,,,,,,,,,,815228,001,2024-11-21_15h10.14.871,Test,2024.2.4,None,2024-11-21 15h10.31.219460 +0100,
33,150,180,21,None,14,14,0,,,,,,,,,,,,,,,,0,14,14,32,,,,,335.4682846249925,,,,,,,,,,,,,,,,,,,,,,,,,,,,,,,,,,,,,,,,,,,,,,,,,,,,,,,,,,335.4634909999877,335.472448540997,335.6693816659972,335.6693816659972,335.6693816659972,337.36820537499443,337.36820537499443,337.35368833299435,,,,,,,,,,,,,,,,,,,,,,,,,,,,815228,001,2024-11-21_15h10.14.871,Test,2024.2.4,None,2024-11-21 15h10.31.219460 +0100,
2,150,0,41,None,15,15,0,,,,,,,,,,,,,,,,0,15,15,1,,,,,337.36820537499443,,,,,,,,,,,,,,,,,,,,,,,,,,,,,,,,,,,,,,,,,,,,,,,,,,,,,,,,,,337.36306004099606,337.3730589159968,337.56964954099385,337.56964954099385,337.56964954099385,339.2674013749929,339.2674013749929,339.2538020409993,,,,,,,,,,,,,,,,,,,,,,,,,,,,815228,001,2024-11-21_15h10.14.871,Test,2024.2.4,None,2024-11-21 15h10.31.219460 +0100,
14,150,60,54,None,16,16,0,,,,,,,,,,,,,,,,0,16,16,13,,,,,339.2674013749929,,,,,,,,,,,,,,,,,,,,,,,,,,,,,,,,,,,,,,,,,,,,,,,,,,,,,,,,,,339.262471457987,339.2719275409909,339.4696639159956,339.4696639159956,339.4696639159956,341.16723524998815,341.16723524998815,341.15376237499004,,,,,,,,,,,,,,,,,,,,,,,,,,,,815228,001,2024-11-21_15h10.14.871,Test,2024.2.4,None,2024-11-21 15h10.31.219460 +0100,
16,150,90,68,None,17,17,0,,,,,,,,,,,,,,,,0,17,17,15,,,,,341.16723524998815,,,,,,,,,,,,,,,,,,,,,,,,,,,,,,,,,,,,,,,,,,,,,,,,,,,,,,,,,,341.1622404160007,341.17182266598684,341.3694642499904,341.3694642499904,341.3694642499904,343.0675680409913,343.0675680409913,343.05375241598813,,,,,,,,,,,,,,,,,,,,,,,,,,,,815228,001,2024-11-21_15h10.14.871,Test,2024.2.4,None,2024-11-21 15h10.31.219460 +0100,
4,150,0,44,None,18,18,0,,,,,,,,,,,,,,,,0,18,18,3,,,,,343.0675680409913,,,,,,,,,,,,,,,,,,,,,,,,,,,,,,,,,,,,,,,,,,,,,,,,,,,,,,,,,,343.0624916659872,343.0719498749968,343.26938737499586,343.26938737499586,343.26938737499586,344.96759370798827,344.96759370798827,344.95362320799904,,,,,,,,,,,,,,,,,,,,,,,,,,,,815228,001,2024-11-21_15h10.14.871,Test,2024.2.4,None,2024-11-21 15h10.31.219460 +0100,
10,150,30,47,None,19,19,0,,,,,,,,,,,,,,,,0,19,19,9,,,,,344.96759370798827,,,,,,,,,,,,,,,,,,,,,,,,,,,,,,,,,,,,,,,,,,,,,,,,,,,,,,,,,,344.9628854159964,344.97167199999967,345.16939520799497,345.16939520799497,345.16939520799497,346.86793087499973,346.86793087499973,346.8537543329876,,,,,,,,,,,,,,,,,,,,,,,,,,,,815228,001,2024-11-21_15h10.14.871,Test,2024.2.4,None,2024-11-21 15h10.31.219460 +0100,
3,150,0,57,None,20,20,0,,,,,,,,,,,,,,,,0,20,20,2,,,,,346.86793087499973,,,,,,,,,,,,,,,,,,,,,,,,,,,,,,,,,,,,,,,,,,,,,,,,,,,,,,,,,,346.86303954100003,346.872091540994,347.069429915995,347.069429915995,347.069429915995,348.7768167079921,348.7768167079921,348.75391904098797,,,,,,,,,,,,,,,,,,,,,,,,,,,,815228,001,2024-11-21_15h10.14.871,Test,2024.2.4,None,2024-11-21 15h10.31.219460 +0100,
7,150,30,27,None,21,21,0,,,,,,,,,,,,,,,,0,21,21,6,,,,,348.7768167079921,,,,,,,,,,,,,,,,,,,,,,,,,,,,,,,,,,,,,,,,,,,,,,,,,,,,,,,,,,348.76835562499764,348.7860054579942,348.9694973329897,348.9694973329897,348.97587112498877,350.66809808299877,350.66809808299877,350.653869457994,,,,,,,,,,,,,,,,,,,,,,,,,,,,815228,001,2024-11-21_15h10.14.871,Test,2024.2.4,None,2024-11-21 15h10.31.219460 +0100,
34,150,180,18,None,22,22,0,,,,,,,,,,,,,,,,0,22,22,33,,,,,350.66809808299877,,,,,,,,,,,,,,,,,,,,,,,,,,,,,,,,,,,,,,,,,,,,,,,,,,,,,,,,,,350.66284133298905,350.67251737498736,350.8695500409958,350.8695500409958,350.8695500409958,352.5684502499935,352.5684502499935,352.55396812499384,,,,,,,,,,,,,,,,,,,,,,,,,,,,815228,001,2024-11-21_15h10.14.871,Test,2024.2.4,None,2024-11-21 15h10.31.219460 +0100,
25,150,120,51,None,23,23,0,,,,,,,,,,,,,,,,0,23,23,24,,,,,352.5684502499935,,,,,,,,,,,,,,,,,,,,,,,,,,,,,,,,,,,,,,,,,,,,,,,,,,,,,,,,,,352.56339599999774,352.5727979999938,352.7694891249994,352.7694891249994,352.7694891249994,354.4684865829913,354.4684865829913,354.4541712499922,,,,,,,,,,,,,,,,,,,,,,,,,,,,815228,001,2024-11-21_15h10.14.871,Test,2024.2.4,None,2024-11-21 15h10.31.219460 +0100,
13,150,60,56,None,24,24,0,,,,,,,,,,,,,,,,0,24,24,12,,,,,354.4684865829913,,,,,,,,,,,,,,,,,,,,,,,,,,,,,,,,,,,,,,,,,,,,,,,,,,,,,,,,,,354.4634929159947,354.4732687499927,354.6694657499902,354.6694657499902,354.6694657499902,356.3686561249924,356.3686561249924,356.35370591600076,,,,,,,,,,,,,,,,,,,,,,,,,,,,815228,001,2024-11-21_15h10.14.871,Test,2024.2.4,None,2024-11-21 15h10.31.219460 +0100,
22,150,120,2,None,25,25,0,,,,,,,,,,,,,,,,0,25,25,21,,,,,356.3686561249924,,,,,,,,,,,,,,,,,,,,,,,,,,,,,,,,,,,,,,,,,,,,,,,,,,,,,,,,,,356.3638113329944,356.3859733329882,356.5694494999916,356.5694494999916,356.5753447909956,358.26638404099504,358.26638404099504,358.2534576659964,,,,,,,,,,,,,,,,,,,,,,,,,,,,815228,001,2024-11-21_15h10.14.871,Test,2024.2.4,None,2024-11-21 15h10.31.219460 +0100,
32,150,180,9,None,26,26,0,,,,,,,,,,,,,,,,0,26,26,31,,,,,358.26638404099504,,,,,,,,,,,,,,,,,,,,,,,,,,,,,,,,,,,,,,,,,,,,,,,,,,,,,,,,,,358.2613462499867,358.2720439580007,358.4693622909981,358.4693622909981,358.4693622909981,360.16816899999685,360.16816899999685,360.1537673329876,,,,,,,,,,,,,,,,,,,,,,,,,,,,815228,001,2024-11-21_15h10.14.871,Test,2024.2.4,None,2024-11-21 15h10.31.219460 +0100,
15,150,60,60,None,27,27,0,,,,,,,,,,,,,,,,0,27,27,14,,,,,360.16816899999685,,,,,,,,,,,,,,,,,,,,,,,,,,,,,,,,,,,,,,,,,,,,,,,,,,,,,,,,,,360.16338195798744,360.1718727499974,360.3697157909919,360.3697157909919,360.3697157909919,362.0672916249896,362.0672916249896,362.0537254160008,,,,,,,,,,,,,,,,,,,,,,,,,,,,815228,001,2024-11-21_15h10.14.871,Test,2024.2.4,None,2024-11-21 15h10.31.219460 +0100,
11,150,60,7,None,28,28,0,,,,,,,,,,,,,,,,0,28,28,10,,,,,362.0672916249896,,,,,,,,,,,,,,,,,,,,,,,,,,,,,,,,,,,,,,,,,,,,,,,,,,,,,,,,,,362.06252912498894,362.0711333329964,362.2695117909898,362.2695117909898,362.2695117909898,363.9671696659934,363.9671696659934,363.9529177499935,,,,,,,,,,,,,,,,,,,,,,,,,,,,815228,001,2024-11-21_15h10.14.871,Test,2024.2.4,None,2024-11-21 15h10.31.219460 +0100,
24,150,120,19,None,29,29,0,,,,,,,,,,,,,,,,0,29,29,23,,,,,363.9671696659934,,,,,,,,,,,,,,,,,,,,,,,,,,,,,,,,,,,,,,,,,,,,,,,,,,,,,,,,,,363.9621717080008,363.97172212498845,364.1694453329983,364.1694453329983,364.1694453329983,365.8678349159891,365.8678349159891,365.85376887499297,,,,,,,,,,,,,,,,,,,,,,,,,,,,815228,001,2024-11-21_15h10.14.871,Test,2024.2.4,None,2024-11-21 15h10.31.219460 +0100,
17,150,90,26,None,30,30,0,,,,,,,,,,,,,,,,0,30,30,16,,,,,365.8678349159891,,,,,,,,,,,,,,,,,,,,,,,,,,,,,,,,,,,,,,,,,,,,,,,,,,,,,,,,,,365.8626390409918,365.87289279099787,366.0694991249911,366.0694991249911,366.0694991249911,367.7668703329982,367.7668703329982,367.7534343749867,,,,,,,,,,,,,,,,,,,,,,,,,,,,815228,001,2024-11-21_15h10.14.871,Test,2024.2.4,None,2024-11-21 15h10.31.219460 +0100,
31,150,180,6,None,31,31,0,,,,,,,,,,,,,,,,0,31,31,30,,,,,367.7668703329982,,,,,,,,,,,,,,,,,,,,,,,,,,,,,,,,,,,,,,,,,,,,,,,,,,,,,,,,,,367.762142749998,367.77140591599164,367.96960529100033,367.96960529100033,367.96960529100033,369.66760412498843,369.66760412498843,369.6536732079985,,,,,,,,,,,,,,,,,,,,,,,,,,,,815228,001,2024-11-21_15h10.14.871,Test,2024.2.4,None,2024-11-21 15h10.31.219460 +0100,
9,150,30,4,None,32,32,0,,,,,,,,,,,,,,,,0,32,32,8,,,,,369.66760412498843,,,,,,,,,,,,,,,,,,,,,,,,,,,,,,,,,,,,,,,,,,,,,,,,,,,,,,,,,,369.66257391599356,369.671573249987,369.8694455829973,369.8694455829973,369.8694455829973,371.56726591599,371.56726591599,371.5537855829898,,,,,,,,,,,,,,,,,,,,,,,,,,,,815228,001,2024-11-21_15h10.14.871,Test,2024.2.4,None,2024-11-21 15h10.31.219460 +0100,
6,150,30,35,None,33,33,0,,,,,,,,,,,,,,,,0,33,33,5,,,,,371.56726591599,,,,,,,,,,,,,,,,,,,,,,,,,,,,,,,,,,,,,,,,,,,,,,,,,,,,,,,,,,371.5623204999865,371.5722347080009,371.76950874998874,371.76950874998874,371.76950874998874,373.4681107499928,373.4681107499928,373.4539535410004,,,,,,,,,,,,,,,,,,,,,,,,,,,,815228,001,2024-11-21_15h10.14.871,Test,2024.2.4,None,2024-11-21 15h10.31.219460 +0100,
20,150,90,52,None,34,34,0,,,,,,,,,,,,,,,,0,34,34,19,,,,,373.4681107499928,,,,,,,,,,,,,,,,,,,,,,,,,,,,,,,,,,,,,,,,,,,,,,,,,,,,,,,,,,373.46318708299077,373.4722797079885,373.6695744999888,373.6695744999888,373.6695744999888,375.3589282499888,375.3589282499888,375.35361058299895,,,,,,,,,,,,,,,,,,,,,,,,,,,,815228,001,2024-11-21_15h10.14.871,Test,2024.2.4,None,2024-11-21 15h10.31.219460 +0100,
,,,,,,,,,,,,,,,,,,,,,,,,,,,,,,,,,,,,,,,,,,,,,,,,,,,,,,,,,,,,,,,,,,,,,,,,,,,,,,,,,,,,,,,,,,,,,,,,,375.3538499999995,375.36884387499595,375.36884387499595,376.762800624987,space,1.3862970000045607,None,,,,,,,,,,,,,,,,,,,,,815228,001,2024-11-21_15h10.14.871,Test,2024.2.4,None,2024-11-21 15h10.31.219460 +0100,
9,150,30,4,None,0,0,0,False,,,,right,1.3250942500017118,None,,,,,,,,,,,,,0,0,0,0,376.9036101249949,,,,,,,,,,,,,,,,,,,,,,,,,,,,,,,,,,,,,,,,,,,,,,,,,,,,,,,,,,,,,,,,,,,,,,,,,376.8975045829866,376.9036101249949,377.8908421249944,378.76154049999604,378.76154049999604,378.76154049999604,380.08959308298654,right,1.3250942500017118,None,,,,,,,,,,,815228,001,2024-11-21_15h10.14.871,Test,2024.2.4,None,2024-11-21 15h10.31.219460 +0100,
27,150,150,43,None,1,1,0,False,,,,right,0.8005399579997174,None,,,,,,,,,,,,,0,1,1,1,380.10695862499415,,,,,,,,,,,,,,,,,,,,,,,,,,,,,,,,,,,,,,,,,,,,,,,,,,,,,,,,,,,,,,,,,,,,,,,,,380.0998379579978,380.10695862499415,381.10285250000015,382.08647499998915,382.08647499998915,382.08647499998915,382.89117345798877,right,0.8005399579997174,None,,,,,,,,,,,815228,001,2024-11-21_15h10.14.871,Test,2024.2.4,None,2024-11-21 15h10.31.219460 +0100,
5,150,0,37,None,2,2,0,False,,,,left,1.085287125009927,None,,,,,,,,,,,,,0,2,2,2,382.90562283300096,,,,,,,,,,,,,,,,,,,,,,,,,,,,,,,,,,,,,,,,,,,,,,,,,,,,,,,,,,,,,,,,,,,,,,,,,382.89957433298696,382.90562283300096,383.90272499999264,384.88595395800075,384.88595395800075,384.88595395800075,385.97760812498746,left,1.085287125009927,None,,,,,,,,,,,815228,001,2024-11-21_15h10.14.871,Test,2024.2.4,None,2024-11-21 15h10.31.219460 +0100,
53,150,90,53,None,3,3,0,True,,,,left,0.8129337090067565,None,,,,,,,,,,,,,0,3,3,3,385.99333954098984,,,,,,,,,,,,,,,,,,,,,,,,,,,,,,,,,,,,,,,,,,,,,,,,,,,,,,,,,,,,,,,,,,,,,,,,,385.986882540994,385.99333954098984,386.9912383329938,387.977617749988,387.977617749988,387.977617749988,388.79450749998796,left,0.8129337090067565,None,,,,,,,,,,,815228,001,2024-11-21_15h10.14.871,Test,2024.2.4,None,2024-11-21 15h10.31.219460 +0100,
10,150,30,47,None,4,4,0,False,,,,right,0.9293149159930181,None,,,,,,,,,,,,,0,4,4,4,388.81022949999897,,,,,,,,,,,,,,,,,,,,,,,,,,,,,,,,,,,,,,,,,,,,,,,,,,,,,,,,,,,,,,,,,,,,,,,,,388.8041613749956,388.81022949999897,389.8069354999898,390.7925986249902,390.7925986249902,390.7925986249902,391.7279730409937,right,0.9293149159930181,None,,,,,,,,,,,815228,001,2024-11-21_15h10.14.871,Test,2024.2.4,None,2024-11-21 15h10.31.219460 +0100,
13,150,60,56,None,5,5,0,False,,,,right,4.1273476669884985,None,,,,,,,,,,,,,0,5,5,5,391.74249799999234,,,,,,,,,,,,,,,,,,,,,,,,,,,,,,,,,,,,,,,,,,,,,,,,,,,,,,,,,,,,,,,,,,,,,,,,,391.73626858298667,391.74249799999234,392.7361772079894,393.7269206659985,393.7269206659985,393.7269206659985,397.86130299999786,right,4.1273476669884985,None,396.7193165829958,396.7193165829958,396.7273120829923,,,,,,,,815228,001,2024-11-21_15h10.14.871,Test,2024.2.4,None,2024-11-21 15h10.31.219460 +0100,
21,150,120,61,None,6,6,0,False,,,,right,0.9338470419897931,None,,,,,,,,,,,,,0,6,6,6,397.8759834579978,,,,,,,,,,,,,,,,,,,,,,,,,,,,,,,,,,,,,,,,,,,,,,,,,,,,,,,,,,,,,,,,,,,,,,,,,397.8697824999981,397.8759834579978,398.86965516599594,399.85998012499476,399.85998012499476,399.85998012499476,400.8049619579979,right,0.9338470419897931,None,,,,,,,,,,,815228,001,2024-11-21_15h10.14.871,Test,2024.2.4,None,2024-11-21 15h10.31.219460 +0100,
16,150,90,68,None,7,7,0,False,,,,right,3.3917373750009574,None,,,,,,,,,,,,,0,7,7,7,400.82109937499627,,,,,,,,,,,,,,,,,,,,,,,,,,,,,,,,,,,,,,,,,,,,,,,,,,,,,,,,,,,,,,,,,,,,,,,,,400.81435379099275,400.82109937499627,401.81929154098907,402.8028860829945,402.8028860829945,402.8028860829945,406.20488604099955,right,3.3917373750009574,None,405.79139729098824,405.79139729098824,405.8028795829887,,,,,,,,815228,001,2024-11-21_15h10.14.871,Test,2024.2.4,None,2024-11-21 15h10.31.219460 +0100,
70,150,180,49,None,8,8,0,True,,,,right,1.0335771670070244,None,,,,,,,,,,,,,0,8,8,8,406.2219105409895,,,,,,,,,,,,,,,,,,,,,,,,,,,,,,,,,,,,,,,,,,,,,,,,,,,,,,,,,,,,,,,,,,,,,,,,,406.21492812498764,406.2219105409895,407.2193494999956,408.2030082909914,408.2030082909914,408.2030082909914,409.239780666001,right,1.0335771670070244,None,,,,,,,,,,,815228,001,2024-11-21_15h10.14.871,Test,2024.2.4,None,2024-11-21 15h10.31.219460 +0100,
51,150,90,46,None,9,9,0,True,,,,right,0.9756593750062166,None,,,,,,,,,,,,,0,9,9,9,409.25652383299894,,,,,,,,,,,,,,,,,,,,,,,,,,,,,,,,,,,,,,,,,,,,,,,,,,,,,,,,,,,,,,,,,,,,,,,,,409.25019795799744,409.25652383299894,410.25266183298663,411.23620991599455,411.23620991599455,411.23620991599455,412.2213801249891,right,0.9756593750062166,None,,,,,,,,,,,815228,001,2024-11-21_15h10.14.871,Test,2024.2.4,None,2024-11-21 15h10.31.219460 +0100,
50,150,60,36,None,10,10,0,True,,,,left,0.879950665999786,None,,,,,,,,,,,,,0,10,10,10,412.2377091249946,,,,,,,,,,,,,,,,,,,,,,,,,,,,,,,,,,,,,,,,,,,,,,,,,,,,,,,,,,,,,,,,,,,,,,,,,412.2314580409875,412.2377091249946,413.23616537499765,414.2195265409973,414.2195265409973,414.2195265409973,415.1055625000008,left,0.879950665999786,None,,,,,,,,,,,815228,001,2024-11-21_15h10.14.871,Test,2024.2.4,None,2024-11-21 15h10.31.219460 +0100,
29,150,150,42,None,11,11,0,False,,,,left,1.0385274159925757,None,,,,,,,,,,,,,0,11,11,11,415.1218044159905,,,,,,,,,,,,,,,,,,,,,,,,,,,,,,,,,,,,,,,,,,,,,,,,,,,,,,,,,,,,,,,,,,,,,,,,,415.11555808299454,415.1218044159905,416.1193175829976,417.10291795799276,417.10291795799276,417.10291795799276,418.1451779999916,left,1.0385274159925757,None,,,,,,,,,,,815228,001,2024-11-21_15h10.14.871,Test,2024.2.4,None,2024-11-21 15h10.31.219460 +0100,
66,150,180,50,None,12,12,0,True,,,,right,1.0551351670001168,None,,,,,,,,,,,,,0,12,12,12,418.16175104099966,,,,,,,,,,,,,,,,,,,,,,,,,,,,,,,,,,,,,,,,,,,,,,,,,,,,,,,,,,,,,,,,,,,,,,,,,418.1542397079902,418.16175104099966,419.15819499999634,420.1431634999899,420.1431634999899,420.1431634999899,421.20483749998675,right,1.0551351670001168,None,,,,,,,,,,,815228,001,2024-11-21_15h10.14.871,Test,2024.2.4,None,2024-11-21 15h10.31.219460 +0100,
20,150,90,52,None,13,13,0,False,,,,right,0.8575184169894783,None,,,,,,,,,,,,,0,13,13,13,421.2214282079949,,,,,,,,,,,,,,,,,,,,,,,,,,,,,,,,,,,,,,,,,,,,,,,,,,,,,,,,,,,,,,,,,,,,,,,,,421.21474124999077,421.2214282079949,422.21936849999474,423.2029647499876,423.2029647499876,423.2029647499876,424.07185533299344,right,0.8575184169894783,None,,,,,,,,,,,815228,001,2024-11-21_15h10.14.871,Test,2024.2.4,None,2024-11-21 15h10.31.219460 +0100,
48,150,60,5,None,14,14,0,True,,,,left,1.2100353330024518,None,,,,,,,,,,,,,0,14,14,14,424.0891062499868,,,,,,,,,,,,,,,,,,,,,,,,,,,,,,,,,,,,,,,,,,,,,,,,,,,,,,,,,,,,,,,,,,,,,,,,,424.0826009579905,424.0891062499868,425.08593441599805,426.0697456659982,426.0697456659982,426.0697456659982,427.2895281659876,left,1.2100353330024518,None,,,,,,,,,,,815228,001,2024-11-21_15h10.14.871,Test,2024.2.4,None,2024-11-21 15h10.31.219460 +0100,
68,150,180,66,None,15,15,0,True,,,,left,1.2839038340025581,None,,,,,,,,,,,,,0,15,15,15,427.3070490829996,,,,,,,,,,,,,,,,,,,,,,,,,,,,,,,,,,,,,,,,,,,,,,,,,,,,,,,,,,,,,,,,,,,,,,,,,427.29942816599214,427.3070490829996,428.302869207997,429.2862444159982,429.2862444159982,429.2862444159982,430.58206541599066,left,1.2839038340025581,None,,,,,,,,,,,815228,001,2024-11-21_15h10.14.871,Test,2024.2.4,None,2024-11-21 15h10.31.219460 +0100,
35,150,180,1,None,16,16,0,False,,,,left,3.6430167500075186,None,,,,,,,,,,,,,0,16,16,16,430.5956487910007,,,,,,,,,,,,,,,,,,,,,,,,,,,,,,,,,,,,,,,,,,,,,,,,,,,,,,,,,,,,,,,,,,,,,,,,,430.5908696659899,430.5956487910007,431.5913810829952,432.5767445829988,432.5767445829988,432.5767445829988,436.2229523749993,left,3.6430167500075186,None,435.56969683298666,435.56969683298666,435.5768207499932,,,,,,,,815228,001,2024-11-21_15h10.14.871,Test,2024.2.4,None,2024-11-21 15h10.31.219460 +0100,
30,150,150,29,None,17,17,0,False,,,,right,0.9671437090000836,None,,,,,,,,,,,,,0,17,17,17,436.23892570799217,,,,,,,,,,,,,,,,,,,,,,,,,,,,,,,,,,,,,,,,,,,,,,,,,,,,,,,,,,,,,,,,,,,,,,,,,436.2323654579959,436.23892570799217,437.23603145800007,438.2195223749877,438.2195223749877,438.2195223749877,439.18967908299237,right,0.9671437090000836,None,,,,,,,,,,,815228,001,2024-11-21_15h10.14.871,Test,2024.2.4,None,2024-11-21 15h10.31.219460 +0100,
4,150,0,44,None,18,18,0,False,,,,left,0.8860662079969188,None,,,,,,,,,,,,,0,18,18,18,439.2070362079976,,,,,,,,,,,,,,,,,,,,,,,,,,,,,,,,,,,,,,,,,,,,,,,,,,,,,,,,,,,,,,,,,,,,,,,,,439.1998986249964,439.2070362079976,440.2026939579955,441.1862944579916,441.1862944579916,441.1862944579916,442.0753657079913,left,0.8860662079969188,None,,,,,,,,,,,815228,001,2024-11-21_15h10.14.871,Test,2024.2.4,None,2024-11-21 15h10.31.219460 +0100,
34,150,180,18,None,19,19,0,False,,,,left,0.8400617910083383,None,,,,,,,,,,,,,0,19,19,19,442.0849682499975,,,,,,,,,,,,,,,,,,,,,,,,,,,,,,,,,,,,,,,,,,,,,,,,,,,,,,,,,,,,,,,,,,,,,,,,,442.0786073329946,442.0849682499975,443.0746999159892,444.06957245800004,444.06957245800004,444.06957245800004,444.91216899998835,left,0.8400617910083383,None,,,,,,,,,,,815228,001,2024-11-21_15h10.14.871,Test,2024.2.4,None,2024-11-21 15h10.31.219460 +0100,
47,150,60,14,None,20,20,0,True,,,,right,1.3547439579997445,None,,,,,,,,,,,,,0,20,20,20,444.92862945799425,,,,,,,,,,,,,,,,,,,,,,,,,,,,,,,,,,,,,,,,,,,,,,,,,,,,,,,,,,,,,,,,,,,,,,,,,444.9218549159996,444.92862945799425,445.9242349159904,446.908987332994,446.908987332994,446.908987332994,448.27145374999964,right,1.3547439579997445,None,,,,,,,,,,,815228,001,2024-11-21_15h10.14.871,Test,2024.2.4,None,2024-11-21 15h10.31.219460 +0100,
54,150,90,11,None,21,21,0,True,,,,right,2.8544642919878243,None,,,,,,,,,,,,,0,21,21,21,448.3055137909978,,,,,,,,,,,,,,,,,,,,,,,,,,,,,,,,,,,,,,,,,,,,,,,,,,,,,,,,,,,,,,,,,,,,,,,,,448.30052004099707,448.3055137909978,449.3026239579922,450.2685226249887,450.2685226249887,450.2685226249887,453.12777754099807,right,2.8544642919878243,None,,,,,,,,,,,815228,001,2024-11-21_15h10.14.871,Test,2024.2.4,None,2024-11-21 15h10.31.219460 +0100,
11,150,60,7,None,22,22,0,False,,,,right,2.99387570899853,None,,,,,,,,,,,,,0,22,22,22,453.14453241598676,,,,,,,,,,,,,,,,,,,,,,,,,,,,,,,,,,,,,,,,,,,,,,,,,,,,,,,,,,,,,,,,,,,,,,,,,453.1378671249986,453.14453241598676,454.1411134999944,455.1268518750003,455.1268518750003,455.1268518750003,458.128110790989,right,2.99387570899853,None,458.12616224998783,458.12616224998783,458.12616224998783,,,,,,,,815228,001,2024-11-21_15h10.14.871,Test,2024.2.4,None,2024-11-21 15h10.31.219460 +0100,
19,150,90,28,None,23,23,0,False,,,,right,0.9809067089954624,None,,,,,,,,,,,,,0,23,23,23,458.14434341598826,,,,,,,,,,,,,,,,,,,,,,,,,,,,,,,,,,,,,,,,,,,,,,,,,,,,,,,,,,,,,,,,,,,,,,,,,458.13752574998944,458.14434341598826,459.14153766600066,460.1389353329869,460.1389353329869,460.1389353329869,461.1229448749946,right,0.9809067089954624,None,,,,,,,,,,,815228,001,2024-11-21_15h10.14.871,Test,2024.2.4,None,2024-11-21 15h10.31.219460 +0100,
60,150,120,17,None,24,24,0,True,,,,right,0.68927629198879,None,,,,,,,,,,,,,0,24,24,24,461.13855054099986,,,,,,,,,,,,,,,,,,,,,,,,,,,,,,,,,,,,,,,,,,,,,,,,,,,,,,,,,,,,,,,,,,,,,,,,,461.1323013329966,461.13855054099986,462.1361439159955,463.1194281249918,463.1194281249918,463.1194281249918,463.8113405829936,right,0.68927629198879,None,,,,,,,,,,,815228,001,2024-11-21_15h10.14.871,Test,2024.2.4,None,2024-11-21 15h10.31.219460 +0100,
46,150,60,31,None,25,25,0,True,,,,left,1.0453897499974119,None,,,,,,,,,,,,,0,25,25,25,463.82664516598743,,,,,,,,,,,,,,,,,,,,,,,,,,,,,,,,,,,,,,,,,,,,,,,,,,,,,,,,,,,,,,,,,,,,,,,,,463.82034991600085,463.82664516598743,464.8238149579993,465.81061291600054,465.81061291600054,465.81061291600054,466.8611358749913,left,1.0453897499974119,None,,,,,,,,,,,815228,001,2024-11-21_15h10.14.871,Test,2024.2.4,None,2024-11-21 15h10.31.219460 +0100,
3,150,0,57,None,26,26,0,False,,,,right,1.2853710829949705,None,,,,,,,,,,,,,0,26,26,26,466.8775126249966,,,,,,,,,,,,,,,,,,,,,,,,,,,,,,,,,,,,,,,,,,,,,,,,,,,,,,,,,,,,,,,,,,,,,,,,,466.8707686659909,466.8775126249966,467.87452612500056,468.86031349998666,468.86031349998666,468.86031349998666,470.1553699999931,right,1.2853710829949705,None,,,,,,,,,,,815228,001,2024-11-21_15h10.14.871,Test,2024.2.4,None,2024-11-21 15h10.31.219460 +0100,
23,150,120,45,None,27,27,0,False,,,,right,1.12040529200749,None,,,,,,,,,,,,,0,27,27,27,470.1720543329866,,,,,,,,,,,,,,,,,,,,,,,,,,,,,,,,,,,,,,,,,,,,,,,,,,,,,,,,,,,,,,,,,,,,,,,,,470.16543024999555,470.1720543329866,471.1693402079982,472.1516902079893,472.1516902079893,472.1516902079893,473.278498707994,right,1.12040529200749,None,,,,,,,,,,,815228,001,2024-11-21_15h10.14.871,Test,2024.2.4,None,2024-11-21 15h10.31.219460 +0100,
52,150,90,10,None,28,28,0,True,,,,left,0.880621083008009,None,,,,,,,,,,,,,0,28,28,28,473.2959563329932,,,,,,,,,,,,,,,,,,,,,,,,,,,,,,,,,,,,,,,,,,,,,,,,,,,,,,,,,,,,,,,,,,,,,,,,,473.2887928329874,473.2959563329932,474.29120174999116,475.27643629099475,475.27643629099475,475.27643629099475,476.16111358298804,left,0.880621083008009,None,,,,,,,,,,,815228,001,2024-11-21_15h10.14.871,Test,2024.2.4,None,2024-11-21 15h10.31.219460 +0100,
2,150,0,41,None,29,29,0,False,,,,right,1.0033577080030227,None,,,,,,,,,,,,,0,29,29,29,476.1781876249879,,,,,,,,,,,,,,,,,,,,,,,,,,,,,,,,,,,,,,,,,,,,,,,,,,,,,,,,,,,,,,,,,,,,,,,,,476.170907540989,476.1781876249879,477.17426333299954,478.1607470829913,478.1607470829913,478.1607470829913,479.1716902079934,right,1.0033577080030227,None,,,,,,,,,,,815228,001,2024-11-21_15h10.14.871,Test,2024.2.4,None,2024-11-21 15h10.31.219460 +0100,
18,150,90,22,None,30,30,0,False,,,,right,1.8801826249982696,None,,,,,,,,,,,,,0,30,30,30,479.187529332994,,,,,,,,,,,,,,,,,,,,,,,,,,,,,,,,,,,,,,,,,,,,,,,,,,,,,,,,,,,,,,,,,,,,,,,,,479.18143549999513,479.187529332994,480.1860377499979,481.1695494999876,481.1695494999876,481.1695494999876,483.0549326659966,right,1.8801826249982696,None,,,,,,,,,,,815228,001,2024-11-21_15h10.14.871,Test,2024.2.4,None,2024-11-21 15h10.31.219460 +0100,
7,150,30,27,None,31,31,0,False,,,,right,1.9099817079986678,None,,,,,,,,,,,,,0,31,31,31,483.07131558298715,,,,,,,,,,,,,,,,,,,,,,,,,,,,,,,,,,,,,,,,,,,,,,,,,,,,,,,,,,,,,,,,,,,,,,,,,483.0647525409877,483.07131558298715,484.06953216598777,485.05281020799885,485.05281020799885,485.05281020799885,486.97136666599545,right,1.9099817079986678,None,,,,,,,,,,,815228,001,2024-11-21_15h10.14.871,Test,2024.2.4,None,2024-11-21 15h10.31.219460 +0100,
69,150,180,58,None,32,32,0,True,,,,right,2.71317524999904,None,,,,,,,,,,,,,0,32,32,32,486.98715683299815,,,,,,,,,,,,,,,,,,,,,,,,,,,,,,,,,,,,,,,,,,,,,,,,,,,,,,,,,,,,,,,,,,,,,,,,,486.98064624999824,486.98715683299815,487.9860898749903,488.96949979099736,488.96949979099736,488.96949979099736,491.6886742499919,right,2.71317524999904,None,,,,,,,,,,,815228,001,2024-11-21_15h10.14.871,Test,2024.2.4,None,2024-11-21 15h10.31.219460 +0100,
38,150,0,38,None,33,33,0,True,,,,left,0.9433651660074247,None,,,,,,,,,,,,,0,33,33,33,491.705490458,,,,,,,,,,,,,,,,,,,,,,,,,,,,,,,,,,,,,,,,,,,,,,,,,,,,,,,,,,,,,,,,,,,,,,,,,491.69904212499387,491.705490458,492.7026769160002,493.6863159999921,493.6863159999921,493.6863159999921,494.63821687499876,left,0.9433651660074247,None,,,,,,,,,,,815228,001,2024-11-21_15h10.14.871,Test,2024.2.4,None,2024-11-21 15h10.31.219460 +0100,
55,150,90,70,None,34,34,0,True,,,,right,1.080384208005853,None,,,,,,,,,,,,,0,34,34,34,494.6540577499982,,,,,,,,,,,,,,,,,,,,,,,,,,,,,,,,,,,,,,,,,,,,,,,,,,,,,,,,,,,,,,,,,,,,,,,,,494.64706733298954,494.6540577499982,495.65274866599066,496.6360736249917,496.6360736249917,496.6360736249917,497.722401291001,right,1.080384208005853,None,,,,,,,,,,,815228,001,2024-11-21_15h10.14.871,Test,2024.2.4,None,2024-11-21 15h10.31.219460 +0100,
28,150,150,65,None,35,35,0,False,,,,left,1.3420057500043185,None,,,,,,,,,,,,,0,35,35,35,497.73856033298944,,,,,,,,,,,,,,,,,,,,,,,,,,,,,,,,,,,,,,,,,,,,,,,,,,,,,,,,,,,,,,,,,,,,,,,,,497.73220037498686,497.73856033298944,498.73608612499083,499.71971245799796,499.71971245799796,499.71971245799796,501.0718650409981,left,1.3420057500043185,None,,,,,,,,,,,815228,001,2024-11-21_15h10.14.871,Test,2024.2.4,None,2024-11-21 15h10.31.219460 +0100,
6,150,30,35,None,36,36,0,False,,,,right,3.578558792010881,None,,,,,,,,,,,,,0,36,36,36,501.0889186659915,,,,,,,,,,,,,,,,,,,,,,,,,,,,,,,,,,,,,,,,,,,,,,,,,,,,,,,,,,,,,,,,,,,,,,,,,501.08181595799397,501.0889186659915,502.0862999999954,503.0696044159995,503.0696044159995,503.0696044159995,506.6548167079891,right,3.578558792010881,None,506.0586846249935,506.0586846249935,506.0693329999922,,,,,,,,815228,001,2024-11-21_15h10.14.871,Test,2024.2.4,None,2024-11-21 15h10.31.219460 +0100,
33,150,180,21,None,37,37,0,False,,,,right,1.2005440410139272,None,,,,,,,,,,,,,0,37,37,37,506.67127270798665,,,,,,,,,,,,,,,,,,,,,,,,,,,,,,,,,,,,,,,,,,,,,,,,,,,,,,,,,,,,,,,,,,,,,,,,,506.6644782499934,506.67127270798665,507.66935924999416,508.6528158329893,508.6528158329893,508.6528158329893,509.86561924999114,right,1.2005440410139272,None,,,,,,,,,,,815228,001,2024-11-21_15h10.14.871,Test,2024.2.4,None,2024-11-21 15h10.31.219460 +0100,
59,150,120,64,None,38,38,0,True,,,,left,1.2027432920003776,None,,,,,,,,,,,,,0,38,38,38,509.8784447499929,,,,,,,,,,,,,,,,,,,,,,,,,,,,,,,,,,,,,,,,,,,,,,,,,,,,,,,,,,,,,,,,,,,,,,,,,509.8738159999921,509.8784447499929,510.87479175000044,511.8599690409901,511.8599690409901,511.8599690409901,513.0715260829893,left,1.2027432920003776,None,,,,,,,,,,,815228,001,2024-11-21_15h10.14.871,Test,2024.2.4,None,2024-11-21 15h10.31.219460 +0100,
44,150,30,32,None,39,39,0,True,,,,right,2.0505278339987854,None,,,,,,,,,,,,,0,39,39,39,513.0883734579984,,,,,,,,,,,,,,,,,,,,,,,,,,,,,,,,,,,,,,,,,,,,,,,,,,,,,,,,,,,,,,,,,,,,,,,,,513.0811872499908,513.0883734579984,514.0859825410007,515.0694774159929,515.0694774159929,515.0694774159929,517.1224598330009,right,2.0505278339987854,None,,,,,,,,,,,815228,001,2024-11-21_15h10.14.871,Test,2024.2.4,None,2024-11-21 15h10.31.219460 +0100,
65,150,150,25,None,40,40,0,True,,,,left,1.1776406669960124,None,,,,,,,,,,,,,0,40,40,40,517.1381352079916,,,,,,,,,,,,,,,,,,,,,,,,,,,,,,,,,,,,,,,,,,,,,,,,,,,,,,,,,,,,,,,,,,,,,,,,,517.1317674159945,517.1381352079916,518.1360677079938,519.1197526659962,519.1197526659962,519.1197526659962,520.3047467909928,left,1.1776406669960124,None,,,,,,,,,,,815228,001,2024-11-21_15h10.14.871,Test,2024.2.4,None,2024-11-21 15h10.31.219460 +0100,
64,150,150,30,None,41,41,0,True,,,,left,1.9163792500039563,None,,,,,,,,,,,,,0,41,41,41,520.319829,,,,,,,,,,,,,,,,,,,,,,,,,,,,,,,,,,,,,,,,,,,,,,,,,,,,,,,,,,,,,,,,,,,,,,,,,520.3132402909978,520.319829,521.3080967079877,522.3031222909922,522.3031222909922,522.3031222909922,524.2225212499907,left,1.9163792500039563,None,,,,,,,,,,,815228,001,2024-11-21_15h10.14.871,Test,2024.2.4,None,2024-11-21 15h10.31.219460 +0100,
26,150,150,67,None,42,42,0,False,,,,left,0.6696768340043491,None,,,,,,,,,,,,,0,42,42,42,524.2385456249904,,,,,,,,,,,,,,,,,,,,,,,,,,,,,,,,,,,,,,,,,,,,,,,,,,,,,,,,,,,,,,,,,,,,,,,,,524.231488999998,524.2385456249904,525.2363032079884,526.2196169579984,526.2196169579984,526.2196169579984,526.8945843330002,left,0.6696768340043491,None,,,,,,,,,,,815228,001,2024-11-21_15h10.14.871,Test,2024.2.4,None,2024-11-21 15h10.31.219460 +0100,
37,150,0,24,None,43,43,0,True,,,,left,1.6593831249920186,None,,,,,,,,,,,,,0,43,43,43,526.9105366250005,,,,,,,,,,,,,,,,,,,,,,,,,,,,,,,,,,,,,,,,,,,,,,,,,,,,,,,,,,,,,,,,,,,,,,,,,526.903258374994,526.9105366250005,527.9081115829904,528.894096707998,528.894096707998,528.894096707998,530.5649901249999,left,1.6593831249920186,None,,,,,,,,,,,815228,001,2024-11-21_15h10.14.871,Test,2024.2.4,None,2024-11-21 15h10.31.219460 +0100,
31,150,180,6,None,44,44,0,False,,,,left,2.2317562499956694,None,,,,,,,,,,,,,0,44,44,44,530.578534040993,,,,,,,,,,,,,,,,,,,,,,,,,,,,,,,,,,,,,,,,,,,,,,,,,,,,,,,,,,,,,,,,,,,,,,,,,530.5737938749953,530.578534040993,531.5745323329902,532.5614809580002,532.5614809580002,532.5614809580002,534.7993958749867,left,2.2317562499956694,None,,,,,,,,,,,815228,001,2024-11-21_15h10.14.871,Test,2024.2.4,None,2024-11-21 15h10.31.219460 +0100,
39,150,0,8,None,45,45,0,True,,,,right,0.8139520410040859,None,,,,,,,,,,,,,0,45,45,45,534.820169499988,,,,,,,,,,,,,,,,,,,,,,,,,,,,,,,,,,,,,,,,,,,,,,,,,,,,,,,,,,,,,,,,,,,,,,,,,534.8119530409895,534.820169499988,535.8098548749986,536.7898374159995,536.7898374159995,536.7898374159995,537.6166513749922,right,0.8139520410040859,None,,,,,,,,,,,815228,001,2024-11-21_15h10.14.871,Test,2024.2.4,None,2024-11-21 15h10.31.219460 +0100,
43,150,30,33,None,46,46,0,True,,,,right,0.9667456250026589,None,,,,,,,,,,,,,0,46,46,46,537.6299855830002,,,,,,,,,,,,,,,,,,,,,,,,,,,,,,,,,,,,,,,,,,,,,,,,,,,,,,,,,,,,,,,,,,,,,,,,,537.625345374996,537.6299855830002,538.6248725829937,539.6107612499909,539.6107612499909,539.6107612499909,540.5883134579926,right,0.9667456250026589,None,,,,,,,,,,,815228,001,2024-11-21_15h10.14.871,Test,2024.2.4,None,2024-11-21 15h10.31.219460 +0100,
32,150,180,9,None,47,47,0,False,,,,right,0.9834059589920798,None,,,,,,,,,,,,,0,47,47,47,540.6043437079934,,,,,,,,,,,,,,,,,,,,,,,,,,,,,,,,,,,,,,,,,,,,,,,,,,,,,,,,,,,,,,,,,,,,,,,,,540.5977278329956,540.6043437079934,541.6028028329893,542.586151083,542.586151083,542.586151083,543.57299770799,right,0.9834059589920798,None,,,,,,,,,,,815228,001,2024-11-21_15h10.14.871,Test,2024.2.4,None,2024-11-21 15h10.31.219460 +0100,
14,150,60,54,None,48,48,0,False,,,,right,0.9950060000119265,None,,,,,,,,,,,,,0,48,48,48,543.5887558749964,,,,,,,,,,,,,,,,,,,,,,,,,,,,,,,,,,,,,,,,,,,,,,,,,,,,,,,,,,,,,,,,,,,,,,,,,543.5828649579926,543.5887558749964,544.5859878749907,545.5696118749911,545.5696118749911,545.5696118749911,546.5715223329898,right,0.9950060000119265,None,,,,,,,,,,,815228,001,2024-11-21_15h10.14.871,Test,2024.2.4,None,2024-11-21 15h10.31.219460 +0100,
8,150,30,40,None,49,49,0,False,,,,right,0.9442424579901854,None,,,,,,,,,,,,,0,49,49,49,546.5881787909893,,,,,,,,,,,,,,,,,,,,,,,,,,,,,,,,,,,,,,,,,,,,,,,,,,,,,,,,,,,,,,,,,,,,,,,,,546.5810994579952,546.5881787909893,547.5861337909882,548.5694641249866,548.5694641249866,548.5694641249866,549.5213756249868,right,0.9442424579901854,None,,,,,,,,,,,815228,001,2024-11-21_15h10.14.871,Test,2024.2.4,None,2024-11-21 15h10.31.219460 +0100,
63,150,150,69,None,50,50,0,True,,,,left,1.2460878749989206,None,,,,,,,,,,,,,0,50,50,50,549.5372897909983,,,,,,,,,,,,,,,,,,,,,,,,,,,,,,,,,,,,,,,,,,,,,,,,,,,,,,,,,,,,,,,,,,,,,,,,,549.5312986249919,549.5372897909983,550.5358939579892,551.5197054579912,551.5197054579912,551.5197054579912,552.7714179159957,left,1.2460878749989206,None,,,,,,,,,,,815228,001,2024-11-21_15h10.14.871,Test,2024.2.4,None,2024-11-21 15h10.31.219460 +0100,
17,150,90,26,None,51,51,0,False,,,,right,1.368217666997225,None,,,,,,,,,,,,,0,51,51,51,552.7874917499867,,,,,,,,,,,,,,,,,,,,,,,,,,,,,,,,,,,,,,,,,,,,,,,,,,,,,,,,,,,,,,,,,,,,,,,,,552.7808721249894,552.7874917499867,553.786095915988,554.7694574159977,554.7694574159977,554.7694574159977,556.1449277909996,right,1.368217666997225,None,,,,,,,,,,,815228,001,2024-11-21_15h10.14.871,Test,2024.2.4,None,2024-11-21 15h10.31.219460 +0100,
57,150,120,55,None,52,52,0,True,,,,left,2.3864105840038974,None,,,,,,,,,,,,,0,52,52,52,556.1616550829931,,,,,,,,,,,,,,,,,,,,,,,,,,,,,,,,,,,,,,,,,,,,,,,,,,,,,,,,,,,,,,,,,,,,,,,,,556.1549911659968,556.1616550829931,557.15823529099,558.1437814999954,558.1437814999954,558.1437814999954,560.5383230409934,left,2.3864105840038974,None,,,,,,,,,,,815228,001,2024-11-21_15h10.14.871,Test,2024.2.4,None,2024-11-21 15h10.31.219460 +0100,
22,150,120,2,None,53,53,0,False,,,,right,1.0872292499989271,None,,,,,,,,,,,,,0,53,53,53,560.554816082993,,,,,,,,,,,,,,,,,,,,,,,,,,,,,,,,,,,,,,,,,,,,,,,,,,,,,,,,,,,,,,,,,,,,,,,,,560.5477889579925,560.554816082993,561.5527952909906,562.5361934579996,562.5361934579996,562.5361934579996,563.6281415829872,right,1.0872292499989271,None,,,,,,,,,,,815228,001,2024-11-21_15h10.14.871,Test,2024.2.4,None,2024-11-21 15h10.31.219460 +0100,
61,150,150,59,None,54,54,0,True,,,,left,1.0268211249931483,None,,,,,,,,,,,,,0,54,54,54,563.6436723329971,,,,,,,,,,,,,,,,,,,,,,,,,,,,,,,,,,,,,,,,,,,,,,,,,,,,,,,,,,,,,,,,,,,,,,,,,563.6370276659873,563.6436723329971,564.6406268749997,565.6261498329986,565.6261498329986,565.6261498329986,566.6559688329871,left,1.0268211249931483,None,,,,,,,,,,,815228,001,2024-11-21_15h10.14.871,Test,2024.2.4,None,2024-11-21 15h10.31.219460 +0100,
1,150,0,13,None,55,55,0,False,,,,right,0.9749197079945588,None,,,,,,,,,,,,,0,55,55,55,566.6710373749956,,,,,,,,,,,,,,,,,,,,,,,,,,,,,,,,,,,,,,,,,,,,,,,,,,,,,,,,,,,,,,,,,,,,,,,,,566.6646072909934,566.6710373749956,567.6693394579925,568.6529306659941,568.6529306659941,568.6529306659941,569.6381770000007,right,0.9749197079945588,None,,,,,,,,,,,815228,001,2024-11-21_15h10.14.871,Test,2024.2.4,None,2024-11-21 15h10.31.219460 +0100,
41,150,30,62,None,56,56,0,True,,,,left,1.1253726669965545,None,,,,,,,,,,,,,0,56,56,56,569.6612192909961,,,,,,,,,,,,,,,,,,,,,,,,,,,,,,,,,,,,,,,,,,,,,,,,,,,,,,,,,,,,,,,,,,,,,,,,,569.6548627909942,569.6612192909961,570.6571856659866,571.6347404159897,571.6347404159897,571.6347404159897,572.771611624994,left,1.1253726669965545,None,,,,,,,,,,,815228,001,2024-11-21_15h10.14.871,Test,2024.2.4,None,2024-11-21 15h10.31.219460 +0100,
58,150,120,3,None,57,57,0,True,,,,left,1.05074666699511,None,,,,,,,,,,,,,0,57,57,57,572.7883218329953,,,,,,,,,,,,,,,,,,,,,,,,,,,,,,,,,,,,,,,,,,,,,,,,,,,,,,,,,,,,,,,,,,,,,,,,,572.7824014159996,572.7883218329953,573.7859974159946,574.7695646659995,574.7695646659995,574.7695646659995,575.8325136659987,left,1.05074666699511,None,,,,,,,,,,,815228,001,2024-11-21_15h10.14.871,Test,2024.2.4,None,2024-11-21 15h10.31.219460 +0100,
45,150,30,48,None,58,58,0,True,,,,right,1.7588148749928223,None,,,,,,,,,,,,,0,58,58,58,575.8468314159982,,,,,,,,,,,,,,,,,,,,,,,,,,,,,,,,,,,,,,,,,,,,,,,,,,,,,,,,,,,,,,,,,,,,,,,,,575.8413530830003,575.8468314159982,576.8410885829944,577.8276002079947,577.8276002079947,577.8276002079947,579.5892317079997,right,1.7588148749928223,None,,,,,,,,,,,815228,001,2024-11-21_15h10.14.871,Test,2024.2.4,None,2024-11-21 15h10.31.219460 +0100,
56,150,120,39,None,59,59,0,True,,,,left,2.5186694169969996,None,,,,,,,,,,,,,0,59,59,59,579.6057858749991,,,,,,,,,,,,,,,,,,,,,,,,,,,,,,,,,,,,,,,,,,,,,,,,,,,,,,,,,,,,,,,,,,,,,,,,,579.5987044159992,579.6057858749991,580.6026601249905,581.586209999994,581.586209999994,581.586209999994,584.1106059159938,left,2.5186694169969996,None,,,,,,,,,,,815228,001,2024-11-21_15h10.14.871,Test,2024.2.4,None,2024-11-21 15h10.31.219460 +0100,
15,150,60,60,None,60,60,0,False,,,,right,1.1164444589958293,None,,,,,,,,,,,,,0,60,60,60,584.125764832992,,,,,,,,,,,,,,,,,,,,,,,,,,,,,,,,,,,,,,,,,,,,,,,,,,,,,,,,,,,,,,,,,,,,,,,,,584.1194657499873,584.125764832992,585.1194093749946,586.1107597079972,586.1107597079972,586.1107597079972,587.2384712079947,right,1.1164444589958293,None,,,,,,,,,,,815228,001,2024-11-21_15h10.14.871,Test,2024.2.4,None,2024-11-21 15h10.31.219460 +0100,
49,150,60,16,None,61,61,0,True,,,,left,1.69351216701034,None,,,,,,,,,,,,,0,61,61,61,587.2541518329963,,,,,,,,,,,,,,,,,,,,,,,,,,,,,,,,,,,,,,,,,,,,,,,,,,,,,,,,,,,,,,,,,,,,,,,,,587.2480198329868,587.2541518329963,588.2528962910001,589.2359492079995,589.2359492079995,589.2359492079995,590.9381692079915,left,1.69351216701034,None,,,,,,,,,,,815228,001,2024-11-21_15h10.14.871,Test,2024.2.4,None,2024-11-21 15h10.31.219460 +0100,
25,150,120,51,None,62,62,0,False,,,,left,4.220870958000887,None,,,,,,,,,,,,,0,62,62,62,590.9538036659942,,,,,,,,,,,,,,,,,,,,,,,,,,,,,,,,,,,,,,,,,,,,,,,,,,,,,,,,,,,,,,,,,,,,,,,,,590.9475180000009,590.9538036659942,591.952663707998,592.9360901249893,592.9360901249893,592.9360901249893,597.1630066249927,left,4.220870958000887,None,595.925654665989,595.925654665989,595.9348061249912,,,,,,,,815228,001,2024-11-21_15h10.14.871,Test,2024.2.4,None,2024-11-21 15h10.31.219460 +0100,
36,150,0,12,None,63,63,0,True,,,,left,1.764939457993023,None,,,,,,,,,,,,,0,63,63,63,597.1788352079893,,,,,,,,,,,,,,,,,,,,,,,,,,,,,,,,,,,,,,,,,,,,,,,,,,,,,,,,,,,,,,,,,,,,,,,,,597.1732574159978,597.1788352079893,598.1741978749924,599.159750915991,599.159750915991,599.159750915991,600.9282379999931,left,1.764939457993023,None,,,,,,,,,,,815228,001,2024-11-21_15h10.14.871,Test,2024.2.4,None,2024-11-21 15h10.31.219460 +0100,
67,150,180,20,None,64,64,0,True,,,,left,1.7542791250016307,None,,,,,,,,,,,,,0,64,64,64,600.9454532079981,,,,,,,,,,,,,,,,,,,,,,,,,,,,,,,,,,,,,,,,,,,,,,,,,,,,,,,,,,,,,,,,,,,,,,,,,600.9385917499894,600.9454532079981,601.9392182909942,602.92748462499,602.92748462499,602.92748462499,604.6884135409928,left,1.7542791250016307,None,,,,,,,,,,,815228,001,2024-11-21_15h10.14.871,Test,2024.2.4,None,2024-11-21 15h10.31.219460 +0100,
42,150,30,23,None,65,65,0,True,,,,left,2.3742538329970557,None,,,,,,,,,,,,,0,65,65,65,604.7051064159896,,,,,,,,,,,,,,,,,,,,,,,,,,,,,,,,,,,,,,,,,,,,,,,,,,,,,,,,,,,,,,,,,,,,,,,,,604.6987134160008,604.7051064159896,605.7026808329974,606.6860622499953,606.6860622499953,606.6860622499953,609.0717563329963,left,2.3742538329970557,None,,,,,,,,,,,815228,001,2024-11-21_15h10.14.871,Test,2024.2.4,None,2024-11-21 15h10.31.219460 +0100,
24,150,120,19,None,66,66,0,False,,,,right,3.3522562909929547,None,,,,,,,,,,,,,0,66,66,66,609.089300874999,,,,,,,,,,,,,,,,,,,,,,,,,,,,,,,,,,,,,,,,,,,,,,,,,,,,,,,,,,,,,,,,,,,,,,,,,609.082359957989,609.089300874999,610.0860451659973,611.0695089579967,611.0695089579967,611.0695089579967,614.4271636659978,right,3.3522562909929547,None,614.0579027079948,614.0579027079948,614.0694812909933,,,,,,,,815228,001,2024-11-21_15h10.14.871,Test,2024.2.4,None,2024-11-21 15h10.31.219460 +0100,
62,150,150,34,None,67,67,0,True,,,,left,1.296860624992405,None,,,,,,,,,,,,,0,67,67,67,614.4410939160007,,,,,,,,,,,,,,,,,,,,,,,,,,,,,,,,,,,,,,,,,,,,,,,,,,,,,,,,,,,,,,,,,,,,,,,,,614.435130124999,614.4410939160007,615.4359402909904,616.4264476659882,616.4264476659882,616.4264476659882,617.7279519999865,left,1.296860624992405,None,,,,,,,,,,,815228,001,2024-11-21_15h10.14.871,Test,2024.2.4,None,2024-11-21 15h10.31.219460 +0100,
12,150,60,15,None,68,68,0,False,,,,left,0.7948518750054063,None,,,,,,,,,,,,,0,68,68,68,617.7454519159946,,,,,,,,,,,,,,,,,,,,,,,,,,,,,,,,,,,,,,,,,,,,,,,,,,,,,,,,,,,,,,,,,,,,,,,,,617.7384399159928,617.7454519159946,618.7411717079958,619.7261773749924,619.7261773749924,619.7261773749924,620.5280624159932,left,0.7948518750054063,None,,,,,,,,,,,815228,001,2024-11-21_15h10.14.871,Test,2024.2.4,None,2024-11-21 15h10.31.219460 +0100,
40,150,0,63,None,69,69,0,True,,,,left,0.699818499997491,None,,,,,,,,,,,,,0,69,69,69,620.5441406659957,,,,,,,,,,,,,,,,,,,,,,,,,,,,,,,,,,,,,,,,,,,,,,,,,,,,,,,,,,,,,,,,,,,,,,,,,620.5374142499932,620.5441406659957,621.5424727499922,622.5264682079869,622.5264682079869,622.5264682079869,623.2541147079901,left,0.699818499997491,None,,,,,,,,,,,815228,001,2024-11-21_15h10.14.871,Test,2024.2.4,None,2024-11-21 15h10.31.219460 +0100,
,,,,,,,,,,,,,,,,,,,,,,,,,,,,,,,,,,,,,,,,,,,,,,,,,,,,,,,,,,,,,,,,,,,,,,,,,,,,,,,,,,,,,,,,,,,,,,,,,,,,,,,,,,,,,,,,,,,,,623.2544464159873,623.2695493749925,623.2695493749925,624.2938612909929,space,1.017274500001804,None,815228,001,2024-11-21_15h10.14.871,Test,2024.2.4,None,2024-11-21 15h10.31.219460 +0100,
