Trial_Number,Exposure_Duration,Displacement_Angle,Stimulus,Response,thisN,thisTrialN,thisRepN,Is_Distractor,key_resp_3.keys,key_resp_3.rt,key_resp_3.duration,key_resp_7.keys,key_resp_7.rt,key_resp_7.duration,trials.thisRepN,trials.thisTrialN,trials.thisN,trials.thisIndex,trials_2.thisRepN,trials_2.thisTrialN,trials_2.thisN,trials_2.thisIndex,trials_3.thisRepN,trials_3.thisTrialN,trials_3.thisN,trials_3.thisIndex,trials_4.thisRepN,trials_4.thisTrialN,trials_4.thisN,trials_4.thisIndex,thisRow.t,notes,Intro_to_experiment.started,important1_2.started,key_resp_8.started,Intro_to_experiment.stopped,key_resp_8.keys,key_resp_8.rt,key_resp_8.duration,important.started,important1.started,key_resp_4.started,important.stopped,key_resp_4.keys,key_resp_4.rt,key_resp_4.duration,instruction.started,text_7.started,key_resp_9.started,text_7.stopped,instruction.stopped,key_resp_9.keys,key_resp_9.rt,key_resp_9.duration,training_trial.started,cross.started,image.started,aperture.started,cross.stopped,image.stopped,aperture.stopped,training_trial.stopped,New_instruction.started,text.started,key_resp_2.started,New_instruction.stopped,key_resp_2.keys,key_resp_2.rt,key_resp_2.duration,test_trial.started,cross2.started,cross2.stopped,image_2.started,key_resp_3.started,aperture_2.started,test_trial.stopped,trials_2.key_resp_3.keys,trials_2.key_resp_3.rt,trials_2.key_resp_3.duration,start_blok_2.started,key_resp_5.started,text_4.started,start_blok_2.stopped,key_resp_5.keys,key_resp_5.rt,key_resp_5.duration,training_2.started,cross_2.started,image_3.started,aperture_3.started,cross_2.stopped,image_3.stopped,aperture_3.stopped,training_2.stopped,nyeste_instruks.started,text_5.started,key_resp_6.started,nyeste_instruks.stopped,key_resp_6.keys,key_resp_6.rt,key_resp_6.duration,test_2.started,cross2_2.started,cross2_2.stopped,image_4.started,key_resp_7.started,aperture_4.started,test_2.stopped,trials_4.key_resp_7.keys,trials_4.key_resp_7.rt,trials_4.key_resp_7.duration,Instruction1.started,Instruktion.started,key_resp.started,Instruction1.stopped,key_resp.keys,key_resp.rt,key_resp.duration,participant,session,date,expName,psychopyVersion,frameRate,expStart,
,,,,,,,,,,,,,,,,,,,,,,,,,,,,,,,,,0.007697198998357635,0.01889567499893019,0.01889567499893019,33.97179472800053,space,33.93229171799976,None,,,,,,,,,,,,,,,,,,,,,,,,,,,,,,,,,,,,,,,,,,,,,,,,,,,,,,,,,,,,,,,,,,,,,,,,,,,,,,,,876146,001,2024-11-28_11h46.23.089,Test,2024.2.1,60.012745867230606,2024-11-28 11h47.58.021293 +0100,
,,,,,,,,,,,,,,,,,,,,,,,,,,,,,,,,,,,,,,,,33.97189284299748,33.98927988499781,33.98927988499781,46.43733133799833,space,12.445044266001787,None,,,,,,,,,,,,,,,,,,,,,,,,,,,,,,,,,,,,,,,,,,,,,,,,,,,,,,,,,,,,,,,,,,,,,,,,,876146,001,2024-11-28_11h46.23.089,Test,2024.2.1,60.012745867230606,2024-11-28 11h47.58.021293 +0100,
,,,,,,,,,,,,,,,,,,,,,,,,,,,,,,,,,,,,,,,,,,,,,,,46.43738417900022,46.45125986899802,46.45125986899802,47.45129911099866,55.52004390699949,space,9.057808794001176,None,,,,,,,,,,,,,,,,,,,,,,,,,,,,,,,,,,,,,,,,,,,,,,,,,,,,,,,,,,,,,,,,,876146,001,2024-11-28_11h46.23.089,Test,2024.2.1,60.012745867230606,2024-11-28 11h47.58.021293 +0100,
9,150,30,69,None,0,0,0,,,,,,,,0,0,0,8,,,,,,,,,,,,,55.544467042996985,,,,,,,,,,,,,,,,,,,,,,,,55.53535708199706,55.544467042996985,55.718931111998245,55.718931111998245,55.75180792299943,57.42012819499723,57.42012819499723,57.40407037099794,,,,,,,,,,,,,,,,,,,,,,,,,,,,,,,,,,,,,,,,,,,,,,,,,,,,,,,,,876146,001,2024-11-28_11h46.23.089,Test,2024.2.1,60.012745867230606,2024-11-28 11h47.58.021293 +0100,
8,150,30,23,None,1,1,0,,,,,,,,0,1,1,7,,,,,,,,,,,,,57.42012819499723,,,,,,,,,,,,,,,,,,,,,,,,57.4113889500004,57.42012819499723,57.619538853999984,57.619538853999984,57.619538853999984,59.31982599099865,59.31982599099865,59.30297459400026,,,,,,,,,,,,,,,,,,,,,,,,,,,,,,,,,,,,,,,,,,,,,,,,,,,,,,,,,876146,001,2024-11-28_11h46.23.089,Test,2024.2.1,60.012745867230606,2024-11-28 11h47.58.021293 +0100,
22,150,120,58,None,2,2,0,,,,,,,,0,2,2,21,,,,,,,,,,,,,59.31982599099865,,,,,,,,,,,,,,,,,,,,,,,,59.30688974899749,59.33534505100033,59.51928946499902,59.51928946499902,59.53557030999946,61.219816147997335,61.219816147997335,61.20431183599794,,,,,,,,,,,,,,,,,,,,,,,,,,,,,,,,,,,,,,,,,,,,,,,,,,,,,,,,,876146,001,2024-11-28_11h46.23.089,Test,2024.2.1,60.012745867230606,2024-11-28 11h47.58.021293 +0100,
25,150,120,40,None,3,3,0,,,,,,,,0,3,3,24,,,,,,,,,,,,,61.219816147997335,,,,,,,,,,,,,,,,,,,,,,,,61.211095629998454,61.219816147997335,61.43590514799871,61.43590514799871,61.41881983100029,63.1355483389998,63.1355483389998,63.120338928998535,,,,,,,,,,,,,,,,,,,,,,,,,,,,,,,,,,,,,,,,,,,,,,,,,,,,,,,,,876146,001,2024-11-28_11h46.23.089,Test,2024.2.1,60.012745867230606,2024-11-28 11h47.58.021293 +0100,
7,150,30,67,None,4,4,0,,,,,,,,0,4,4,6,,,,,,,,,,,,,63.1355483389998,,,,,,,,,,,,,,,,,,,,,,,,63.124663672999304,63.1355483389998,63.319082043999515,63.319082043999515,63.33582919199762,65.01971283300009,65.01971283300009,65.00329419099944,,,,,,,,,,,,,,,,,,,,,,,,,,,,,,,,,,,,,,,,,,,,,,,,,,,,,,,,,876146,001,2024-11-28_11h46.23.089,Test,2024.2.1,60.012745867230606,2024-11-28 11h47.58.021293 +0100,
28,150,150,22,None,5,5,0,,,,,,,,0,5,5,27,,,,,,,,,,,,,65.01971283300009,,,,,,,,,,,,,,,,,,,,,,,,65.00710538499698,65.01971283300009,65.22017464099918,65.22017464099918,65.22017464099918,66.91995610099912,66.91995610099912,66.90457677999802,,,,,,,,,,,,,,,,,,,,,,,,,,,,,,,,,,,,,,,,,,,,,,,,,,,,,,,,,876146,001,2024-11-28_11h46.23.089,Test,2024.2.1,60.012745867230606,2024-11-28 11h47.58.021293 +0100,
17,150,90,39,None,6,6,0,,,,,,,,0,6,6,16,,,,,,,,,,,,,66.91995610099912,,,,,,,,,,,,,,,,,,,,,,,,66.91138397099712,66.91995610099912,67.12056642799871,67.12056642799871,67.12056642799871,68.82104384699778,68.82104384699778,68.80447431799985,,,,,,,,,,,,,,,,,,,,,,,,,,,,,,,,,,,,,,,,,,,,,,,,,,,,,,,,,876146,001,2024-11-28_11h46.23.089,Test,2024.2.1,60.012745867230606,2024-11-28 11h47.58.021293 +0100,
2,150,0,37,None,7,7,0,,,,,,,,0,7,7,1,,,,,,,,,,,,,68.82104384699778,,,,,,,,,,,,,,,,,,,,,,,,68.81116770299923,68.82104384699778,69.02059395499964,69.02059395499964,69.02059395499964,70.72005570499823,70.72005570499823,70.70433926699843,,,,,,,,,,,,,,,,,,,,,,,,,,,,,,,,,,,,,,,,,,,,,,,,,,,,,,,,,876146,001,2024-11-28_11h46.23.089,Test,2024.2.1,60.012745867230606,2024-11-28 11h47.58.021293 +0100,
6,150,30,26,None,8,8,0,,,,,,,,0,8,8,5,,,,,,,,,,,,,70.72005570499823,,,,,,,,,,,,,,,,,,,,,,,,70.70813621100024,70.72005570499823,70.92004096899836,70.92004096899836,70.92004096899836,72.61965781899926,72.61965781899926,72.60366710299786,,,,,,,,,,,,,,,,,,,,,,,,,,,,,,,,,,,,,,,,,,,,,,,,,,,,,,,,,876146,001,2024-11-28_11h46.23.089,Test,2024.2.1,60.012745867230606,2024-11-28 11h47.58.021293 +0100,
12,150,60,49,None,9,9,0,,,,,,,,0,9,9,11,,,,,,,,,,,,,72.61965781899926,,,,,,,,,,,,,,,,,,,,,,,,72.60706204300004,72.61965781899926,72.81962061499871,72.81962061499871,72.81962061499871,74.5206126109988,74.5206126109988,74.50515981199715,,,,,,,,,,,,,,,,,,,,,,,,,,,,,,,,,,,,,,,,,,,,,,,,,,,,,,,,,876146,001,2024-11-28_11h46.23.089,Test,2024.2.1,60.012745867230606,2024-11-28 11h47.58.021293 +0100,
11,150,60,43,None,10,10,0,,,,,,,,0,10,10,10,,,,,,,,,,,,,74.5206126109988,,,,,,,,,,,,,,,,,,,,,,,,74.51168999499714,74.5206126109988,74.7199156079987,74.7199156079987,74.7199156079987,76.42021383499741,76.42021383499741,76.40517406099752,,,,,,,,,,,,,,,,,,,,,,,,,,,,,,,,,,,,,,,,,,,,,,,,,,,,,,,,,876146,001,2024-11-28_11h46.23.089,Test,2024.2.1,60.012745867230606,2024-11-28 11h47.58.021293 +0100,
32,150,180,29,None,11,11,0,,,,,,,,0,11,11,31,,,,,,,,,,,,,76.42021383499741,,,,,,,,,,,,,,,,,,,,,,,,76.41131211999891,76.42021383499741,76.62006942500011,76.62006942500011,76.62006942500011,78.32085472099789,78.32085472099789,78.30606473499938,,,,,,,,,,,,,,,,,,,,,,,,,,,,,,,,,,,,,,,,,,,,,,,,,,,,,,,,,876146,001,2024-11-28_11h46.23.089,Test,2024.2.1,60.012745867230606,2024-11-28 11h47.58.021293 +0100,
34,150,180,54,None,12,12,0,,,,,,,,0,12,12,33,,,,,,,,,,,,,78.32085472099789,,,,,,,,,,,,,,,,,,,,,,,,78.31216216999746,78.32085472099789,78.5201486549995,78.5201486549995,78.5201486549995,80.22020451099888,80.22020451099888,80.20436789099767,,,,,,,,,,,,,,,,,,,,,,,,,,,,,,,,,,,,,,,,,,,,,,,,,,,,,,,,,876146,001,2024-11-28_11h46.23.089,Test,2024.2.1,60.012745867230606,2024-11-28 11h47.58.021293 +0100,
18,150,90,28,None,13,13,0,,,,,,,,0,13,13,17,,,,,,,,,,,,,80.22020451099888,,,,,,,,,,,,,,,,,,,,,,,,80.20795006199842,80.22020451099888,80.42123814299703,80.42123814299703,80.42123814299703,82.12000344899934,82.12000344899934,82.1043855909993,,,,,,,,,,,,,,,,,,,,,,,,,,,,,,,,,,,,,,,,,,,,,,,,,,,,,,,,,876146,001,2024-11-28_11h46.23.089,Test,2024.2.1,60.012745867230606,2024-11-28 11h47.58.021293 +0100,
35,150,180,5,None,14,14,0,,,,,,,,0,14,14,34,,,,,,,,,,,,,82.12000344899934,,,,,,,,,,,,,,,,,,,,,,,,82.1083072069996,82.12000344899934,82.31987760300035,82.31987760300035,82.31987760300035,84.02163675399788,84.02163675399788,84.00609992699901,,,,,,,,,,,,,,,,,,,,,,,,,,,,,,,,,,,,,,,,,,,,,,,,,,,,,,,,,876146,001,2024-11-28_11h46.23.089,Test,2024.2.1,60.012745867230606,2024-11-28 11h47.58.021293 +0100,
14,150,60,20,None,15,15,0,,,,,,,,0,15,15,13,,,,,,,,,,,,,84.02163675399788,,,,,,,,,,,,,,,,,,,,,,,,84.01277344999835,84.02163675399788,84.22150328399948,84.22150328399948,84.22150328399948,85.92060515299818,85.92060515299818,85.9059247059995,,,,,,,,,,,,,,,,,,,,,,,,,,,,,,,,,,,,,,,,,,,,,,,,,,,,,,,,,876146,001,2024-11-28_11h46.23.089,Test,2024.2.1,60.012745867230606,2024-11-28 11h47.58.021293 +0100,
15,150,60,21,None,16,16,0,,,,,,,,0,16,16,14,,,,,,,,,,,,,85.92060515299818,,,,,,,,,,,,,,,,,,,,,,,,85.912160459,85.92060515299818,86.12076438899749,86.12076438899749,86.12076438899749,87.82140253899706,87.82140253899706,87.80628178199913,,,,,,,,,,,,,,,,,,,,,,,,,,,,,,,,,,,,,,,,,,,,,,,,,,,,,,,,,876146,001,2024-11-28_11h46.23.089,Test,2024.2.1,60.012745867230606,2024-11-28 11h47.58.021293 +0100,
16,150,90,44,None,17,17,0,,,,,,,,0,17,17,15,,,,,,,,,,,,,87.82140253899706,,,,,,,,,,,,,,,,,,,,,,,,87.81302663899987,87.82140253899706,88.02078644399808,88.02078644399808,88.02078644399808,89.72120627699769,89.72120627699769,89.70480460199906,,,,,,,,,,,,,,,,,,,,,,,,,,,,,,,,,,,,,,,,,,,,,,,,,,,,,,,,,876146,001,2024-11-28_11h46.23.089,Test,2024.2.1,60.012745867230606,2024-11-28 11h47.58.021293 +0100,
23,150,120,59,None,18,18,0,,,,,,,,0,18,18,22,,,,,,,,,,,,,89.72120627699769,,,,,,,,,,,,,,,,,,,,,,,,89.70851901199785,89.72120627699769,89.92084315999819,89.92084315999819,89.92084315999819,91.62182459299947,91.62182459299947,91.60630314999798,,,,,,,,,,,,,,,,,,,,,,,,,,,,,,,,,,,,,,,,,,,,,,,,,,,,,,,,,876146,001,2024-11-28_11h46.23.089,Test,2024.2.1,60.012745867230606,2024-11-28 11h47.58.021293 +0100,
20,150,90,7,None,19,19,0,,,,,,,,0,19,19,19,,,,,,,,,,,,,91.62182459299947,,,,,,,,,,,,,,,,,,,,,,,,91.61292004300049,91.62182459299947,91.82196070300051,91.82196070300051,91.82196070300051,93.52719593299844,93.52719593299844,93.50674679799704,,,,,,,,,,,,,,,,,,,,,,,,,,,,,,,,,,,,,,,,,,,,,,,,,,,,,,,,,876146,001,2024-11-28_11h46.23.089,Test,2024.2.1,60.012745867230606,2024-11-28 11h47.58.021293 +0100,
5,150,0,34,None,20,20,0,,,,,,,,0,20,20,4,,,,,,,,,,,,,93.52719593299844,,,,,,,,,,,,,,,,,,,,,,,,93.51883097300015,93.52719593299844,93.72182307799812,93.72182307799812,93.7379193309971,95.42082350099736,95.42082350099736,95.4061821489995,,,,,,,,,,,,,,,,,,,,,,,,,,,,,,,,,,,,,,,,,,,,,,,,,,,,,,,,,876146,001,2024-11-28_11h46.23.089,Test,2024.2.1,60.012745867230606,2024-11-28 11h47.58.021293 +0100,
1,150,0,25,None,21,21,0,,,,,,,,0,21,21,0,,,,,,,,,,,,,95.42082350099736,,,,,,,,,,,,,,,,,,,,,,,,95.41187683299722,95.42082350099736,95.62169681799787,95.62169681799787,95.62169681799787,97.32254078299957,97.32254078299957,97.30679917799716,,,,,,,,,,,,,,,,,,,,,,,,,,,,,,,,,,,,,,,,,,,,,,,,,,,,,,,,,876146,001,2024-11-28_11h46.23.089,Test,2024.2.1,60.012745867230606,2024-11-28 11h47.58.021293 +0100,
27,150,150,6,None,22,22,0,,,,,,,,0,22,22,26,,,,,,,,,,,,,97.32254078299957,,,,,,,,,,,,,,,,,,,,,,,,97.31294771299872,97.32254078299957,97.52256820999901,97.52256820999901,97.52256820999901,99.22186324799986,99.22186324799986,99.20581616999698,,,,,,,,,,,,,,,,,,,,,,,,,,,,,,,,,,,,,,,,,,,,,,,,,,,,,,,,,876146,001,2024-11-28_11h46.23.089,Test,2024.2.1,60.012745867230606,2024-11-28 11h47.58.021293 +0100,
3,150,0,35,None,23,23,0,,,,,,,,0,23,23,2,,,,,,,,,,,,,99.22186324799986,,,,,,,,,,,,,,,,,,,,,,,,99.2104510600002,99.22186324799986,99.4218147199972,99.4218147199972,99.4218147199972,101.12229916599972,101.12229916599972,101.10579359300027,,,,,,,,,,,,,,,,,,,,,,,,,,,,,,,,,,,,,,,,,,,,,,,,,,,,,,,,,876146,001,2024-11-28_11h46.23.089,Test,2024.2.1,60.012745867230606,2024-11-28 11h47.58.021293 +0100,
21,150,120,50,None,24,24,0,,,,,,,,0,24,24,20,,,,,,,,,,,,,101.12229916599972,,,,,,,,,,,,,,,,,,,,,,,,101.10940684999878,101.12229916599972,101.32302849400003,101.32302849400003,101.32302849400003,,,103.02190083599999,,,,,,,,,,,,,,,,,,,,,,,,,,,,,,,,,,,,,,,,,,,,,,,,,,,,,,,,,876146,001,2024-11-28_11h46.23.089,Test,2024.2.1,60.012745867230606,2024-11-28 11h47.58.021293 +0100,
19,150,90,30,None,25,25,0,,,,,,,,0,25,25,18,,,,,,,,,,,,,103.03905764599767,,,,,,,,,,,,,,,,,,,,,,,,103.02647278599761,103.03905764599767,103.22191252199991,103.22191252199991,103.2389521619989,104.92288318499777,104.92288318499777,104.90744524799811,,,,,,,,,,,,,,,,,,,,,,,,,,,,,,,,,,,,,,,,,,,,,,,,,,,,,,,,,876146,001,2024-11-28_11h46.23.089,Test,2024.2.1,60.012745867230606,2024-11-28 11h47.58.021293 +0100,
26,150,150,42,None,26,26,0,,,,,,,,0,26,26,25,,,,,,,,,,,,,104.92288318499777,,,,,,,,,,,,,,,,,,,,,,,,104.91408023799886,104.92288318499777,105.12240530199779,105.12240530199779,105.12240530199779,106.82233143899794,106.82233143899794,106.80627426999854,,,,,,,,,,,,,,,,,,,,,,,,,,,,,,,,,,,,,,,,,,,,,,,,,,,,,,,,,876146,001,2024-11-28_11h46.23.089,Test,2024.2.1,60.012745867230606,2024-11-28 11h47.58.021293 +0100,
33,150,180,15,None,27,27,0,,,,,,,,0,27,27,32,,,,,,,,,,,,,106.82233143899794,,,,,,,,,,,,,,,,,,,,,,,,106.81082453399722,106.82233143899794,107.02313238900024,107.02313238900024,107.02313238900024,108.72265030799826,108.72265030799826,108.70663440799763,,,,,,,,,,,,,,,,,,,,,,,,,,,,,,,,,,,,,,,,,,,,,,,,,,,,,,,,,876146,001,2024-11-28_11h46.23.089,Test,2024.2.1,60.012745867230606,2024-11-28 11h47.58.021293 +0100,
31,150,180,45,None,28,28,0,,,,,,,,0,28,28,30,,,,,,,,,,,,,108.72265030799826,,,,,,,,,,,,,,,,,,,,,,,,108.71040819100017,108.72265030799826,108.92262436799865,108.92262436799865,108.92262436799865,110.62258377999751,110.62258377999751,110.60612465699887,,,,,,,,,,,,,,,,,,,,,,,,,,,,,,,,,,,,,,,,,,,,,,,,,,,,,,,,,876146,001,2024-11-28_11h46.23.089,Test,2024.2.1,60.012745867230606,2024-11-28 11h47.58.021293 +0100,
24,150,120,64,None,29,29,0,,,,,,,,0,29,29,23,,,,,,,,,,,,,110.62258377999751,,,,,,,,,,,,,,,,,,,,,,,,110.60952250599803,110.62258377999751,110.82232999699772,110.82232999699772,110.82232999699772,112.52315464300045,112.52315464300045,112.50807288599754,,,,,,,,,,,,,,,,,,,,,,,,,,,,,,,,,,,,,,,,,,,,,,,,,,,,,,,,,876146,001,2024-11-28_11h46.23.089,Test,2024.2.1,60.012745867230606,2024-11-28 11h47.58.021293 +0100,
13,150,60,66,None,30,30,0,,,,,,,,0,30,30,12,,,,,,,,,,,,,112.52315464300045,,,,,,,,,,,,,,,,,,,,,,,,112.51477787899785,112.52315464300045,112.72272048499872,112.72272048499872,112.72272048499872,114.42352753799787,114.42352753799787,114.40781519899974,,,,,,,,,,,,,,,,,,,,,,,,,,,,,,,,,,,,,,,,,,,,,,,,,,,,,,,,,876146,001,2024-11-28_11h46.23.089,Test,2024.2.1,60.012745867230606,2024-11-28 11h47.58.021293 +0100,
4,150,0,27,None,31,31,0,,,,,,,,0,31,31,3,,,,,,,,,,,,,114.42352753799787,,,,,,,,,,,,,,,,,,,,,,,,114.41452075599955,114.42352753799787,114.62336873899767,114.62336873899767,114.62336873899767,116.32372581099844,116.32372581099844,116.30803841899979,,,,,,,,,,,,,,,,,,,,,,,,,,,,,,,,,,,,,,,,,,,,,,,,,,,,,,,,,876146,001,2024-11-28_11h46.23.089,Test,2024.2.1,60.012745867230606,2024-11-28 11h47.58.021293 +0100,
30,150,150,2,None,32,32,0,,,,,,,,0,32,32,29,,,,,,,,,,,,,116.32372581099844,,,,,,,,,,,,,,,,,,,,,,,,116.31471929100007,116.32372581099844,116.52271140899757,116.52271140899757,116.52271140899757,118.22340654899745,118.22340654899745,118.20825776999845,,,,,,,,,,,,,,,,,,,,,,,,,,,,,,,,,,,,,,,,,,,,,,,,,,,,,,,,,876146,001,2024-11-28_11h46.23.089,Test,2024.2.1,60.012745867230606,2024-11-28 11h47.58.021293 +0100,
29,150,150,65,None,33,33,0,,,,,,,,0,33,33,28,,,,,,,,,,,,,118.22340654899745,,,,,,,,,,,,,,,,,,,,,,,,118.21455574100037,118.22340654899745,118.42382212399752,118.42382212399752,118.42382212399752,120.12408533399866,120.12408533399866,120.10844613899826,,,,,,,,,,,,,,,,,,,,,,,,,,,,,,,,,,,,,,,,,,,,,,,,,,,,,,,,,876146,001,2024-11-28_11h46.23.089,Test,2024.2.1,60.012745867230606,2024-11-28 11h47.58.021293 +0100,
10,150,30,46,None,34,34,0,,,,,,,,0,34,34,9,,,,,,,,,,,,,120.12408533399866,,,,,,,,,,,,,,,,,,,,,,,,120.11505793600008,120.12408533399866,120.32328632899953,120.32328632899953,120.32328632899953,122.02573374399799,122.02573374399799,122.00772829599737,,,,,,,,,,,,,,,,,,,,,,,,,,,,,,,,,,,,,,,,,,,,,,,,,,,,,,,,,876146,001,2024-11-28_11h46.23.089,Test,2024.2.1,60.012745867230606,2024-11-28 11h47.58.021293 +0100,
,,,,,,,,,,,,,,,,,,,,,,,,,,,,,,,,,,,,,,,,,,,,,,,,,,,,,,,,,,,,,,,122.00790169799802,122.02573374399799,122.02573374399799,135.14385950799988,space,13.114443558999483,None,,,,,,,,,,,,,,,,,,,,,,,,,,,,,,,,,,,,,,,,,,,,,,,,,,876146,001,2024-11-28_11h46.23.089,Test,2024.2.1,60.012745867230606,2024-11-28 11h47.58.021293 +0100,
65,150,150,10,None,0,0,0,True,left,1.5827712950012938,None,,,,,,,,0,0,0,0,,,,,,,,,135.16590899400035,,,,,,,,,,,,,,,,,,,,,,,,,,,,,,,,,,,,,,,135.15687946599792,135.16590899400035,136.17509366399827,137.15857031599808,137.15857031599808,137.15857031599808,138.74391450999974,left,1.5827712950012938,None,,,,,,,,,,,,,,,,,,,,,,,,,,,,,,,,,,,,,,,,876146,001,2024-11-28_11h46.23.089,Test,2024.2.1,60.012745867230606,2024-11-28 11h47.58.021293 +0100,
55,150,90,36,None,1,1,0,True,right,1.1856402970006457,None,,,,,,,,0,1,1,1,,,,,,,,,138.75717487699876,,,,,,,,,,,,,,,,,,,,,,,,,,,,,,,,,,,,,,,138.7476154319993,138.75717487699876,139.758249495997,140.7590206049972,140.7590206049972,140.7590206049972,141.959265270998,right,1.1856402970006457,None,,,,,,,,,,,,,,,,,,,,,,,,,,,,,,,,,,,,,,,,876146,001,2024-11-28_11h46.23.089,Test,2024.2.1,60.012745867230606,2024-11-28 11h47.58.021293 +0100,
26,150,150,42,None,2,2,0,False,right,1.2378133300007903,None,,,,,,,,0,2,2,2,,,,,,,,,141.97449658199912,,,,,,,,,,,,,,,,,,,,,,,,,,,,,,,,,,,,,,,141.9627023489993,141.97449658199912,142.9746473569976,143.95881814499808,143.95881814499808,143.95881814499808,145.20997816199815,right,1.2378133300007903,None,,,,,,,,,,,,,,,,,,,,,,,,,,,,,,,,,,,,,,,,876146,001,2024-11-28_11h46.23.089,Test,2024.2.1,60.012745867230606,2024-11-28 11h47.58.021293 +0100,
36,150,0,68,None,3,3,0,True,right,0.7380802029983897,None,,,,,,,,0,3,3,3,,,,,,,,,145.22449923800013,,,,,,,,,,,,,,,,,,,,,,,,,,,,,,,,,,,,,,,145.2135787169973,145.22449923800013,146.22571831799723,147.20921713499774,147.20921713499774,147.20921713499774,147.96138969399908,right,0.7380802029983897,None,,,,,,,,,,,,,,,,,,,,,,,,,,,,,,,,,,,,,,,,876146,001,2024-11-28_11h46.23.089,Test,2024.2.1,60.012745867230606,2024-11-28 11h47.58.021293 +0100,
39,150,0,12,None,4,4,0,True,left,0.7980229460008559,None,,,,,,,,0,4,4,4,,,,,,,,,147.97564824299843,,,,,,,,,,,,,,,,,,,,,,,,,,,,,,,,,,,,,,,147.96588157799852,147.97564824299843,148.9752364679989,149.97636271900046,149.97636271900046,149.97636271900046,150.77775067199764,left,0.7980229460008559,None,,,,,,,,,,,,,,,,,,,,,,,,,,,,,,,,,,,,,,,,876146,001,2024-11-28_11h46.23.089,Test,2024.2.1,60.012745867230606,2024-11-28 11h47.58.021293 +0100,
41,150,30,48,None,5,5,0,True,left,0.9345996740012197,None,,,,,,,,0,5,5,5,,,,,,,,,150.79192128299837,,,,,,,,,,,,,,,,,,,,,,,,,,,,,,,,,,,,,,,150.78120998899976,150.79192128299837,151.79263018799975,152.79208305099746,152.79208305099746,152.79208305099746,153.7434522429976,left,0.9345996740012197,None,,,,,,,,,,,,,,,,,,,,,,,,,,,,,,,,,,,,,,,,876146,001,2024-11-28_11h46.23.089,Test,2024.2.1,60.012745867230606,2024-11-28 11h47.58.021293 +0100,
54,150,90,31,None,6,6,0,True,left,1.4655883539999195,None,,,,,,,,0,6,6,6,,,,,,,,,153.75873423299709,,,,,,,,,,,,,,,,,,,,,,,,,,,,,,,,,,,,,,,153.74693454299995,153.75873423299709,154.75957099699735,155.75869438099835,155.75869438099835,155.75869438099835,157.23058122499788,left,1.4655883539999195,None,,,,,,,,,,,,,,,,,,,,,,,,,,,,,,,,,,,,,,,,876146,001,2024-11-28_11h46.23.089,Test,2024.2.1,60.012745867230606,2024-11-28 11h47.58.021293 +0100,
33,150,180,15,None,7,7,0,False,left,1.958857171001,None,,,,,,,,0,7,7,7,,,,,,,,,157.2444476769997,,,,,,,,,,,,,,,,,,,,,,,,,,,,,,,,,,,,,,,157.23563173399816,157.2444476769997,158.24334948899923,159.24327651599742,159.24327651599742,159.24327651599742,161.21071113200014,left,1.958857171001,None,,,,,,,,,,,,,,,,,,,,,,,,,,,,,,,,,,,,,,,,876146,001,2024-11-28_11h46.23.089,Test,2024.2.1,60.012745867230606,2024-11-28 11h47.58.021293 +0100,
34,150,180,54,None,8,8,0,False,left,1.089085610001348,None,,,,,,,,0,8,8,8,,,,,,,,,161.22582429499744,,,,,,,,,,,,,,,,,,,,,,,,,,,,,,,,,,,,,,,161.21426805399824,161.22582429499744,162.22674863599968,163.22601951999968,163.22601951999968,163.22601951999968,164.3274245829998,left,1.089085610001348,None,,,,,,,,,,,,,,,,,,,,,,,,,,,,,,,,,,,,,,,,876146,001,2024-11-28_11h46.23.089,Test,2024.2.1,60.012745867230606,2024-11-28 11h47.58.021293 +0100,
47,150,60,38,None,9,9,0,True,left,1.2692092369979946,None,,,,,,,,0,9,9,9,,,,,,,,,164.3422614459996,,,,,,,,,,,,,,,,,,,,,,,,,,,,,,,,,,,,,,,164.33111665099932,164.3422614459996,165.34401935699861,166.32698669599995,166.32698669599995,166.32698669599995,167.61174988600033,left,1.2692092369979946,None,,,,,,,,,,,,,,,,,,,,,,,,,,,,,,,,,,,,,,,,876146,001,2024-11-28_11h46.23.089,Test,2024.2.1,60.012745867230606,2024-11-28 11h47.58.021293 +0100,
38,150,0,41,None,10,10,0,True,left,1.2887244730009115,None,,,,,,,,0,10,10,10,,,,,,,,,167.62595574199804,,,,,,,,,,,,,,,,,,,,,,,,,,,,,,,,,,,,,,,167.61531142400054,167.62595574199804,168.62657732200023,169.626971933998,169.626971933998,169.626971933998,170.92780342499827,left,1.2887244730009115,None,,,,,,,,,,,,,,,,,,,,,,,,,,,,,,,,,,,,,,,,876146,001,2024-11-28_11h46.23.089,Test,2024.2.1,60.012745867230606,2024-11-28 11h47.58.021293 +0100,
20,150,90,7,None,11,11,0,False,right,0.7855272890010383,None,,,,,,,,0,11,11,11,,,,,,,,,170.94290526300028,,,,,,,,,,,,,,,,,,,,,,,,,,,,,,,,,,,,,,,170.93137472499802,170.94290526300028,171.9435483289999,172.94343063899942,172.94343063899942,172.94343063899942,173.74573039199822,right,0.7855272890010383,None,,,,,,,,,,,,,,,,,,,,,,,,,,,,,,,,,,,,,,,,876146,001,2024-11-28_11h46.23.089,Test,2024.2.1,60.012745867230606,2024-11-28 11h47.58.021293 +0100,
69,150,180,18,None,12,12,0,True,left,2.133255281001766,None,,,,,,,,0,12,12,12,,,,,,,,,173.7601588819998,,,,,,,,,,,,,,,,,,,,,,,,,,,,,,,,,,,,,,,173.7492735699998,173.7601588819998,174.7606800129979,175.7612090799994,175.7612090799994,175.7612090799994,177.89662321200012,left,2.133255281001766,None,,,,,,,,,,,,,,,,,,,,,,,,,,,,,,,,,,,,,,,,876146,001,2024-11-28_11h46.23.089,Test,2024.2.1,60.012745867230606,2024-11-28 11h47.58.021293 +0100,
13,150,60,66,None,13,13,0,False,right,0.753965537998738,None,,,,,,,,0,13,13,13,,,,,,,,,177.9100462569986,,,,,,,,,,,,,,,,,,,,,,,,,,,,,,,,,,,,,,,177.89997687399955,177.9100462569986,178.91052715499973,179.9114317249987,179.9114317249987,179.9114317249987,180.67947778300004,right,0.753965537998738,None,,,,,,,,,,,,,,,,,,,,,,,,,,,,,,,,,,,,,,,,876146,001,2024-11-28_11h46.23.089,Test,2024.2.1,60.012745867230606,2024-11-28 11h47.58.021293 +0100,
66,150,180,55,None,14,14,0,True,right,0.849589487999765,None,,,,,,,,0,14,14,14,,,,,,,,,180.6933986619988,,,,,,,,,,,,,,,,,,,,,,,,,,,,,,,,,,,,,,,180.68304518999867,180.6933986619988,181.69400492799832,182.67859378999856,182.67859378999856,182.67859378999856,183.53051994199996,right,0.849589487999765,None,,,,,,,,,,,,,,,,,,,,,,,,,,,,,,,,,,,,,,,,876146,001,2024-11-28_11h46.23.089,Test,2024.2.1,60.012745867230606,2024-11-28 11h47.58.021293 +0100,
49,150,60,17,None,15,15,0,True,left,0.8085424230011995,None,,,,,,,,0,15,15,15,,,,,,,,,183.54371897199962,,,,,,,,,,,,,,,,,,,,,,,,,,,,,,,,,,,,,,,183.5339103169972,183.54371897199962,184.54534511399834,185.54426586299815,185.54426586299815,185.54426586299815,186.36325406099786,left,0.8085424230011995,None,,,,,,,,,,,,,,,,,,,,,,,,,,,,,,,,,,,,,,,,876146,001,2024-11-28_11h46.23.089,Test,2024.2.1,60.012745867230606,2024-11-28 11h47.58.021293 +0100,
35,150,180,5,None,16,16,0,False,left,0.7603121710017149,None,,,,,,,,0,16,16,16,,,,,,,,,186.3772052509994,,,,,,,,,,,,,,,,,,,,,,,,,,,,,,,,,,,,,,,186.36678410199966,186.3772052509994,187.37842802399973,188.37831663599718,188.37831663599718,188.37831663599718,189.14822801399714,left,0.7603121710017149,None,,,,,,,,,,,,,,,,,,,,,,,,,,,,,,,,,,,,,,,,876146,001,2024-11-28_11h46.23.089,Test,2024.2.1,60.012745867230606,2024-11-28 11h47.58.021293 +0100,
31,150,180,45,None,17,17,0,False,left,0.630986017997202,None,,,,,,,,0,17,17,17,,,,,,,,,189.16164421099893,,,,,,,,,,,,,,,,,,,,,,,,,,,,,,,,,,,,,,,189.1523472589979,189.16164421099893,190.16238592099762,191.161297912,191.161297912,191.161297912,191.7971014859977,left,0.630986017997202,None,,,,,,,,,,,,,,,,,,,,,,,,,,,,,,,,,,,,,,,,876146,001,2024-11-28_11h46.23.089,Test,2024.2.1,60.012745867230606,2024-11-28 11h47.58.021293 +0100,
29,150,150,65,None,18,18,0,False,right,0.9423188960026891,None,,,,,,,,0,18,18,18,,,,,,,,,191.81115627399777,,,,,,,,,,,,,,,,,,,,,,,,,,,,,,,,,,,,,,,191.8006312619982,191.81115627399777,192.81228859899784,193.81116328699864,193.81116328699864,193.81116328699864,194.76504900899818,right,0.9423188960026891,None,,,,,,,,,,,,,,,,,,,,,,,,,,,,,,,,,,,,,,,,876146,001,2024-11-28_11h46.23.089,Test,2024.2.1,60.012745867230606,2024-11-28 11h47.58.021293 +0100,
63,150,150,32,None,19,19,0,True,left,0.967257399999653,None,,,,,,,,0,19,19,19,,,,,,,,,194.77816347499902,,,,,,,,,,,,,,,,,,,,,,,,,,,,,,,,,,,,,,,194.76943618299993,194.77816347499902,195.77973943100005,196.77933074999964,196.77933074999964,196.77933074999964,197.74921388899747,left,0.967257399999653,None,,,,,,,,,,,,,,,,,,,,,,,,,,,,,,,,,,,,,,,,876146,001,2024-11-28_11h46.23.089,Test,2024.2.1,60.012745867230606,2024-11-28 11h47.58.021293 +0100,
12,150,60,49,None,20,20,0,False,right,1.5096827759989537,None,,,,,,,,0,20,20,20,,,,,,,,,197.76214256899766,,,,,,,,,,,,,,,,,,,,,,,,,,,,,,,,,,,,,,,197.7526689999977,197.76214256899766,198.76215776499885,199.76280013499854,199.76280013499854,199.76280013499854,201.28116632299862,right,1.5096827759989537,None,,,,,,,,,,,,,,,,,,,,,,,,,,,,,,,,,,,,,,,,876146,001,2024-11-28_11h46.23.089,Test,2024.2.1,60.012745867230606,2024-11-28 11h47.58.021293 +0100,
9,150,30,69,None,21,21,0,False,right,0.8586377239989815,None,,,,,,,,0,21,21,21,,,,,,,,,201.29475714199725,,,,,,,,,,,,,,,,,,,,,,,,,,,,,,,,,,,,,,,201.28483243499795,201.29475714199725,202.29598454900042,203.2962914769996,203.2962914769996,203.2962914769996,204.16371159999835,right,0.8586377239989815,None,,,,,,,,,,,,,,,,,,,,,,,,,,,,,,,,,,,,,,,,876146,001,2024-11-28_11h46.23.089,Test,2024.2.1,60.012745867230606,2024-11-28 11h47.58.021293 +0100,
61,150,150,33,None,22,22,0,True,left,0.6740701329981675,None,,,,,,,,0,22,22,22,,,,,,,,,204.17901862500003,,,,,,,,,,,,,,,,,,,,,,,,,,,,,,,,,,,,,,,204.1672197509979,204.17901862500003,205.18004765899968,206.16342978199827,206.16342978199827,206.16342978199827,206.84846970799845,left,0.6740701329981675,None,,,,,,,,,,,,,,,,,,,,,,,,,,,,,,,,,,,,,,,,876146,001,2024-11-28_11h46.23.089,Test,2024.2.1,60.012745867230606,2024-11-28 11h47.58.021293 +0100,
58,150,120,1,None,23,23,0,True,right,1.054089607001515,None,,,,,,,,0,23,23,23,,,,,,,,,206.86243232299967,,,,,,,,,,,,,,,,,,,,,,,,,,,,,,,,,,,,,,,206.8520307229992,206.86243232299967,207.8633362239998,208.86250493699845,208.86250493699845,208.86250493699845,209.9304986089992,right,1.054089607001515,None,,,,,,,,,,,,,,,,,,,,,,,,,,,,,,,,,,,,,,,,876146,001,2024-11-28_11h46.23.089,Test,2024.2.1,60.012745867230606,2024-11-28 11h47.58.021293 +0100,
50,150,60,70,None,24,24,0,True,left,1.2860393740011204,None,,,,,,,,0,24,24,24,,,,,,,,,209.94610145899787,,,,,,,,,,,,,,,,,,,,,,,,,,,,,,,,,,,,,,,209.9342195729987,209.94610145899787,210.94629187199826,211.9297658510004,211.9297658510004,211.9297658510004,213.23174040899903,left,1.2860393740011204,None,,,,,,,,,,,,,,,,,,,,,,,,,,,,,,,,,,,,,,,,876146,001,2024-11-28_11h46.23.089,Test,2024.2.1,60.012745867230606,2024-11-28 11h47.58.021293 +0100,
60,150,120,62,None,25,25,0,True,left,1.002846158000466,None,,,,,,,,0,25,25,25,,,,,,,,,213.24574435699833,,,,,,,,,,,,,,,,,,,,,,,,,,,,,,,,,,,,,,,213.2352448879974,213.24574435699833,214.24675793499773,215.24617548899914,215.24617548899914,215.24617548899914,216.26479930799906,left,1.002846158000466,None,,,,,,,,,,,,,,,,,,,,,,,,,,,,,,,,,,,,,,,,876146,001,2024-11-28_11h46.23.089,Test,2024.2.1,60.012745867230606,2024-11-28 11h47.58.021293 +0100,
16,150,90,44,None,26,26,0,False,right,0.7836242590019538,None,,,,,,,,0,26,26,26,,,,,,,,,216.27936391699768,,,,,,,,,,,,,,,,,,,,,,,,,,,,,,,,,,,,,,,216.26844290399822,216.27936391699768,217.28064007699868,218.2642555229977,218.2642555229977,218.2642555229977,219.0652218920004,right,0.7836242590019538,None,,,,,,,,,,,,,,,,,,,,,,,,,,,,,,,,,,,,,,,,876146,001,2024-11-28_11h46.23.089,Test,2024.2.1,60.012745867230606,2024-11-28 11h47.58.021293 +0100,
28,150,150,22,None,27,27,0,False,right,1.2748661229998106,None,,,,,,,,0,27,27,27,,,,,,,,,219.07972265599892,,,,,,,,,,,,,,,,,,,,,,,,,,,,,,,,,,,,,,,219.06884391799758,219.07972265599892,220.0808330589971,221.0643006069986,221.0643006069986,221.0643006069986,222.34877833599967,right,1.2748661229998106,None,,,,,,,,,,,,,,,,,,,,,,,,,,,,,,,,,,,,,,,,876146,001,2024-11-28_11h46.23.089,Test,2024.2.1,60.012745867230606,2024-11-28 11h47.58.021293 +0100,
17,150,90,39,None,28,28,0,False,left,0.8411607670022931,None,,,,,,,,0,28,28,28,,,,,,,,,222.3635332289996,,,,,,,,,,,,,,,,,,,,,,,,,,,,,,,,,,,,,,,222.35323042699747,222.3635332289996,223.36340645900054,224.36362331700002,224.36362331700002,224.36362331700002,225.21477494399733,left,0.8411607670022931,None,,,,,,,,,,,,,,,,,,,,,,,,,,,,,,,,,,,,,,,,876146,001,2024-11-28_11h46.23.089,Test,2024.2.1,60.012745867230606,2024-11-28 11h47.58.021293 +0100,
19,150,90,30,None,29,29,0,False,right,0.8643644010007847,None,,,,,,,,0,29,29,29,,,,,,,,,225.229560587999,,,,,,,,,,,,,,,,,,,,,,,,,,,,,,,,,,,,,,,225.21829566299857,225.229560587999,226.2314050629975,227.21455972100011,227.21455972100011,227.21455972100011,228.08475972099768,right,0.8643644010007847,None,,,,,,,,,,,,,,,,,,,,,,,,,,,,,,,,,,,,,,,,876146,001,2024-11-28_11h46.23.089,Test,2024.2.1,60.012745867230606,2024-11-28 11h47.58.021293 +0100,
32,150,180,29,None,30,30,0,False,left,1.740720172998408,None,,,,,,,,0,30,30,30,,,,,,,,,228.09832228899904,,,,,,,,,,,,,,,,,,,,,,,,,,,,,,,,,,,,,,,228.0892637529978,228.09832228899904,229.11417330399854,230.09816918700017,230.09816918700017,230.09816918700017,231.85051688999738,left,1.740720172998408,None,,,,,,,,,,,,,,,,,,,,,,,,,,,,,,,,,,,,,,,,876146,001,2024-11-28_11h46.23.089,Test,2024.2.1,60.012745867230606,2024-11-28 11h47.58.021293 +0100,
21,150,120,50,None,31,31,0,False,right,1.5176941930003522,None,,,,,,,,0,31,31,31,,,,,,,,,231.86375864999718,,,,,,,,,,,,,,,,,,,,,,,,,,,,,,,,,,,,,,,231.85444290899977,231.86375864999718,232.86531440799808,233.86489295799765,233.86489295799765,233.86489295799765,235.3855830249995,right,1.5176941930003522,None,,,,,,,,,,,,,,,,,,,,,,,,,,,,,,,,,,,,,,,,876146,001,2024-11-28_11h46.23.089,Test,2024.2.1,60.012745867230606,2024-11-28 11h47.58.021293 +0100,
11,150,60,43,None,32,32,0,False,left,1.1260834650020115,None,,,,,,,,0,32,32,32,,,,,,,,,235.39859228799833,,,,,,,,,,,,,,,,,,,,,,,,,,,,,,,,,,,,,,,235.38935768900046,235.39859228799833,236.39891473999887,237.39885283900003,237.39885283900003,237.39885283900003,238.53462681999736,left,1.1260834650020115,None,,,,,,,,,,,,,,,,,,,,,,,,,,,,,,,,,,,,,,,,876146,001,2024-11-28_11h46.23.089,Test,2024.2.1,60.012745867230606,2024-11-28 11h47.58.021293 +0100,
67,150,180,9,None,33,33,0,True,left,0.9903860980011814,None,,,,,,,,0,33,33,33,,,,,,,,,238.54773630099953,,,,,,,,,,,,,,,,,,,,,,,,,,,,,,,,,,,,,,,238.53897901899836,238.54773630099953,239.54827631799708,240.54812145399774,240.54812145399774,240.54812145399774,241.54936142299994,left,0.9903860980011814,None,,,,,,,,,,,,,,,,,,,,,,,,,,,,,,,,,,,,,,,,876146,001,2024-11-28_11h46.23.089,Test,2024.2.1,60.012745867230606,2024-11-28 11h47.58.021293 +0100,
57,150,120,14,None,34,34,0,True,right,2.7616111370007275,None,,,,,,,,0,34,34,34,,,,,,,,,241.5641566569975,,,,,,,,,,,,,,,,,,,,,,,,,,,,,,,,,,,,,,,241.55299337299948,241.5641566569975,242.56556453399753,243.54879941299805,243.54879941299805,243.54879941299805,246.31879819700043,right,2.7616111370007275,None,,,,,,,,,,,,,,,,,,,,,,,,,,,,,,,,,,,,,,,,876146,001,2024-11-28_11h46.23.089,Test,2024.2.1,60.012745867230606,2024-11-28 11h47.58.021293 +0100,
7,150,30,67,None,35,35,0,False,left,1.4414120860019466,None,,,,,,,,0,35,35,35,,,,,,,,,246.33265136099726,,,,,,,,,,,,,,,,,,,,,,,,,,,,,,,,,,,,,,,246.32337717599876,246.33265136099726,247.3325040589989,248.3329792149998,248.3329792149998,248.3329792149998,249.78514471499875,left,1.4414120860019466,None,,,,,,,,,,,,,,,,,,,,,,,,,,,,,,,,,,,,,,,,876146,001,2024-11-28_11h46.23.089,Test,2024.2.1,60.012745867230606,2024-11-28 11h47.58.021293 +0100,
22,150,120,58,None,36,36,0,False,right,0.8262247940001544,None,,,,,,,,0,36,36,36,,,,,,,,,249.7986959899972,,,,,,,,,,,,,,,,,,,,,,,,,,,,,,,,,,,,,,,249.7887698300001,249.7986959899972,250.7990909250002,251.80024167900046,251.80024167900046,251.80024167900046,252.63530946699757,right,0.8262247940001544,None,,,,,,,,,,,,,,,,,,,,,,,,,,,,,,,,,,,,,,,,876146,001,2024-11-28_11h46.23.089,Test,2024.2.1,60.012745867230606,2024-11-28 11h47.58.021293 +0100,
27,150,150,6,None,37,37,0,False,left,1.1899620329968457,None,,,,,,,,0,37,37,37,,,,,,,,,252.64833964199715,,,,,,,,,,,,,,,,,,,,,,,,,,,,,,,,,,,,,,,252.63912278600037,252.64833964199715,253.64915297199695,254.64983668199784,254.64983668199784,254.64983668199784,255.85028212699763,left,1.1899620329968457,None,,,,,,,,,,,,,,,,,,,,,,,,,,,,,,,,,,,,,,,,876146,001,2024-11-28_11h46.23.089,Test,2024.2.1,60.012745867230606,2024-11-28 11h47.58.021293 +0100,
14,150,60,20,None,38,38,0,False,right,0.7665907619993959,None,,,,,,,,0,38,38,38,,,,,,,,,255.86529666099887,,,,,,,,,,,,,,,,,,,,,,,,,,,,,,,,,,,,,,,255.85372807000022,255.86529666099887,256.866722286999,257.8505037649993,257.8505037649993,257.8505037649993,258.63390631699804,right,0.7665907619993959,None,,,,,,,,,,,,,,,,,,,,,,,,,,,,,,,,,,,,,,,,876146,001,2024-11-28_11h46.23.089,Test,2024.2.1,60.012745867230606,2024-11-28 11h47.58.021293 +0100,
3,150,0,35,None,39,39,0,False,right,1.6834142660009093,None,,,,,,,,0,39,39,39,,,,,,,,,258.64898956899924,,,,,,,,,,,,,,,,,,,,,,,,,,,,,,,,,,,,,,,258.637365519,258.64898956899924,259.6501196559984,260.63387912799953,260.63387912799953,260.63387912799953,262.3215064679971,right,1.6834142660009093,None,,,,,,,,,,,,,,,,,,,,,,,,,,,,,,,,,,,,,,,,876146,001,2024-11-28_11h46.23.089,Test,2024.2.1,60.012745867230606,2024-11-28 11h47.58.021293 +0100,
42,150,30,56,None,40,40,0,True,left,1.9192210599976534,None,,,,,,,,0,40,40,40,,,,,,,,,262.33498600299936,,,,,,,,,,,,,,,,,,,,,,,,,,,,,,,,,,,,,,,262.3258560309987,262.33498600299936,263.34949018599946,264.3341467249993,264.3341467249993,264.3341467249993,266.2677133929974,left,1.9192210599976534,None,,,,,,,,,,,,,,,,,,,,,,,,,,,,,,,,,,,,,,,,876146,001,2024-11-28_11h46.23.089,Test,2024.2.1,60.012745867230606,2024-11-28 11h47.58.021293 +0100,
37,150,0,52,None,41,41,0,True,left,0.8809924280030828,None,,,,,,,,0,41,41,41,,,,,,,,,266.28288058999897,,,,,,,,,,,,,,,,,,,,,,,,,,,,,,,,,,,,,,,266.271177568,266.28288058999897,267.28402649899726,268.2677114149992,268.2677114149992,268.2677114149992,269.15371286200025,left,0.8809924280030828,None,,,,,,,,,,,,,,,,,,,,,,,,,,,,,,,,,,,,,,,,876146,001,2024-11-28_11h46.23.089,Test,2024.2.1,60.012745867230606,2024-11-28 11h47.58.021293 +0100,
56,150,120,51,None,42,42,0,True,right,1.535351176000404,None,,,,,,,,0,42,42,42,,,,,,,,,269.16688336699735,,,,,,,,,,,,,,,,,,,,,,,,,,,,,,,,,,,,,,,269.1581119759976,269.16688336699735,270.16749451599753,271.1676000769985,271.1676000769985,271.1676000769985,272.7187183399983,right,1.535351176000404,None,,,,,,,,,,,,,,,,,,,,,,,,,,,,,,,,,,,,,,,,876146,001,2024-11-28_11h46.23.089,Test,2024.2.1,60.012745867230606,2024-11-28 11h47.58.021293 +0100,
59,150,120,11,None,43,43,0,True,left,1.66356253900085,None,,,,,,,,0,43,43,43,,,,,,,,,272.7335530169985,,,,,,,,,,,,,,,,,,,,,,,,,,,,,,,,,,,,,,,272.7222374519988,272.7335530169985,273.7344685759999,274.7180021759996,274.7180021759996,274.7180021759996,276.38848696199784,left,1.66356253900085,None,,,,,,,,,,,,,,,,,,,,,,,,,,,,,,,,,,,,,,,,876146,001,2024-11-28_11h46.23.089,Test,2024.2.1,60.012745867230606,2024-11-28 11h47.58.021293 +0100,
30,150,150,2,None,44,44,0,False,left,0.7501385399991705,None,,,,,,,,0,44,44,44,,,,,,,,,276.4019025159978,,,,,,,,,,,,,,,,,,,,,,,,,,,,,,,,,,,,,,,276.3927938029992,276.4019025159978,277.4012838089984,278.4017805479998,278.4017805479998,278.4017805479998,279.1697438589981,left,0.7501385399991705,None,,,,,,,,,,,,,,,,,,,,,,,,,,,,,,,,,,,,,,,,876146,001,2024-11-28_11h46.23.089,Test,2024.2.1,60.012745867230606,2024-11-28 11h47.58.021293 +0100,
43,150,30,4,None,45,45,0,True,left,1.6312109330028761,None,,,,,,,,0,45,45,45,,,,,,,,,279.1839681040001,,,,,,,,,,,,,,,,,,,,,,,,,,,,,,,,,,,,,,,279.1732974749975,279.1839681040001,280.185192703997,281.18510925199735,281.18510925199735,281.18510925199735,282.81992760399953,left,1.6312109330028761,None,,,,,,,,,,,,,,,,,,,,,,,,,,,,,,,,,,,,,,,,876146,001,2024-11-28_11h46.23.089,Test,2024.2.1,60.012745867230606,2024-11-28 11h47.58.021293 +0100,
45,150,30,60,None,46,46,0,True,left,0.5862067439993552,None,,,,,,,,0,46,46,46,,,,,,,,,282.8344079239978,,,,,,,,,,,,,,,,,,,,,,,,,,,,,,,,,,,,,,,282.82334078799977,282.8344079239978,283.83516293799767,284.83471298899894,284.83471298899894,284.83471298899894,285.43684427100015,left,0.5862067439993552,None,,,,,,,,,,,,,,,,,,,,,,,,,,,,,,,,,,,,,,,,876146,001,2024-11-28_11h46.23.089,Test,2024.2.1,60.012745867230606,2024-11-28 11h47.58.021293 +0100,
5,150,0,34,None,47,47,0,False,left,0.5732028429993079,None,,,,,,,,0,47,47,47,,,,,,,,,285.4518597089991,,,,,,,,,,,,,,,,,,,,,,,,,,,,,,,,,,,,,,,285.4424346880005,285.4518597089991,286.4525088299997,287.4525187729996,287.4525187729996,287.4525187729996,288.03601690199866,left,0.5732028429993079,None,,,,,,,,,,,,,,,,,,,,,,,,,,,,,,,,,,,,,,,,876146,001,2024-11-28_11h46.23.089,Test,2024.2.1,60.012745867230606,2024-11-28 11h47.58.021293 +0100,
44,150,30,19,None,48,48,0,True,left,0.6015736879999167,None,,,,,,,,0,48,48,48,,,,,,,,,288.05153665000034,,,,,,,,,,,,,,,,,,,,,,,,,,,,,,,,,,,,,,,288.0407750859995,288.05153665000034,289.05240057300034,290.05143342500014,290.05143342500014,290.05143342500014,290.6699998599979,left,0.6015736879999167,None,,,,,,,,,,,,,,,,,,,,,,,,,,,,,,,,,,,,,,,,876146,001,2024-11-28_11h46.23.089,Test,2024.2.1,60.012745867230606,2024-11-28 11h47.58.021293 +0100,
64,150,150,47,None,49,49,0,True,left,0.5979019380029058,None,,,,,,,,0,49,49,49,,,,,,,,,290.6843883679976,,,,,,,,,,,,,,,,,,,,,,,,,,,,,,,,,,,,,,,290.67340563499965,290.6843883679976,291.685536555,292.6691947010004,292.6691947010004,292.6691947010004,293.2725951809989,left,0.5979019380029058,None,,,,,,,,,,,,,,,,,,,,,,,,,,,,,,,,,,,,,,,,876146,001,2024-11-28_11h46.23.089,Test,2024.2.1,60.012745867230606,2024-11-28 11h47.58.021293 +0100,
23,150,120,59,None,50,50,0,False,left,0.6136413429994718,None,,,,,,,,0,50,50,50,,,,,,,,,293.2855095089981,,,,,,,,,,,,,,,,,,,,,,,,,,,,,,,,,,,,,,,293.27666980399954,293.2855095089981,294.2859681259979,295.28574975599986,295.28574975599986,295.28574975599986,295.9065001739982,left,0.6136413429994718,None,,,,,,,,,,,,,,,,,,,,,,,,,,,,,,,,,,,,,,,,876146,001,2024-11-28_11h46.23.089,Test,2024.2.1,60.012745867230606,2024-11-28 11h47.58.021293 +0100,
68,150,180,61,None,51,51,0,True,left,1.0875384630016924,None,,,,,,,,0,51,51,51,,,,,,,,,295.9207165439984,,,,,,,,,,,,,,,,,,,,,,,,,,,,,,,,,,,,,,,295.91162728400013,295.9207165439984,296.9362095510005,297.91981040599785,297.91981040599785,297.91981040599785,299.0206712609979,left,1.0875384630016924,None,,,,,,,,,,,,,,,,,,,,,,,,,,,,,,,,,,,,,,,,876146,001,2024-11-28_11h46.23.089,Test,2024.2.1,60.012745867230606,2024-11-28 11h47.58.021293 +0100,
52,150,90,57,None,52,52,0,True,left,0.65287051300038,None,,,,,,,,0,52,52,52,,,,,,,,,299.03479949999746,,,,,,,,,,,,,,,,,,,,,,,,,,,,,,,,,,,,,,,299.0241415909986,299.03479949999746,300.03602210700046,301.03581240699714,301.03581240699714,301.03581240699714,301.7035850939974,left,0.65287051300038,None,,,,,,,,,,,,,,,,,,,,,,,,,,,,,,,,,,,,,,,,876146,001,2024-11-28_11h46.23.089,Test,2024.2.1,60.012745867230606,2024-11-28 11h47.58.021293 +0100,
70,150,180,24,None,53,53,0,True,left,0.7181205179986136,None,,,,,,,,0,53,53,53,,,,,,,,,301.71904555400033,,,,,,,,,,,,,,,,,,,,,,,,,,,,,,,,,,,,,,,301.7070771059989,301.71904555400033,302.72002107299704,303.7035407309995,303.7035407309995,303.7035407309995,304.43751010899723,left,0.7181205179986136,None,,,,,,,,,,,,,,,,,,,,,,,,,,,,,,,,,,,,,,,,876146,001,2024-11-28_11h46.23.089,Test,2024.2.1,60.012745867230606,2024-11-28 11h47.58.021293 +0100,
2,150,0,37,None,54,54,0,False,left,0.5569040100017446,None,,,,,,,,0,54,54,54,,,,,,,,,304.45189744899835,,,,,,,,,,,,,,,,,,,,,,,,,,,,,,,,,,,,,,,304.4416089949991,304.45189744899835,305.45270256799995,306.43678793199797,306.43678793199797,306.43678793199797,307.00377924699933,left,0.5569040100017446,None,,,,,,,,,,,,,,,,,,,,,,,,,,,,,,,,,,,,,,,,876146,001,2024-11-28_11h46.23.089,Test,2024.2.1,60.012745867230606,2024-11-28 11h47.58.021293 +0100,
6,150,30,26,None,55,55,0,False,left,0.6338942980000866,None,,,,,,,,0,55,55,55,,,,,,,,,307.0191738309986,,,,,,,,,,,,,,,,,,,,,,,,,,,,,,,,,,,,,,,307.00731868799994,307.0191738309986,308.0202172399986,309.0036107579981,309.0036107579981,309.0036107579981,309.65430163199926,left,0.6338942980000866,None,,,,,,,,,,,,,,,,,,,,,,,,,,,,,,,,,,,,,,,,876146,001,2024-11-28_11h46.23.089,Test,2024.2.1,60.012745867230606,2024-11-28 11h47.58.021293 +0100,
24,150,120,64,None,56,56,0,False,left,0.5847023349997471,None,,,,,,,,0,56,56,56,,,,,,,,,309.6698330129984,,,,,,,,,,,,,,,,,,,,,,,,,,,,,,,,,,,,,,,309.65774741199857,309.6698330129984,310.6690070709992,311.65391353999803,311.65391353999803,311.65391353999803,312.2538119979981,left,0.5847023349997471,None,,,,,,,,,,,,,,,,,,,,,,,,,,,,,,,,,,,,,,,,876146,001,2024-11-28_11h46.23.089,Test,2024.2.1,60.012745867230606,2024-11-28 11h47.58.021293 +0100,
46,150,60,63,None,57,57,0,True,left,1.2502485670011083,None,,,,,,,,0,57,57,57,,,,,,,,,312.26983701099743,,,,,,,,,,,,,,,,,,,,,,,,,,,,,,,,,,,,,,,312.25729363699793,312.26983701099743,313.2706067479994,314.2543874119983,314.2543874119983,314.2543874119983,315.5213778670004,left,1.2502485670011083,None,,,,,,,,,,,,,,,,,,,,,,,,,,,,,,,,,,,,,,,,876146,001,2024-11-28_11h46.23.089,Test,2024.2.1,60.012745867230606,2024-11-28 11h47.58.021293 +0100,
62,150,150,53,None,58,58,0,True,left,0.6300558520015329,None,,,,,,,,0,58,58,58,,,,,,,,,315.53646950300026,,,,,,,,,,,,,,,,,,,,,,,,,,,,,,,,,,,,,,,315.5248934099982,315.53646950300026,316.5376704400005,317.52083964199846,317.52083964199846,317.52083964199846,318.15713473899814,left,0.6300558520015329,None,,,,,,,,,,,,,,,,,,,,,,,,,,,,,,,,,,,,,,,,876146,001,2024-11-28_11h46.23.089,Test,2024.2.1,60.012745867230606,2024-11-28 11h47.58.021293 +0100,
15,150,60,21,None,59,59,0,False,right,0.8931102790011209,None,,,,,,,,0,59,59,59,,,,,,,,,318.16982557200026,,,,,,,,,,,,,,,,,,,,,,,,,,,,,,,,,,,,,,,318.16066834199955,318.16982557200026,319.1700205559973,320.17145547700056,320.17145547700056,320.17145547700056,321.0719665539982,right,0.8931102790011209,None,,,,,,,,,,,,,,,,,,,,,,,,,,,,,,,,,,,,,,,,876146,001,2024-11-28_11h46.23.089,Test,2024.2.1,60.012745867230606,2024-11-28 11h47.58.021293 +0100,
53,150,90,16,None,60,60,0,True,left,0.8570653599999787,None,,,,,,,,0,60,60,60,,,,,,,,,321.08639123899775,,,,,,,,,,,,,,,,,,,,,,,,,,,,,,,,,,,,,,,321.0753261179998,321.08639123899775,322.08726987499904,323.0712607159985,323.0712607159985,323.0712607159985,323.9389855059999,left,0.8570653599999787,None,,,,,,,,,,,,,,,,,,,,,,,,,,,,,,,,,,,,,,,,876146,001,2024-11-28_11h46.23.089,Test,2024.2.1,60.012745867230606,2024-11-28 11h47.58.021293 +0100,
10,150,30,46,None,61,61,0,False,left,0.6944891969978926,None,,,,,,,,0,61,61,61,,,,,,,,,323.9535668770004,,,,,,,,,,,,,,,,,,,,,,,,,,,,,,,,,,,,,,,323.9424447620004,323.9535668770004,324.95380864899926,325.954033512,325.954033512,325.954033512,326.6574675169977,left,0.6944891969978926,None,,,,,,,,,,,,,,,,,,,,,,,,,,,,,,,,,,,,,,,,876146,001,2024-11-28_11h46.23.089,Test,2024.2.1,60.012745867230606,2024-11-28 11h47.58.021293 +0100,
40,150,0,13,None,62,62,0,True,left,0.7755146849995072,None,,,,,,,,0,62,62,62,,,,,,,,,326.6708028739995,,,,,,,,,,,,,,,,,,,,,,,,,,,,,,,,,,,,,,,326.66150994800046,326.6708028739995,327.67170693799926,328.670641667999,328.670641667999,328.670641667999,329.4570258879976,left,0.7755146849995072,None,,,,,,,,,,,,,,,,,,,,,,,,,,,,,,,,,,,,,,,,876146,001,2024-11-28_11h46.23.089,Test,2024.2.1,60.012745867230606,2024-11-28 11h47.58.021293 +0100,
1,150,0,25,None,63,63,0,False,right,1.0337659629985865,None,,,,,,,,0,63,63,63,,,,,,,,,329.4702479949992,,,,,,,,,,,,,,,,,,,,,,,,,,,,,,,,,,,,,,,329.4608016509992,329.4702479949992,330.4709159009981,331.4719107389974,331.4719107389974,331.4719107389974,332.51000762900003,right,1.0337659629985865,None,,,,,,,,,,,,,,,,,,,,,,,,,,,,,,,,,,,,,,,,876146,001,2024-11-28_11h46.23.089,Test,2024.2.1,60.012745867230606,2024-11-28 11h47.58.021293 +0100,
8,150,30,23,None,64,64,0,False,left,0.6506410199981474,None,,,,,,,,0,64,64,64,,,,,,,,,332.5234720539993,,,,,,,,,,,,,,,,,,,,,,,,,,,,,,,,,,,,,,,332.51412227000037,332.5234720539993,333.53862892899997,334.52206338999895,334.52206338999895,334.52206338999895,335.18958518699947,left,0.6506410199981474,None,,,,,,,,,,,,,,,,,,,,,,,,,,,,,,,,,,,,,,,,876146,001,2024-11-28_11h46.23.089,Test,2024.2.1,60.012745867230606,2024-11-28 11h47.58.021293 +0100,
48,150,60,3,None,65,65,0,True,left,0.9687304699982633,None,,,,,,,,0,65,65,65,,,,,,,,,335.20405583499814,,,,,,,,,,,,,,,,,,,,,,,,,,,,,,,,,,,,,,,335.19321158299863,335.20405583499814,336.2051459909999,337.1893363229974,337.1893363229974,337.1893363229974,338.1732347469988,left,0.9687304699982633,None,,,,,,,,,,,,,,,,,,,,,,,,,,,,,,,,,,,,,,,,876146,001,2024-11-28_11h46.23.089,Test,2024.2.1,60.012745867230606,2024-11-28 11h47.58.021293 +0100,
51,150,90,8,None,66,66,0,True,left,0.7847196619986789,None,,,,,,,,0,66,66,66,,,,,,,,,338.1882296849981,,,,,,,,,,,,,,,,,,,,,,,,,,,,,,,,,,,,,,,338.1768692149999,338.1882296849981,339.189039779998,340.1728369249977,340.1728369249977,340.1728369249977,340.97267924900007,left,0.7847196619986789,None,,,,,,,,,,,,,,,,,,,,,,,,,,,,,,,,,,,,,,,,876146,001,2024-11-28_11h46.23.089,Test,2024.2.1,60.012745867230606,2024-11-28 11h47.58.021293 +0100,
25,150,120,40,None,67,67,0,False,left,0.6270008499996038,None,,,,,,,,0,67,67,67,,,,,,,,,340.9883257779984,,,,,,,,,,,,,,,,,,,,,,,,,,,,,,,,,,,,,,,340.97614858700035,340.9883257779984,341.98948327999824,342.9726737819983,342.9726737819983,342.9726737819983,343.6082045999974,left,0.6270008499996038,None,,,,,,,,,,,,,,,,,,,,,,,,,,,,,,,,,,,,,,,,876146,001,2024-11-28_11h46.23.089,Test,2024.2.1,60.012745867230606,2024-11-28 11h47.58.021293 +0100,
4,150,0,27,None,68,68,0,False,left,0.7839656010000908,None,,,,,,,,0,68,68,68,,,,,,,,,343.6215523110004,,,,,,,,,,,,,,,,,,,,,,,,,,,,,,,,,,,,,,,343.61186173199894,343.6215523110004,344.623127609997,345.6231196739973,345.6231196739973,345.6231196739973,346.423216616,left,0.7839656010000908,None,,,,,,,,,,,,,,,,,,,,,,,,,,,,,,,,,,,,,,,,876146,001,2024-11-28_11h46.23.089,Test,2024.2.1,60.012745867230606,2024-11-28 11h47.58.021293 +0100,
18,150,90,28,None,69,69,0,False,left,1.7736765340014244,None,,,,,,,,0,69,69,69,,,,,,,,,346.4386389179999,,,,,,,,,,,,,,,,,,,,,,,,,,,,,,,,,,,,,,,346.4266538109987,346.4386389179999,347.43974191099915,348.4232768469992,348.4232768469992,348.4232768469992,350.20783383399976,left,1.7736765340014244,None,,,,,,,,,,,,,,,,,,,,,,,,,,,,,,,,,,,,,,,,876146,001,2024-11-28_11h46.23.089,Test,2024.2.1,60.012745867230606,2024-11-28 11h47.58.021293 +0100,
,,,,,,,,,,,,,,,,,,,,,,,,,,,,,,,,,,,,,,,,,,,,,,,,,,,,,,,,,,,,,,,,,,,,,,,,,,,,,,,,350.20805167599974,350.2221994149986,350.2221994149986,354.8742071559973,space,4.639469254998403,None,,,,,,,,,,,,,,,,,,,,,,,,,,,,,,,,,876146,001,2024-11-28_11h46.23.089,Test,2024.2.1,60.012745867230606,2024-11-28 11h47.58.021293 +0100,
31,150,180,45,None,0,0,0,,,,,,,,,,,,,,,,0,0,0,30,,,,,354.90100075199734,,,,,,,,,,,,,,,,,,,,,,,,,,,,,,,,,,,,,,,,,,,,,,,,,,,,,,,,354.89047551699696,354.90100075199734,355.08929651200015,355.08929651200015,355.10644745899845,356.7898774189998,356.7898774189998,356.7745572999993,,,,,,,,,,,,,,,,,,,,,,,,,876146,001,2024-11-28_11h46.23.089,Test,2024.2.1,60.012745867230606,2024-11-28 11h47.58.021293 +0100,
12,150,60,49,None,1,1,0,,,,,,,,,,,,,,,,0,1,1,11,,,,,356.7898774189998,,,,,,,,,,,,,,,,,,,,,,,,,,,,,,,,,,,,,,,,,,,,,,,,,,,,,,,,356.7813229359999,356.7898774189998,356.9895333389977,356.9895333389977,356.9895333389977,358.6893413959988,358.6893413959988,358.6739404519976,,,,,,,,,,,,,,,,,,,,,,,,,876146,001,2024-11-28_11h46.23.089,Test,2024.2.1,60.012745867230606,2024-11-28 11h47.58.021293 +0100,
32,150,180,29,None,2,2,0,,,,,,,,,,,,,,,,0,2,2,31,,,,,358.6893413959988,,,,,,,,,,,,,,,,,,,,,,,,,,,,,,,,,,,,,,,,,,,,,,,,,,,,,,,,358.6783139399995,358.6893413959988,358.87392014599754,358.87392014599754,358.8906170829978,360.5728921439986,360.5728921439986,360.55693246699957,,,,,,,,,,,,,,,,,,,,,,,,,876146,001,2024-11-28_11h46.23.089,Test,2024.2.1,60.012745867230606,2024-11-28 11h47.58.021293 +0100,
14,150,60,20,None,3,3,0,,,,,,,,,,,,,,,,0,3,3,13,,,,,360.5728921439986,,,,,,,,,,,,,,,,,,,,,,,,,,,,,,,,,,,,,,,,,,,,,,,,,,,,,,,,360.56066620099955,360.5896107829976,360.7899059329975,360.7899059329975,360.7899059329975,362.4896941839979,362.4896941839979,362.4739646079979,,,,,,,,,,,,,,,,,,,,,,,,,876146,001,2024-11-28_11h46.23.089,Test,2024.2.1,60.012745867230606,2024-11-28 11h47.58.021293 +0100,
8,150,30,23,None,4,4,0,,,,,,,,,,,,,,,,0,4,4,7,,,,,362.4896941839979,,,,,,,,,,,,,,,,,,,,,,,,,,,,,,,,,,,,,,,,,,,,,,,,,,,,,,,,362.47764814199763,362.4896941839979,362.67296337099833,362.67296337099833,362.6897504039989,364.37427560799915,364.37427560799915,364.35882252999727,,,,,,,,,,,,,,,,,,,,,,,,,876146,001,2024-11-28_11h46.23.089,Test,2024.2.1,60.012745867230606,2024-11-28 11h47.58.021293 +0100,
24,150,120,64,None,5,5,0,,,,,,,,,,,,,,,,0,5,5,23,,,,,364.37427560799915,,,,,,,,,,,,,,,,,,,,,,,,,,,,,,,,,,,,,,,,,,,,,,,,,,,,,,,,364.36519160399985,364.37427560799915,364.59034993800014,364.59034993800014,364.59034993800014,366.2917444630002,366.2917444630002,366.27509727699726,,,,,,,,,,,,,,,,,,,,,,,,,876146,001,2024-11-28_11h46.23.089,Test,2024.2.1,60.012745867230606,2024-11-28 11h47.58.021293 +0100,
29,150,150,65,None,6,6,0,,,,,,,,,,,,,,,,0,6,6,28,,,,,366.2917444630002,,,,,,,,,,,,,,,,,,,,,,,,,,,,,,,,,,,,,,,,,,,,,,,,,,,,,,,,366.2821811529975,366.2917444630002,366.48959804900005,366.48959804900005,366.50626022099823,,,368.1750247809978,,,,,,,,,,,,,,,,,,,,,,,,,876146,001,2024-11-28_11h46.23.089,Test,2024.2.1,60.012745867230606,2024-11-28 11h47.58.021293 +0100,
9,150,30,69,None,7,7,0,,,,,,,,,,,,,,,,0,7,7,8,,,,,368.1908484229971,,,,,,,,,,,,,,,,,,,,,,,,,,,,,,,,,,,,,,,,,,,,,,,,,,,,,,,,368.1822480979972,368.1908484229971,368.3736101430004,368.3736101430004,368.3901829139977,370.0735875749997,370.0735875749997,370.05789937699956,,,,,,,,,,,,,,,,,,,,,,,,,876146,001,2024-11-28_11h46.23.089,Test,2024.2.1,60.012745867230606,2024-11-28 11h47.58.021293 +0100,
3,150,0,35,None,8,8,0,,,,,,,,,,,,,,,,0,8,8,2,,,,,370.0735875749997,,,,,,,,,,,,,,,,,,,,,,,,,,,,,,,,,,,,,,,,,,,,,,,,,,,,,,,,370.0616032759972,370.0735875749997,370.2749795189993,370.2749795189993,370.2749795189993,371.97431023399986,371.97431023399986,371.9590927479985,,,,,,,,,,,,,,,,,,,,,,,,,876146,001,2024-11-28_11h46.23.089,Test,2024.2.1,60.012745867230606,2024-11-28 11h47.58.021293 +0100,
17,150,90,39,None,9,9,0,,,,,,,,,,,,,,,,0,9,9,16,,,,,371.97431023399986,,,,,,,,,,,,,,,,,,,,,,,,,,,,,,,,,,,,,,,,,,,,,,,,,,,,,,,,371.96525819700037,371.97431023399986,372.1746027829977,372.1746027829977,372.1746027829977,373.8740422720002,373.8740422720002,373.85799224499715,,,,,,,,,,,,,,,,,,,,,,,,,876146,001,2024-11-28_11h46.23.089,Test,2024.2.1,60.012745867230606,2024-11-28 11h47.58.021293 +0100,
25,150,120,40,None,10,10,0,,,,,,,,,,,,,,,,0,10,10,24,,,,,373.8740422720002,,,,,,,,,,,,,,,,,,,,,,,,,,,,,,,,,,,,,,,,,,,,,,,,,,,,,,,,373.8617878699988,373.8740422720002,374.0750584540001,374.0750584540001,374.0750584540001,375.79152533399974,375.79152533399974,375.7749455999983,,,,,,,,,,,,,,,,,,,,,,,,,876146,001,2024-11-28_11h46.23.089,Test,2024.2.1,60.012745867230606,2024-11-28 11h47.58.021293 +0100,
6,150,30,26,None,11,11,0,,,,,,,,,,,,,,,,0,11,11,5,,,,,375.79152533399974,,,,,,,,,,,,,,,,,,,,,,,,,,,,,,,,,,,,,,,,,,,,,,,,,,,,,,,,375.7793776219987,375.79152533399974,375.9753150189972,375.9753150189972,375.9915284259987,377.6742142419971,377.6742142419971,377.6596429759993,,,,,,,,,,,,,,,,,,,,,,,,,876146,001,2024-11-28_11h46.23.089,Test,2024.2.1,60.012745867230606,2024-11-28 11h47.58.021293 +0100,
30,150,150,2,None,12,12,0,,,,,,,,,,,,,,,,0,12,12,29,,,,,377.6742142419971,,,,,,,,,,,,,,,,,,,,,,,,,,,,,,,,,,,,,,,,,,,,,,,,,,,,,,,,377.665628464998,377.6742142419971,377.87438031499914,377.87438031499914,377.87438031499914,379.5744035429998,379.5744035429998,379.55946736699843,,,,,,,,,,,,,,,,,,,,,,,,,876146,001,2024-11-28_11h46.23.089,Test,2024.2.1,60.012745867230606,2024-11-28 11h47.58.021293 +0100,
34,150,180,54,None,13,13,0,,,,,,,,,,,,,,,,0,13,13,33,,,,,379.5744035429998,,,,,,,,,,,,,,,,,,,,,,,,,,,,,,,,,,,,,,,,,,,,,,,,,,,,,,,,379.5656485269974,379.5744035429998,379.77451323399873,379.77451323399873,379.77451323399873,381.47483564999857,381.47483564999857,381.45864684499975,,,,,,,,,,,,,,,,,,,,,,,,,876146,001,2024-11-28_11h46.23.089,Test,2024.2.1,60.012745867230606,2024-11-28 11h47.58.021293 +0100,
15,150,60,21,None,14,14,0,,,,,,,,,,,,,,,,0,14,14,14,,,,,381.47483564999857,,,,,,,,,,,,,,,,,,,,,,,,,,,,,,,,,,,,,,,,,,,,,,,,,,,,,,,,381.46257027299725,381.47483564999857,381.6745910699974,381.6745910699974,381.6745910699974,383.3751121799978,383.3751121799978,383.35990416300046,,,,,,,,,,,,,,,,,,,,,,,,,876146,001,2024-11-28_11h46.23.089,Test,2024.2.1,60.012745867230606,2024-11-28 11h47.58.021293 +0100,
21,150,120,50,None,15,15,0,,,,,,,,,,,,,,,,0,15,15,20,,,,,383.3751121799978,,,,,,,,,,,,,,,,,,,,,,,,,,,,,,,,,,,,,,,,,,,,,,,,,,,,,,,,383.36612083,383.3751121799978,383.5754633059987,383.5754633059987,383.5754633059987,385.27465607299746,385.27465607299746,385.2600925070001,,,,,,,,,,,,,,,,,,,,,,,,,876146,001,2024-11-28_11h46.23.089,Test,2024.2.1,60.012745867230606,2024-11-28 11h47.58.021293 +0100,
35,150,180,5,None,16,16,0,,,,,,,,,,,,,,,,0,16,16,34,,,,,385.27465607299746,,,,,,,,,,,,,,,,,,,,,,,,,,,,,,,,,,,,,,,,,,,,,,,,,,,,,,,,385.26608651599963,385.27465607299746,385.4755744760005,385.4755744760005,385.4755744760005,387.1755857809985,387.1755857809985,387.1602590349976,,,,,,,,,,,,,,,,,,,,,,,,,876146,001,2024-11-28_11h46.23.089,Test,2024.2.1,60.012745867230606,2024-11-28 11h47.58.021293 +0100,
11,150,60,43,None,17,17,0,,,,,,,,,,,,,,,,0,17,17,10,,,,,387.1755857809985,,,,,,,,,,,,,,,,,,,,,,,,,,,,,,,,,,,,,,,,,,,,,,,,,,,,,,,,387.16693625399785,387.1755857809985,387.3747126929993,387.3747126929993,387.3747126929993,389.07508840399896,389.07508840399896,389.0600752329992,,,,,,,,,,,,,,,,,,,,,,,,,876146,001,2024-11-28_11h46.23.089,Test,2024.2.1,60.012745867230606,2024-11-28 11h47.58.021293 +0100,
19,150,90,30,None,18,18,0,,,,,,,,,,,,,,,,0,18,18,18,,,,,389.07508840399896,,,,,,,,,,,,,,,,,,,,,,,,,,,,,,,,,,,,,,,,,,,,,,,,,,,,,,,,389.0661688629989,389.07508840399896,389.2749186289984,389.2749186289984,389.2749186289984,390.9751380460002,390.9751380460002,390.95983973299735,,,,,,,,,,,,,,,,,,,,,,,,,876146,001,2024-11-28_11h46.23.089,Test,2024.2.1,60.012745867230606,2024-11-28 11h47.58.021293 +0100,
4,150,0,27,None,19,19,0,,,,,,,,,,,,,,,,0,19,19,3,,,,,390.9751380460002,,,,,,,,,,,,,,,,,,,,,,,,,,,,,,,,,,,,,,,,,,,,,,,,,,,,,,,,390.9642952209979,390.9751380460002,391.1760830159983,391.1760830159983,391.1760830159983,392.8754815350003,392.8754815350003,392.8604001700005,,,,,,,,,,,,,,,,,,,,,,,,,876146,001,2024-11-28_11h46.23.089,Test,2024.2.1,60.012745867230606,2024-11-28 11h47.58.021293 +0100,
16,150,90,44,None,20,20,0,,,,,,,,,,,,,,,,0,20,20,15,,,,,392.8754815350003,,,,,,,,,,,,,,,,,,,,,,,,,,,,,,,,,,,,,,,,,,,,,,,,,,,,,,,,392.8670754349987,392.8754815350003,393.0751456049984,393.0751456049984,393.0751456049984,394.7756209899999,394.7756209899999,394.75968941399697,,,,,,,,,,,,,,,,,,,,,,,,,876146,001,2024-11-28_11h46.23.089,Test,2024.2.1,60.012745867230606,2024-11-28 11h47.58.021293 +0100,
33,150,180,15,None,21,21,0,,,,,,,,,,,,,,,,0,21,21,32,,,,,394.7756209899999,,,,,,,,,,,,,,,,,,,,,,,,,,,,,,,,,,,,,,,,,,,,,,,,,,,,,,,,394.7632907549996,394.7756209899999,394.975920992998,394.975920992998,394.975920992998,396.67546465600026,396.67546465600026,396.65927735699734,,,,,,,,,,,,,,,,,,,,,,,,,876146,001,2024-11-28_11h46.23.089,Test,2024.2.1,60.012745867230606,2024-11-28 11h47.58.021293 +0100,
20,150,90,7,None,22,22,0,,,,,,,,,,,,,,,,0,22,22,19,,,,,396.67546465600026,,,,,,,,,,,,,,,,,,,,,,,,,,,,,,,,,,,,,,,,,,,,,,,,,,,,,,,,396.6630023079997,396.67546465600026,396.88193889600007,396.88193889600007,396.88193889600007,,,398.57683258399993,,,,,,,,,,,,,,,,,,,,,,,,,876146,001,2024-11-28_11h46.23.089,Test,2024.2.1,60.012745867230606,2024-11-28 11h47.58.021293 +0100,
5,150,0,34,None,23,23,0,,,,,,,,,,,,,,,,0,23,23,4,,,,,398.59176189799837,,,,,,,,,,,,,,,,,,,,,,,,,,,,,,,,,,,,,,,,,,,,,,,,,,,,,,,,398.5830745329986,398.59176189799837,398.7755746829971,398.7755746829971,398.7923042609982,400.47606700100005,400.47606700100005,400.4602512450001,,,,,,,,,,,,,,,,,,,,,,,,,876146,001,2024-11-28_11h46.23.089,Test,2024.2.1,60.012745867230606,2024-11-28 11h47.58.021293 +0100,
23,150,120,59,None,24,24,0,,,,,,,,,,,,,,,,0,24,24,22,,,,,400.47606700100005,,,,,,,,,,,,,,,,,,,,,,,,,,,,,,,,,,,,,,,,,,,,,,,,,,,,,,,,400.4644198040005,400.47606700100005,400.675579024999,400.675579024999,400.675579024999,402.3776117239977,402.3776117239977,402.3609999479995,,,,,,,,,,,,,,,,,,,,,,,,,876146,001,2024-11-28_11h46.23.089,Test,2024.2.1,60.012745867230606,2024-11-28 11h47.58.021293 +0100,
7,150,30,67,None,25,25,0,,,,,,,,,,,,,,,,0,25,25,6,,,,,402.3776117239977,,,,,,,,,,,,,,,,,,,,,,,,,,,,,,,,,,,,,,,,,,,,,,,,,,,,,,,,402.36757279899757,402.3776117239977,402.57620399299776,402.57620399299776,402.5929791380004,404.27729406599974,404.27729406599974,404.26147125900025,,,,,,,,,,,,,,,,,,,,,,,,,876146,001,2024-11-28_11h46.23.089,Test,2024.2.1,60.012745867230606,2024-11-28 11h47.58.021293 +0100,
1,150,0,25,None,26,26,0,,,,,,,,,,,,,,,,0,26,26,0,,,,,404.27729406599974,,,,,,,,,,,,,,,,,,,,,,,,,,,,,,,,,,,,,,,,,,,,,,,,,,,,,,,,404.2680733729976,404.27729406599974,404.4768725289978,404.4768725289978,404.4768725289978,406.1758368789997,406.1758368789997,406.1606082819999,,,,,,,,,,,,,,,,,,,,,,,,,876146,001,2024-11-28_11h46.23.089,Test,2024.2.1,60.012745867230606,2024-11-28 11h47.58.021293 +0100,
22,150,120,58,None,27,27,0,,,,,,,,,,,,,,,,0,27,27,21,,,,,406.1758368789997,,,,,,,,,,,,,,,,,,,,,,,,,,,,,,,,,,,,,,,,,,,,,,,,,,,,,,,,406.1651019689998,406.1758368789997,406.37622195400036,406.37622195400036,406.37622195400036,408.07605850399705,408.07605850399705,408.0606712989975,,,,,,,,,,,,,,,,,,,,,,,,,876146,001,2024-11-28_11h46.23.089,Test,2024.2.1,60.012745867230606,2024-11-28 11h47.58.021293 +0100,
28,150,150,22,None,28,28,0,,,,,,,,,,,,,,,,0,28,28,27,,,,,408.07605850399705,,,,,,,,,,,,,,,,,,,,,,,,,,,,,,,,,,,,,,,,,,,,,,,,,,,,,,,,408.0644586439994,408.07605850399705,408.2762117819984,408.2762117819984,408.2762117819984,409.9765411219996,409.9765411219996,409.96113914399757,,,,,,,,,,,,,,,,,,,,,,,,,876146,001,2024-11-28_11h46.23.089,Test,2024.2.1,60.012745867230606,2024-11-28 11h47.58.021293 +0100,
13,150,60,66,None,29,29,0,,,,,,,,,,,,,,,,0,29,29,12,,,,,409.9765411219996,,,,,,,,,,,,,,,,,,,,,,,,,,,,,,,,,,,,,,,,,,,,,,,,,,,,,,,,409.9655014239979,409.9765411219996,410.1774793179975,410.1774793179975,410.1774793179975,,,411.87668340899836,,,,,,,,,,,,,,,,,,,,,,,,,876146,001,2024-11-28_11h46.23.089,Test,2024.2.1,60.012745867230606,2024-11-28 11h47.58.021293 +0100,
18,150,90,28,None,30,30,0,,,,,,,,,,,,,,,,0,30,30,17,,,,,411.8934989720001,,,,,,,,,,,,,,,,,,,,,,,,,,,,,,,,,,,,,,,,,,,,,,,,,,,,,,,,411.88143137899897,411.8934989720001,412.07663471999695,412.07663471999695,412.0931318469993,413.77634086800026,413.77634086800026,413.76077970999904,,,,,,,,,,,,,,,,,,,,,,,,,876146,001,2024-11-28_11h46.23.089,Test,2024.2.1,60.012745867230606,2024-11-28 11h47.58.021293 +0100,
10,150,30,46,None,31,31,0,,,,,,,,,,,,,,,,0,31,31,9,,,,,413.77634086800026,,,,,,,,,,,,,,,,,,,,,,,,,,,,,,,,,,,,,,,,,,,,,,,,,,,,,,,,413.76424010199844,413.77634086800026,413.9779918239983,413.9779918239983,413.9779918239983,,,415.6772791209987,,,,,,,,,,,,,,,,,,,,,,,,,876146,001,2024-11-28_11h46.23.089,Test,2024.2.1,60.012745867230606,2024-11-28 11h47.58.021293 +0100,
2,150,0,37,None,32,32,0,,,,,,,,,,,,,,,,0,32,32,1,,,,,415.6933795829973,,,,,,,,,,,,,,,,,,,,,,,,,,,,,,,,,,,,,,,,,,,,,,,,,,,,,,,,415.68173872899933,415.6933795829973,415.87660589699954,415.87660589699954,415.89349602999937,417.57682728099826,417.57682728099826,417.56146787800026,,,,,,,,,,,,,,,,,,,,,,,,,876146,001,2024-11-28_11h46.23.089,Test,2024.2.1,60.012745867230606,2024-11-28 11h47.58.021293 +0100,
26,150,150,42,None,33,33,0,,,,,,,,,,,,,,,,0,33,33,25,,,,,417.57682728099826,,,,,,,,,,,,,,,,,,,,,,,,,,,,,,,,,,,,,,,,,,,,,,,,,,,,,,,,417.565298685,417.57682728099826,417.7771733789996,417.7771733789996,417.7771733789996,419.4768904859993,419.4768904859993,419.4612840459995,,,,,,,,,,,,,,,,,,,,,,,,,876146,001,2024-11-28_11h46.23.089,Test,2024.2.1,60.012745867230606,2024-11-28 11h47.58.021293 +0100,
27,150,150,6,None,34,34,0,,,,,,,,,,,,,,,,0,34,34,26,,,,,419.4768904859993,,,,,,,,,,,,,,,,,,,,,,,,,,,,,,,,,,,,,,,,,,,,,,,,,,,,,,,,419.4651912429981,419.4768904859993,419.67767321099745,419.67767321099745,419.67767321099745,421.3780223199974,421.3780223199974,421.36244593399897,,,,,,,,,,,,,,,,,,,,,,,,,876146,001,2024-11-28_11h46.23.089,Test,2024.2.1,60.012745867230606,2024-11-28 11h47.58.021293 +0100,
,,,,,,,,,,,,,,,,,,,,,,,,,,,,,,,,,,,,,,,,,,,,,,,,,,,,,,,,,,,,,,,,,,,,,,,,,,,,,,,,,,,,,,,,,,,,,,,421.36266770899965,421.3780223199974,421.3780223199974,434.46330594699975,space,13.078140161000192,None,,,,,,,,,,,,,,,,,,876146,001,2024-11-28_11h46.23.089,Test,2024.2.1,60.012745867230606,2024-11-28 11h47.58.021293 +0100,
65,150,150,10,None,0,0,0,True,,,,right,0.6662996810009645,None,,,,,,,,,,,,,0,0,0,0,434.485251195998,,,,,,,,,,,,,,,,,,,,,,,,,,,,,,,,,,,,,,,,,,,,,,,,,,,,,,,,,,,,,,,,,,,,,,,434.476531090997,434.485251195998,435.4953238529997,436.477656330997,436.477656330997,436.477656330997,437.14776036699914,right,0.6662996810009645,None,,,,,,,,876146,001,2024-11-28_11h46.23.089,Test,2024.2.1,60.012745867230606,2024-11-28 11h47.58.021293 +0100,
55,150,90,36,None,1,1,0,True,,,,right,0.5442492879992642,None,,,,,,,,,,,,,0,1,1,1,437.16123614299795,,,,,,,,,,,,,,,,,,,,,,,,,,,,,,,,,,,,,,,,,,,,,,,,,,,,,,,,,,,,,,,,,,,,,,,437.1511440789982,437.16123614299795,438.16169949399773,439.1615377849994,439.1615377849994,439.1615377849994,439.71356294,right,0.5442492879992642,None,,,,,,,,876146,001,2024-11-28_11h46.23.089,Test,2024.2.1,60.012745867230606,2024-11-28 11h47.58.021293 +0100,
26,150,150,42,None,2,2,0,False,,,,left,1.0580900269997073,None,,,,,,,,,,,,,0,2,2,2,439.7280279609986,,,,,,,,,,,,,,,,,,,,,,,,,,,,,,,,,,,,,,,,,,,,,,,,,,,,,,,,,,,,,,,,,,,,,,,439.7169850329992,439.7280279609986,440.72828525599834,441.72838652599967,441.72838652599967,441.72838652599967,442.79656490100024,left,1.0580900269997073,None,,,,,,,,876146,001,2024-11-28_11h46.23.089,Test,2024.2.1,60.012745867230606,2024-11-28 11h47.58.021293 +0100,
36,150,0,68,None,3,3,0,True,,,,left,0.7169345110014547,None,,,,,,,,,,,,,0,3,3,3,442.81199654100055,,,,,,,,,,,,,,,,,,,,,,,,,,,,,,,,,,,,,,,,,,,,,,,,,,,,,,,,,,,,,,,,,,,,,,,442.79985203499746,442.81199654100055,443.8132700009992,444.7965403369999,444.7965403369999,444.7965403369999,445.53102391399807,left,0.7169345110014547,None,,,,,,,,876146,001,2024-11-28_11h46.23.089,Test,2024.2.1,60.012745867230606,2024-11-28 11h47.58.021293 +0100,
39,150,0,12,None,4,4,0,True,,,,left,0.7358222260008915,None,,,,,,,,,,,,,0,4,4,4,445.5451636739999,,,,,,,,,,,,,,,,,,,,,,,,,,,,,,,,,,,,,,,,,,,,,,,,,,,,,,,,,,,,,,,,,,,,,,,445.53462461399977,445.5451636739999,446.5455757790005,447.54685347399936,447.54685347399936,447.54685347399936,448.2972547520003,left,0.7358222260008915,None,,,,,,,,876146,001,2024-11-28_11h46.23.089,Test,2024.2.1,60.012745867230606,2024-11-28 11h47.58.021293 +0100,
41,150,30,48,None,5,5,0,True,,,,left,0.6275884549977491,None,,,,,,,,,,,,,0,5,5,5,448.31267657699937,,,,,,,,,,,,,,,,,,,,,,,,,,,,,,,,,,,,,,,,,,,,,,,,,,,,,,,,,,,,,,,,,,,,,,,448.3007159259978,448.31267657699937,449.3131824789998,450.3130726169984,450.3130726169984,450.3130726169984,450.9494471329999,left,0.6275884549977491,None,,,,,,,,876146,001,2024-11-28_11h46.23.089,Test,2024.2.1,60.012745867230606,2024-11-28 11h47.58.021293 +0100,
54,150,90,31,None,6,6,0,True,,,,left,0.6221419239991519,None,,,,,,,,,,,,,0,6,6,6,450.9631857129971,,,,,,,,,,,,,,,,,,,,,,,,,,,,,,,,,,,,,,,,,,,,,,,,,,,,,,,,,,,,,,,,,,,,,,,450.9538371689996,450.9631857129971,451.96370021799885,452.96360458399795,452.96360458399795,452.96360458399795,453.5974689430004,left,0.6221419239991519,None,,,,,,,,876146,001,2024-11-28_11h46.23.089,Test,2024.2.1,60.012745867230606,2024-11-28 11h47.58.021293 +0100,
33,150,180,15,None,7,7,0,False,,,,left,0.43870073200014303,None,,,,,,,,,,,,,0,7,7,7,453.6126214359974,,,,,,,,,,,,,,,,,,,,,,,,,,,,,,,,,,,,,,,,,,,,,,,,,,,,,,,,,,,,,,,,,,,,,,,453.60127084600026,453.6126214359974,454.613543954998,455.59696677199827,455.59696677199827,455.59696677199827,456.04764943199916,left,0.43870073200014303,None,,,,,,,,876146,001,2024-11-28_11h46.23.089,Test,2024.2.1,60.012745867230606,2024-11-28 11h47.58.021293 +0100,
34,150,180,54,None,8,8,0,False,,,,left,0.41998053200222785,None,,,,,,,,,,,,,0,8,8,8,456.0631062879984,,,,,,,,,,,,,,,,,,,,,,,,,,,,,,,,,,,,,,,,,,,,,,,,,,,,,,,,,,,,,,,,,,,,,,,456.05112018900036,456.0631062879984,457.0629832880004,458.04725605099884,458.04725605099884,458.04725605099884,458.4817009489998,left,0.41998053200222785,None,,,,,,,,876146,001,2024-11-28_11h46.23.089,Test,2024.2.1,60.012745867230606,2024-11-28 11h47.58.021293 +0100,
47,150,60,38,None,9,9,0,True,,,,left,0.6411864039982902,None,,,,,,,,,,,,,0,9,9,9,458.4959062429989,,,,,,,,,,,,,,,,,,,,,,,,,,,,,,,,,,,,,,,,,,,,,,,,,,,,,,,,,,,,,,,,,,,,,,,458.4853915459971,458.4959062429989,459.4964190669998,460.48066089799977,460.48066089799977,460.48066089799977,461.1324290119992,left,0.6411864039982902,None,,,,,,,,876146,001,2024-11-28_11h46.23.089,Test,2024.2.1,60.012745867230606,2024-11-28 11h47.58.021293 +0100,
38,150,0,41,None,10,10,0,True,,,,left,0.48589998000170453,None,,,,,,,,,,,,,0,10,10,10,461.1466528089986,,,,,,,,,,,,,,,,,,,,,,,,,,,,,,,,,,,,,,,,,,,,,,,,,,,,,,,,,,,,,,,,,,,,,,,461.13636263599983,461.1466528089986,462.1466450959997,463.1478442209991,463.1478442209991,463.1478442209991,463.649058261999,left,0.48589998000170453,None,,,,,,,,876146,001,2024-11-28_11h46.23.089,Test,2024.2.1,60.012745867230606,2024-11-28 11h47.58.021293 +0100,
20,150,90,7,None,11,11,0,False,,,,left,0.5706931360000453,None,,,,,,,,,,,,,0,11,11,11,463.66344215199933,,,,,,,,,,,,,,,,,,,,,,,,,,,,,,,,,,,,,,,,,,,,,,,,,,,,,,,,,,,,,,,,,,,,,,,463.6526641540004,463.66344215199933,464.66347972400035,465.66441535599733,465.66441535599733,465.66441535599733,466.24926730199877,left,0.5706931360000453,None,,,,,,,,876146,001,2024-11-28_11h46.23.089,Test,2024.2.1,60.012745867230606,2024-11-28 11h47.58.021293 +0100,
69,150,180,18,None,12,12,0,True,,,,left,0.6939167509990511,None,,,,,,,,,,,,,0,12,12,12,466.2631836069995,,,,,,,,,,,,,,,,,,,,,,,,,,,,,,,,,,,,,,,,,,,,,,,,,,,,,,,,,,,,,,,,,,,,,,,466.2527718450001,466.2631836069995,467.2647153959988,468.2647057619979,468.2647057619979,468.2647057619979,468.9674089839973,left,0.6939167509990511,None,,,,,,,,876146,001,2024-11-28_11h46.23.089,Test,2024.2.1,60.012745867230606,2024-11-28 11h47.58.021293 +0100,
13,150,60,66,None,13,13,0,False,,,,right,1.1340325940000184,None,,,,,,,,,,,,,0,13,13,13,468.9803585949994,,,,,,,,,,,,,,,,,,,,,,,,,,,,,,,,,,,,,,,,,,,,,,,,,,,,,,,,,,,,,,,,,,,,,,,468.9715543969978,468.9803585949994,469.9815519179974,470.9814745279982,470.9814745279982,470.9814745279982,472.1193357079974,right,1.1340325940000184,None,,,,,,,,876146,001,2024-11-28_11h46.23.089,Test,2024.2.1,60.012745867230606,2024-11-28 11h47.58.021293 +0100,
66,150,180,55,None,14,14,0,True,,,,left,0.7865469150019635,None,,,,,,,,,,,,,0,14,14,14,472.1324861559988,,,,,,,,,,,,,,,,,,,,,,,,,,,,,,,,,,,,,,,,,,,,,,,,,,,,,,,,,,,,,,,,,,,,,,,472.12373181699877,472.1324861559988,473.1315697619975,474.13100985399797,474.13100985399797,474.13100985399797,474.9327472929981,left,0.7865469150019635,None,,,,,,,,876146,001,2024-11-28_11h46.23.089,Test,2024.2.1,60.012745867230606,2024-11-28 11h47.58.021293 +0100,
49,150,60,17,None,15,15,0,True,,,,left,0.9632032500012428,None,,,,,,,,,,,,,0,15,15,15,474.94762696399994,,,,,,,,,,,,,,,,,,,,,,,,,,,,,,,,,,,,,,,,,,,,,,,,,,,,,,,,,,,,,,,,,,,,,,,474.9363038929987,474.94762696399994,475.94817226599844,476.93195115999697,476.93195115999697,476.93195115999697,477.9001576249975,left,0.9632032500012428,None,,,,,,,,876146,001,2024-11-28_11h46.23.089,Test,2024.2.1,60.012745867230606,2024-11-28 11h47.58.021293 +0100,
35,150,180,5,None,16,16,0,False,,,,right,1.0525521169984131,None,,,,,,,,,,,,,0,16,16,16,477.91405155699977,,,,,,,,,,,,,,,,,,,,,,,,,,,,,,,,,,,,,,,,,,,,,,,,,,,,,,,,,,,,,,,,,,,,,,,477.90351624100003,477.91405155699977,478.9152975649995,479.9147114919979,479.9147114919979,479.9147114919979,480.98333939999793,right,1.0525521169984131,None,,,,,,,,876146,001,2024-11-28_11h46.23.089,Test,2024.2.1,60.012745867230606,2024-11-28 11h47.58.021293 +0100,
31,150,180,45,None,17,17,0,False,,,,right,1.0605407059993013,None,,,,,,,,,,,,,0,17,17,17,480.99750227299955,,,,,,,,,,,,,,,,,,,,,,,,,,,,,,,,,,,,,,,,,,,,,,,,,,,,,,,,,,,,,,,,,,,,,,,480.98743347399795,480.99750227299955,481.9986149670003,482.98219524399974,482.98219524399974,482.98219524399974,484.0497768069981,right,1.0605407059993013,None,,,,,,,,876146,001,2024-11-28_11h46.23.089,Test,2024.2.1,60.012745867230606,2024-11-28 11h47.58.021293 +0100,
29,150,150,65,None,18,18,0,False,,,,left,0.7234763550004573,None,,,,,,,,,,,,,0,18,18,18,484.0644369519978,,,,,,,,,,,,,,,,,,,,,,,,,,,,,,,,,,,,,,,,,,,,,,,,,,,,,,,,,,,,,,,,,,,,,,,484.05327905800004,484.0644369519978,485.06566130699866,486.0495889140002,486.0495889140002,486.0495889140002,486.7835161669973,left,0.7234763550004573,None,,,,,,,,876146,001,2024-11-28_11h46.23.089,Test,2024.2.1,60.012745867230606,2024-11-28 11h47.58.021293 +0100,
63,150,150,32,None,19,19,0,True,,,,right,0.7710610329995689,None,,,,,,,,,,,,,0,19,19,19,486.79841552299695,,,,,,,,,,,,,,,,,,,,,,,,,,,,,,,,,,,,,,,,,,,,,,,,,,,,,,,,,,,,,,,,,,,,,,,486.78703733099974,486.79841552299695,487.7985280749999,488.7827906959974,488.7827906959974,488.7827906959974,489.5674160029994,right,0.7710610329995689,None,,,,,,,,876146,001,2024-11-28_11h46.23.089,Test,2024.2.1,60.012745867230606,2024-11-28 11h47.58.021293 +0100,
12,150,60,49,None,20,20,0,False,,,,right,1.8247951479970652,None,,,,,,,,,,,,,0,20,20,20,489.5822269659984,,,,,,,,,,,,,,,,,,,,,,,,,,,,,,,,,,,,,,,,,,,,,,,,,,,,,,,,,,,,,,,,,,,,,,,489.5708087210005,489.5822269659984,490.582691763997,491.5832168559973,491.5832168559973,491.5832168559973,493.4172323139974,right,1.8247951479970652,None,,,,,,,,876146,001,2024-11-28_11h46.23.089,Test,2024.2.1,60.012745867230606,2024-11-28 11h47.58.021293 +0100,
9,150,30,69,None,21,21,0,False,,,,left,1.1138862810003047,None,,,,,,,,,,,,,0,21,21,21,493.43206586299857,,,,,,,,,,,,,,,,,,,,,,,,,,,,,,,,,,,,,,,,,,,,,,,,,,,,,,,,,,,,,,,,,,,,,,,493.4205811799984,493.43206586299857,494.4330532729982,495.4165034969992,495.4165034969992,495.4165034969992,496.53451209799823,left,1.1138862810003047,None,,,,,,,,876146,001,2024-11-28_11h46.23.089,Test,2024.2.1,60.012745867230606,2024-11-28 11h47.58.021293 +0100,
61,150,150,33,None,22,22,0,True,,,,left,1.435887448998983,None,,,,,,,,,,,,,0,22,22,22,496.5484775169971,,,,,,,,,,,,,,,,,,,,,,,,,,,,,,,,,,,,,,,,,,,,,,,,,,,,,,,,,,,,,,,,,,,,,,,496.53795426599754,496.5484775169971,497.55018058600035,498.5496395259979,498.5496395259979,498.5496395259979,500.0007154829982,left,1.435887448998983,None,,,,,,,,876146,001,2024-11-28_11h46.23.089,Test,2024.2.1,60.012745867230606,2024-11-28 11h47.58.021293 +0100,
58,150,120,1,None,23,23,0,True,,,,right,0.8462930059977225,None,,,,,,,,,,,,,0,23,23,23,500.01627624899993,,,,,,,,,,,,,,,,,,,,,,,,,,,,,,,,,,,,,,,,,,,,,,,,,,,,,,,,,,,,,,,,,,,,,,,500.004156494997,500.01627624899993,501.0169715640004,502.0003875839975,502.0003875839975,502.0003875839975,502.8534663809987,right,0.8462930059977225,None,,,,,,,,876146,001,2024-11-28_11h46.23.089,Test,2024.2.1,60.012745867230606,2024-11-28 11h47.58.021293 +0100,
50,150,60,70,None,24,24,0,True,,,,left,0.7463196030003019,None,,,,,,,,,,,,,0,24,24,24,502.8665679149999,,,,,,,,,,,,,,,,,,,,,,,,,,,,,,,,,,,,,,,,,,,,,,,,,,,,,,,,,,,,,,,,,,,,,,,502.857656426997,502.8665679149999,503.86698538199926,504.86714203299925,504.86714203299925,504.86714203299925,505.620737371999,left,0.7463196030003019,None,,,,,,,,876146,001,2024-11-28_11h46.23.089,Test,2024.2.1,60.012745867230606,2024-11-28 11h47.58.021293 +0100,
60,150,120,62,None,25,25,0,True,,,,left,1.8891433680000773,None,,,,,,,,,,,,,0,25,25,25,505.63881316699917,,,,,,,,,,,,,,,,,,,,,,,,,,,,,,,,,,,,,,,,,,,,,,,,,,,,,,,,,,,,,,,,,,,,,,,505.62630088899823,505.63881316699917,506.64990776599734,507.6336088459975,507.6336088459975,507.6336088459975,509.53559769399726,left,1.8891433680000773,None,,,,,,,,876146,001,2024-11-28_11h46.23.089,Test,2024.2.1,60.012745867230606,2024-11-28 11h47.58.021293 +0100,
16,150,90,44,None,26,26,0,False,,,,left,0.9464828540003509,None,,,,,,,,,,,,,0,26,26,26,509.55017757399764,,,,,,,,,,,,,,,,,,,,,,,,,,,,,,,,,,,,,,,,,,,,,,,,,,,,,,,,,,,,,,,,,,,,,,,509.54012568399776,509.55017757399764,510.55116038599954,511.55109536999953,511.55109536999953,511.55109536999953,512.5045429399979,left,0.9464828540003509,None,,,,,,,,876146,001,2024-11-28_11h46.23.089,Test,2024.2.1,60.012745867230606,2024-11-28 11h47.58.021293 +0100,
28,150,150,22,None,27,27,0,False,,,,right,1.4026871610003582,None,,,,,,,,,,,,,0,27,27,27,512.5177062509974,,,,,,,,,,,,,,,,,,,,,,,,,,,,,,,,,,,,,,,,,,,,,,,,,,,,,,,,,,,,,,,,,,,,,,,512.5092753539975,512.5177062509974,513.5179209790003,514.5181745549999,514.5181745549999,514.5181745549999,515.9357573239977,right,1.4026871610003582,None,,,,,,,,876146,001,2024-11-28_11h46.23.089,Test,2024.2.1,60.012745867230606,2024-11-28 11h47.58.021293 +0100,
17,150,90,39,None,28,28,0,False,,,,right,2.9279135530014173,None,,,,,,,,,,,,,0,28,28,28,515.9504002139984,,,,,,,,,,,,,,,,,,,,,,,,,,,,,,,,,,,,,,,,,,,,,,,,,,,,,,,,,,,,,,,,,,,,,,,515.9392195029977,515.9504002139984,516.951608348998,517.951223969998,517.951223969998,517.951223969998,520.8856618469981,right,2.9279135530014173,None,,,,,,,,876146,001,2024-11-28_11h46.23.089,Test,2024.2.1,60.012745867230606,2024-11-28 11h47.58.021293 +0100,
19,150,90,30,None,29,29,0,False,,,,left,0.7946683219997794,None,,,,,,,,,,,,,0,29,29,29,520.9001876170005,,,,,,,,,,,,,,,,,,,,,,,,,,,,,,,,,,,,,,,,,,,,,,,,,,,,,,,,,,,,,,,,,,,,,,,520.8891942779992,520.9001876170005,521.900744917999,522.9011709400002,522.9011709400002,522.9011709400002,523.7027825789992,left,0.7946683219997794,None,,,,,,,,876146,001,2024-11-28_11h46.23.089,Test,2024.2.1,60.012745867230606,2024-11-28 11h47.58.021293 +0100,
32,150,180,29,None,30,30,0,False,,,,right,0.9535363369977858,None,,,,,,,,,,,,,0,30,30,30,523.7170097339986,,,,,,,,,,,,,,,,,,,,,,,,,,,,,,,,,,,,,,,,,,,,,,,,,,,,,,,,,,,,,,,,,,,,,,,523.7063484989994,523.7170097339986,524.7187321279998,525.7003308879976,525.7003308879976,525.7003308879976,526.6695493799998,right,0.9535363369977858,None,,,,,,,,876146,001,2024-11-28_11h46.23.089,Test,2024.2.1,60.012745867230606,2024-11-28 11h47.58.021293 +0100,
21,150,120,50,None,31,31,0,False,,,,right,0.808338928000012,None,,,,,,,,,,,,,0,31,31,31,526.684217627997,,,,,,,,,,,,,,,,,,,,,,,,,,,,,,,,,,,,,,,,,,,,,,,,,,,,,,,,,,,,,,,,,,,,,,,526.6731974519971,526.684217627997,527.6856519789981,528.6845921259992,528.6845921259992,528.6845921259992,529.5042929129995,right,0.808338928000012,None,,,,,,,,876146,001,2024-11-28_11h46.23.089,Test,2024.2.1,60.012745867230606,2024-11-28 11h47.58.021293 +0100,
11,150,60,43,None,32,32,0,False,,,,left,1.1108091960013553,None,,,,,,,,,,,,,0,32,32,32,529.5180044939989,,,,,,,,,,,,,,,,,,,,,,,,,,,,,,,,,,,,,,,,,,,,,,,,,,,,,,,,,,,,,,,,,,,,,,,529.5081271939998,529.5180044939989,530.5183252209972,531.5189147889978,531.5189147889978,531.5189147889978,532.6384945919999,left,1.1108091960013553,None,,,,,,,,876146,001,2024-11-28_11h46.23.089,Test,2024.2.1,60.012745867230606,2024-11-28 11h47.58.021293 +0100,
67,150,180,9,None,33,33,0,True,,,,right,1.0231794310020632,None,,,,,,,,,,,,,0,33,33,33,532.6524262519997,,,,,,,,,,,,,,,,,,,,,,,,,,,,,,,,,,,,,,,,,,,,,,,,,,,,,,,,,,,,,,,,,,,,,,,532.6431008919972,532.6524262519997,533.6515345879998,534.6526990689999,534.6526990689999,534.6526990689999,535.686449220997,right,1.0231794310020632,None,,,,,,,,876146,001,2024-11-28_11h46.23.089,Test,2024.2.1,60.012745867230606,2024-11-28 11h47.58.021293 +0100,
57,150,120,14,None,34,34,0,True,,,,left,1.0475699790004,None,,,,,,,,,,,,,0,34,34,34,535.7014989529998,,,,,,,,,,,,,,,,,,,,,,,,,,,,,,,,,,,,,,,,,,,,,,,,,,,,,,,,,,,,,,,,,,,,,,,535.6901668609971,535.7014989529998,536.7026436140004,537.6859973039973,537.6859973039973,537.6859973039973,538.7375611299976,left,1.0475699790004,None,,,,,,,,876146,001,2024-11-28_11h46.23.089,Test,2024.2.1,60.012745867230606,2024-11-28 11h47.58.021293 +0100,
7,150,30,67,None,35,35,0,False,,,,left,1.1652709680020052,None,,,,,,,,,,,,,0,35,35,35,538.7514570059975,,,,,,,,,,,,,,,,,,,,,,,,,,,,,,,,,,,,,,,,,,,,,,,,,,,,,,,,,,,,,,,,,,,,,,,538.7408787579989,538.7514570059975,539.752265744999,540.7520620219984,540.7520620219984,540.7520620219984,541.9211879299983,left,1.1652709680020052,None,,,,,,,,876146,001,2024-11-28_11h46.23.089,Test,2024.2.1,60.012745867230606,2024-11-28 11h47.58.021293 +0100,
22,150,120,58,None,36,36,0,False,,,,right,0.895700951001345,None,,,,,,,,,,,,,0,36,36,36,541.9354090109991,,,,,,,,,,,,,,,,,,,,,,,,,,,,,,,,,,,,,,,,,,,,,,,,,,,,,,,,,,,,,,,,,,,,,,,541.9246322010003,541.9354090109991,542.9364859460002,543.9349376099999,543.9349376099999,543.9349376099999,544.8392044149987,right,0.895700951001345,None,,,,,,,,876146,001,2024-11-28_11h46.23.089,Test,2024.2.1,60.012745867230606,2024-11-28 11h47.58.021293 +0100,
27,150,150,6,None,37,37,0,False,,,,right,0.8258945429988671,None,,,,,,,,,,,,,0,37,37,37,544.8520408549994,,,,,,,,,,,,,,,,,,,,,,,,,,,,,,,,,,,,,,,,,,,,,,,,,,,,,,,,,,,,,,,,,,,,,,,544.8431480219988,544.8520408549994,545.8533383699978,546.8523847359975,546.8523847359975,546.8523847359975,547.6871104879974,right,0.8258945429988671,None,,,,,,,,876146,001,2024-11-28_11h46.23.089,Test,2024.2.1,60.012745867230606,2024-11-28 11h47.58.021293 +0100,
14,150,60,20,None,38,38,0,False,,,,left,0.7330302150003263,None,,,,,,,,,,,,,0,38,38,38,547.7029964079993,,,,,,,,,,,,,,,,,,,,,,,,,,,,,,,,,,,,,,,,,,,,,,,,,,,,,,,,,,,,,,,,,,,,,,,547.6907487639983,547.7029964079993,548.7027315089981,549.6867575679971,549.6867575679971,549.6867575679971,550.4221194069978,left,0.7330302150003263,None,,,,,,,,876146,001,2024-11-28_11h46.23.089,Test,2024.2.1,60.012745867230606,2024-11-28 11h47.58.021293 +0100,
3,150,0,35,None,39,39,0,False,,,,left,0.885025609000877,None,,,,,,,,,,,,,0,39,39,39,550.4355765509972,,,,,,,,,,,,,,,,,,,,,,,,,,,,,,,,,,,,,,,,,,,,,,,,,,,,,,,,,,,,,,,,,,,,,,,550.425605548,550.4355765509972,551.4361889009997,552.4369973249995,552.4369973249995,552.4369973249995,553.3370856189977,left,0.885025609000877,None,,,,,,,,876146,001,2024-11-28_11h46.23.089,Test,2024.2.1,60.012745867230606,2024-11-28 11h47.58.021293 +0100,
42,150,30,56,None,40,40,0,True,,,,right,1.1834989720009617,None,,,,,,,,,,,,,0,40,40,40,553.353218426997,,,,,,,,,,,,,,,,,,,,,,,,,,,,,,,,,,,,,,,,,,,,,,,,,,,,,,,,,,,,,,,,,,,,,,,553.340567168998,553.353218426997,554.3535370739992,555.3375739170006,555.3375739170006,555.3375739170006,556.53760607,right,1.1834989720009617,None,,,,,,,,876146,001,2024-11-28_11h46.23.089,Test,2024.2.1,60.012745867230606,2024-11-28 11h47.58.021293 +0100,
37,150,0,52,None,41,41,0,True,,,,left,0.7173899190020165,None,,,,,,,,,,,,,0,41,41,41,556.5534666399981,,,,,,,,,,,,,,,,,,,,,,,,,,,,,,,,,,,,,,,,,,,,,,,,,,,,,,,,,,,,,,,,,,,,,,,556.5412365999982,556.5534666399981,557.5542113709998,558.553645136999,558.553645136999,558.553645136999,559.2877675349991,left,0.7173899190020165,None,,,,,,,,876146,001,2024-11-28_11h46.23.089,Test,2024.2.1,60.012745867230606,2024-11-28 11h47.58.021293 +0100,
56,150,120,51,None,42,42,0,True,,,,left,1.0987308929979918,None,,,,,,,,,,,,,0,42,42,42,559.3029880089998,,,,,,,,,,,,,,,,,,,,,,,,,,,,,,,,,,,,,,,,,,,,,,,,,,,,,,,,,,,,,,,,,,,,,,,559.2921269219987,559.3029880089998,560.3044583519986,561.2874802499973,561.2874802499973,561.2874802499973,562.3916735629973,left,1.0987308929979918,None,,,,,,,,876146,001,2024-11-28_11h46.23.089,Test,2024.2.1,60.012745867230606,2024-11-28 11h47.58.021293 +0100,
59,150,120,11,None,43,43,0,True,,,,left,1.8817003370022576,None,,,,,,,,,,,,,0,43,43,43,562.4065716330006,,,,,,,,,,,,,,,,,,,,,,,,,,,,,,,,,,,,,,,,,,,,,,,,,,,,,,,,,,,,,,,,,,,,,,,562.3972045619994,562.4065716330006,563.4210363579987,564.4036963129984,564.4036963129984,564.4036963129984,566.2915871669975,left,1.8817003370022576,None,,,,,,,,876146,001,2024-11-28_11h46.23.089,Test,2024.2.1,60.012745867230606,2024-11-28 11h47.58.021293 +0100,
30,150,150,2,None,44,44,0,False,,,,right,0.6422488979987975,None,,,,,,,,,,,,,0,44,44,44,566.3058344929996,,,,,,,,,,,,,,,,,,,,,,,,,,,,,,,,,,,,,,,,,,,,,,,,,,,,,,,,,,,,,,,,,,,,,,,566.297060203,566.3058344929996,567.3216962659972,568.3050989049989,568.3050989049989,568.3050989049989,568.9572410059991,right,0.6422488979987975,None,,,,,,,,876146,001,2024-11-28_11h46.23.089,Test,2024.2.1,60.012745867230606,2024-11-28 11h47.58.021293 +0100,
43,150,30,4,None,45,45,0,True,,,,left,1.0197528850003437,None,,,,,,,,,,,,,0,45,45,45,568.9702595790004,,,,,,,,,,,,,,,,,,,,,,,,,,,,,,,,,,,,,,,,,,,,,,,,,,,,,,,,,,,,,,,,,,,,,,,568.9611930729989,568.9702595790004,569.9718634009987,570.971551573999,570.971551573999,570.971551573999,572.0065446939989,left,1.0197528850003437,None,,,,,,,,876146,001,2024-11-28_11h46.23.089,Test,2024.2.1,60.012745867230606,2024-11-28 11h47.58.021293 +0100,
45,150,30,60,None,46,46,0,True,,,,left,0.9348482840032375,None,,,,,,,,,,,,,0,46,46,46,572.0203981339982,,,,,,,,,,,,,,,,,,,,,,,,,,,,,,,,,,,,,,,,,,,,,,,,,,,,,,,,,,,,,,,,,,,,,,,572.010234860998,572.0203981339982,573.0213039159971,574.0217584899983,574.0217584899983,574.0217584899983,574.9730568880004,left,0.9348482840032375,None,,,,,,,,876146,001,2024-11-28_11h46.23.089,Test,2024.2.1,60.012745867230606,2024-11-28 11h47.58.021293 +0100,
5,150,0,34,None,47,47,0,False,,,,left,0.8172376330003317,None,,,,,,,,,,,,,0,47,47,47,574.9873113289977,,,,,,,,,,,,,,,,,,,,,,,,,,,,,,,,,,,,,,,,,,,,,,,,,,,,,,,,,,,,,,,,,,,,,,,574.9763548329975,574.9873113289977,575.9890007699978,576.972282642997,576.972282642997,576.972282642997,577.793070503998,left,0.8172376330003317,None,,,,,,,,876146,001,2024-11-28_11h46.23.089,Test,2024.2.1,60.012745867230606,2024-11-28 11h47.58.021293 +0100,
44,150,30,19,None,48,48,0,True,,,,left,1.3191589920024853,None,,,,,,,,,,,,,0,48,48,48,577.8204410069993,,,,,,,,,,,,,,,,,,,,,,,,,,,,,,,,,,,,,,,,,,,,,,,,,,,,,,,,,,,,,,,,,,,,,,,577.7973537609978,577.8204410069993,578.821775045999,579.805654724998,579.805654724998,579.805654724998,581.1405538260005,left,1.3191589920024853,None,,,,,,,,876146,001,2024-11-28_11h46.23.089,Test,2024.2.1,60.012745867230606,2024-11-28 11h47.58.021293 +0100,
64,150,150,47,None,49,49,0,True,,,,left,0.9358414399976027,None,,,,,,,,,,,,,0,49,49,49,581.1543056519986,,,,,,,,,,,,,,,,,,,,,,,,,,,,,,,,,,,,,,,,,,,,,,,,,,,,,,,,,,,,,,,,,,,,,,,581.1442332099978,581.1543056519986,582.1560907569983,583.155803005,583.155803005,583.155803005,584.1065228849984,left,0.9358414399976027,None,,,,,,,,876146,001,2024-11-28_11h46.23.089,Test,2024.2.1,60.012745867230606,2024-11-28 11h47.58.021293 +0100,
23,150,120,59,None,50,50,0,False,,,,left,0.750099204997241,None,,,,,,,,,,,,,0,50,50,50,584.1219945060002,,,,,,,,,,,,,,,,,,,,,,,,,,,,,,,,,,,,,,,,,,,,,,,,,,,,,,,,,,,,,,,,,,,,,,,584.1098934330003,584.1219945060002,585.1226817759998,586.1051991459972,586.1051991459972,586.1051991459972,586.8602179409972,left,0.750099204997241,None,,,,,,,,876146,001,2024-11-28_11h46.23.089,Test,2024.2.1,60.012745867230606,2024-11-28 11h47.58.021293 +0100,
68,150,180,61,None,51,51,0,True,,,,left,1.8401498809980694,None,,,,,,,,,,,,,0,51,51,51,586.8736054019973,,,,,,,,,,,,,,,,,,,,,,,,,,,,,,,,,,,,,,,,,,,,,,,,,,,,,,,,,,,,,,,,,,,,,,,586.8649136259992,586.8736054019973,587.8730191689974,588.8721002450002,588.8721002450002,588.8721002450002,590.7245192720002,left,1.8401498809980694,None,,,,,,,,876146,001,2024-11-28_11h46.23.089,Test,2024.2.1,60.012745867230606,2024-11-28 11h47.58.021293 +0100,
52,150,90,57,None,52,52,0,True,,,,right,1.1194754999996803,None,,,,,,,,,,,,,0,52,52,52,590.7390243539994,,,,,,,,,,,,,,,,,,,,,,,,,,,,,,,,,,,,,,,,,,,,,,,,,,,,,,,,,,,,,,,,,,,,,,,590.7281201949991,590.7390243539994,591.7396442770005,592.7394690999972,592.7394690999972,592.7394690999972,593.873833196998,right,1.1194754999996803,None,,,,,,,,876146,001,2024-11-28_11h46.23.089,Test,2024.2.1,60.012745867230606,2024-11-28 11h47.58.021293 +0100,
70,150,180,24,None,53,53,0,True,,,,left,0.6528768589996616,None,,,,,,,,,,,,,0,53,53,53,593.8886097799987,,,,,,,,,,,,,,,,,,,,,,,,,,,,,,,,,,,,,,,,,,,,,,,,,,,,,,,,,,,,,,,,,,,,,,,593.8773350569973,593.8886097799987,594.8894920719977,595.8892630800001,595.8892630800001,595.8892630800001,596.5574553029983,left,0.6528768589996616,None,,,,,,,,876146,001,2024-11-28_11h46.23.089,Test,2024.2.1,60.012745867230606,2024-11-28 11h47.58.021293 +0100,
2,150,0,37,None,54,54,0,False,,,,left,0.689730383001006,None,,,,,,,,,,,,,0,54,54,54,596.5724870429985,,,,,,,,,,,,,,,,,,,,,,,,,,,,,,,,,,,,,,,,,,,,,,,,,,,,,,,,,,,,,,,,,,,,,,,596.5610050199975,596.5724870429985,597.5735323759982,598.5731270559991,598.5731270559991,598.5731270559991,599.2762103819987,left,0.689730383001006,None,,,,,,,,876146,001,2024-11-28_11h46.23.089,Test,2024.2.1,60.012745867230606,2024-11-28 11h47.58.021293 +0100,
6,150,30,26,None,55,55,0,False,,,,left,2.527457399999548,None,,,,,,,,,,,,,0,55,55,55,599.2927008089973,,,,,,,,,,,,,,,,,,,,,,,,,,,,,,,,,,,,,,,,,,,,,,,,,,,,,,,,,,,,,,,,,,,,,,,599.2828993939984,599.2927008089973,600.3067940119981,601.2904878759982,601.2904878759982,601.2904878759982,603.8246713219996,left,2.527457399999548,None,,,,,,,,876146,001,2024-11-28_11h46.23.089,Test,2024.2.1,60.012745867230606,2024-11-28 11h47.58.021293 +0100,
24,150,120,64,None,56,56,0,False,,,,left,0.9900287700002082,None,,,,,,,,,,,,,0,56,56,56,603.8396473739995,,,,,,,,,,,,,,,,,,,,,,,,,,,,,,,,,,,,,,,,,,,,,,,,,,,,,,,,,,,,,,,,,,,,,,,603.8280813469974,603.8396473739995,604.8411173629975,605.8240964959987,605.8240964959987,605.8240964959987,606.8253660800001,left,0.9900287700002082,None,,,,,,,,876146,001,2024-11-28_11h46.23.089,Test,2024.2.1,60.012745867230606,2024-11-28 11h47.58.021293 +0100,
46,150,60,63,None,57,57,0,True,,,,left,0.9321033320011338,None,,,,,,,,,,,,,0,57,57,57,606.8396051999989,,,,,,,,,,,,,,,,,,,,,,,,,,,,,,,,,,,,,,,,,,,,,,,,,,,,,,,,,,,,,,,,,,,,,,,606.8292977839992,606.8396051999989,607.8409447630002,608.841591163,608.841591163,608.841591163,609.776118460999,left,0.9321033320011338,None,,,,,,,,876146,001,2024-11-28_11h46.23.089,Test,2024.2.1,60.012745867230606,2024-11-28 11h47.58.021293 +0100,
62,150,150,53,None,58,58,0,True,,,,left,1.234238003999053,None,,,,,,,,,,,,,0,58,58,58,609.7898285439987,,,,,,,,,,,,,,,,,,,,,,,,,,,,,,,,,,,,,,,,,,,,,,,,,,,,,,,,,,,,,,,,,,,,,,,609.7795301240003,609.7898285439987,610.7907685110004,611.7912659769972,611.7912659769972,611.7912659769972,613.0293423479998,left,1.234238003999053,None,,,,,,,,876146,001,2024-11-28_11h46.23.089,Test,2024.2.1,60.012745867230606,2024-11-28 11h47.58.021293 +0100,
15,150,60,21,None,59,59,0,False,,,,right,1.0023953249983606,None,,,,,,,,,,,,,0,59,59,59,613.0425031829982,,,,,,,,,,,,,,,,,,,,,,,,,,,,,,,,,,,,,,,,,,,,,,,,,,,,,,,,,,,,,,,,,,,,,,,613.0338013649998,613.0425031829982,614.0413604339992,615.0414928639984,615.0414928639984,615.0414928639984,616.058878099997,right,1.0023953249983606,None,,,,,,,,876146,001,2024-11-28_11h46.23.089,Test,2024.2.1,60.012745867230606,2024-11-28 11h47.58.021293 +0100,
53,150,90,16,None,60,60,0,True,,,,left,0.7477337160016759,None,,,,,,,,,,,,,0,60,60,60,616.0741316249987,,,,,,,,,,,,,,,,,,,,,,,,,,,,,,,,,,,,,,,,,,,,,,,,,,,,,,,,,,,,,,,,,,,,,,,616.0625873289973,616.0741316249987,617.0749344709984,618.0582504189988,618.0582504189988,618.0582504189988,618.8119665019985,left,0.7477337160016759,None,,,,,,,,876146,001,2024-11-28_11h46.23.089,Test,2024.2.1,60.012745867230606,2024-11-28 11h47.58.021293 +0100,
10,150,30,46,None,61,61,0,False,,,,left,0.6432704199978616,None,,,,,,,,,,,,,0,61,61,61,618.8252002759982,,,,,,,,,,,,,,,,,,,,,,,,,,,,,,,,,,,,,,,,,,,,,,,,,,,,,,,,,,,,,,,,,,,,,,,618.8162522549974,618.8252002759982,619.8407909119996,620.8250430349981,620.8250430349981,620.8250430349981,621.4776517139981,left,0.6432704199978616,None,,,,,,,,876146,001,2024-11-28_11h46.23.089,Test,2024.2.1,60.012745867230606,2024-11-28 11h47.58.021293 +0100,
40,150,0,13,None,62,62,0,True,,,,left,0.7177922150003724,None,,,,,,,,,,,,,0,62,62,62,621.4909246539974,,,,,,,,,,,,,,,,,,,,,,,,,,,,,,,,,,,,,,,,,,,,,,,,,,,,,,,,,,,,,,,,,,,,,,,621.4818650529996,621.4909246539974,622.492047683998,623.4914000319986,623.4914000319986,623.4914000319986,624.2259606919979,left,0.7177922150003724,None,,,,,,,,876146,001,2024-11-28_11h46.23.089,Test,2024.2.1,60.012745867230606,2024-11-28 11h47.58.021293 +0100,
1,150,0,25,None,63,63,0,False,,,,left,0.7702628039987758,None,,,,,,,,,,,,,0,63,63,63,624.240881914,,,,,,,,,,,,,,,,,,,,,,,,,,,,,,,,,,,,,,,,,,,,,,,,,,,,,,,,,,,,,,,,,,,,,,,624.2294695659984,624.240881914,625.2420600829973,626.2254689410001,626.2254689410001,626.2254689410001,627.0103769969974,left,0.7702628039987758,None,,,,,,,,876146,001,2024-11-28_11h46.23.089,Test,2024.2.1,60.012745867230606,2024-11-28 11h47.58.021293 +0100,
8,150,30,23,None,64,64,0,False,,,,right,0.9194388510004501,None,,,,,,,,,,,,,0,64,64,64,627.0241939869993,,,,,,,,,,,,,,,,,,,,,,,,,,,,,,,,,,,,,,,,,,,,,,,,,,,,,,,,,,,,,,,,,,,,,,,627.0140539649983,627.0241939869993,628.0252463500001,629.0258154039984,629.0258154039984,629.0258154039984,629.9599691799995,right,0.9194388510004501,None,,,,,,,,876146,001,2024-11-28_11h46.23.089,Test,2024.2.1,60.012745867230606,2024-11-28 11h47.58.021293 +0100,
48,150,60,3,None,65,65,0,True,,,,left,0.8632111250008165,None,,,,,,,,,,,,,0,65,65,65,629.9744766570002,,,,,,,,,,,,,,,,,,,,,,,,,,,,,,,,,,,,,,,,,,,,,,,,,,,,,,,,,,,,,,,,,,,,,,,629.9635356029976,629.9744766570002,630.9758818390001,631.9593304359987,631.9593304359987,631.9593304359987,632.8293602509984,left,0.8632111250008165,None,,,,,,,,876146,001,2024-11-28_11h46.23.089,Test,2024.2.1,60.012745867230606,2024-11-28 11h47.58.021293 +0100,
51,150,90,8,None,66,66,0,True,,,,left,0.9004626880014257,None,,,,,,,,,,,,,0,66,66,66,632.8432133280003,,,,,,,,,,,,,,,,,,,,,,,,,,,,,,,,,,,,,,,,,,,,,,,,,,,,,,,,,,,,,,,,,,,,,,,632.8339735869995,632.8432133280003,633.842069610997,634.8432744739985,634.8432744739985,634.8432744739985,635.761016870998,left,0.9004626880014257,None,,,,,,,,876146,001,2024-11-28_11h46.23.089,Test,2024.2.1,60.012745867230606,2024-11-28 11h47.58.021293 +0100,
25,150,120,40,None,67,67,0,False,,,,right,0.938792069999181,None,,,,,,,,,,,,,0,67,67,67,635.7755677860005,,,,,,,,,,,,,,,,,,,,,,,,,,,,,,,,,,,,,,,,,,,,,,,,,,,,,,,,,,,,,,,,,,,,,,,635.764552572,635.7755677860005,636.7761067190004,637.7761505529998,637.7761505529998,637.7761505529998,638.7275235790003,right,0.938792069999181,None,,,,,,,,876146,001,2024-11-28_11h46.23.089,Test,2024.2.1,60.012745867230606,2024-11-28 11h47.58.021293 +0100,
4,150,0,27,None,68,68,0,False,,,,left,0.7056737189996056,None,,,,,,,,,,,,,0,68,68,68,638.7420033889975,,,,,,,,,,,,,,,,,,,,,,,,,,,,,,,,,,,,,,,,,,,,,,,,,,,,,,,,,,,,,,,,,,,,,,,638.7311999220001,638.7420033889975,639.7430523289986,640.7427299539995,640.7427299539995,640.7427299539995,641.4610379669975,left,0.7056737189996056,None,,,,,,,,876146,001,2024-11-28_11h46.23.089,Test,2024.2.1,60.012745867230606,2024-11-28 11h47.58.021293 +0100,
18,150,90,28,None,69,69,0,False,,,,right,1.0373010909970617,None,,,,,,,,,,,,,0,69,69,69,641.4751009869979,,,,,,,,,,,,,,,,,,,,,,,,,,,,,,,,,,,,,,,,,,,,,,,,,,,,,,,,,,,,,,,,,,,,,,,641.464752508,641.4751009869979,642.4766052019986,643.4773843009971,643.4773843009971,643.4773843009971,644.5275377949984,right,1.0373010909970617,None,,,,,,,,876146,001,2024-11-28_11h46.23.089,Test,2024.2.1,60.012745867230606,2024-11-28 11h47.58.021293 +0100,
,,,,,,,,,,,,,,,,,,,,,,,,,,,,,,,,,,,,,,,,,,,,,,,,,,,,,,,,,,,,,,,,,,,,,,,,,,,,,,,,,,,,,,,,,,,,,,,,,,,,,,,,,,,,,,,,644.5277085719972,644.5426695969982,644.5426695969982,648.7609690270001,space,4.201368674999685,None,876146,001,2024-11-28_11h46.23.089,Test,2024.2.1,60.012745867230606,2024-11-28 11h47.58.021293 +0100,
