Trial_Number,Exposure_Duration,Displacement_Angle,Stimulus,Response,thisN,thisTrialN,thisRepN,Is_Distractor,key_resp_3.keys,key_resp_3.rt,key_resp_3.duration,key_resp_7.keys,key_resp_7.rt,key_resp_7.duration,trials.thisRepN,trials.thisTrialN,trials.thisN,trials.thisIndex,trials_2.thisRepN,trials_2.thisTrialN,trials_2.thisN,trials_2.thisIndex,trials_3.thisRepN,trials_3.thisTrialN,trials_3.thisN,trials_3.thisIndex,trials_4.thisRepN,trials_4.thisTrialN,trials_4.thisN,trials_4.thisIndex,thisRow.t,notes,Intro_to_experiment.started,important1_2.started,key_resp_8.started,Intro_to_experiment.stopped,key_resp_8.keys,key_resp_8.rt,key_resp_8.duration,important.started,important1.started,key_resp_4.started,important.stopped,key_resp_4.keys,key_resp_4.rt,key_resp_4.duration,training_instruction.started,key_resp_9.started,important1_3.started,training_instruction.stopped,key_resp_9.keys,key_resp_9.rt,key_resp_9.duration,training_trial.started,cross.started,image.started,aperture.started,cross.stopped,image.stopped,aperture.stopped,training_trial.stopped,New_instruction.started,text.started,key_resp_2.started,New_instruction.stopped,key_resp_2.keys,key_resp_2.rt,key_resp_2.duration,test_trial.started,cross2.started,cross2.stopped,image_2.started,key_resp_3.started,aperture_2.started,test_trial.stopped,trials_2.key_resp_3.keys,trials_2.key_resp_3.rt,trials_2.key_resp_3.duration,start_blok_2.started,key_resp_5.started,text_4.started,start_blok_2.stopped,key_resp_5.keys,key_resp_5.rt,key_resp_5.duration,training_2.started,cross_2.started,image_3.started,aperture_3.started,cross_2.stopped,image_3.stopped,aperture_3.stopped,training_2.stopped,nyeste_instruks.started,text_5.started,key_resp_6.started,nyeste_instruks.stopped,key_resp_6.keys,key_resp_6.rt,key_resp_6.duration,test_2.started,cross2_2.started,cross2_2.stopped,image_4.started,key_resp_7.started,aperture_4.started,test_2.stopped,trials_4.key_resp_7.keys,trials_4.key_resp_7.rt,trials_4.key_resp_7.duration,Instruction.started,Instruktion.started,key_resp.started,Instruction.stopped,key_resp.keys,key_resp.rt,key_resp.duration,participant,session,date,expName,psychopyVersion,frameRate,expStart,
,,,,,,,,,,,,,,,,,,,,,,,,,,,,,,,,,0.005931125022470951,0.0140008750022389,0.0140008750022389,177.63184679101687,space,177.57885424999404,None,,,,,,,,,,,,,,,,,,,,,,,,,,,,,,,,,,,,,,,,,,,,,,,,,,,,,,,,,,,,,,,,,,,,,,,,,,,,,,,895007,001,2024-11-28_15h54.28.907,Test,2024.2.4,None,2024-11-28 15h54.37.589600 +0100,
,,,,,,,,,,,,,,,,,,,,,,,,,,,,,,,,,,,,,,,,177.6319300410105,177.65897933300585,177.65897933300585,194.20348895800998,space,16.535878959024558,None,,,,,,,,,,,,,,,,,,,,,,,,,,,,,,,,,,,,,,,,,,,,,,,,,,,,,,,,,,,,,,,,,,,,,,,,895007,001,2024-11-28_15h54.28.907,Test,2024.2.4,None,2024-11-28 15h54.37.589600 +0100,
,,,,,,,,,,,,,,,,,,,,,,,,,,,,,,,,,,,,,,,,,,,,,,,194.2035890830157,194.22363054100424,194.22363054100424,204.71991720801452,space,10.487653249991126,None,,,,,,,,,,,,,,,,,,,,,,,,,,,,,,,,,,,,,,,,,,,,,,,,,,,,,,,,,,,,,,,,,895007,001,2024-11-28_15h54.28.907,Test,2024.2.4,None,2024-11-28 15h54.37.589600 +0100,
21,150,120,27,None,0,0,0,,,,,,,,0,0,0,20,,,,,,,,,,,,,204.75696941601927,,,,,,,,,,,,,,,,,,,,,,,204.7484887500177,204.75696941601927,204.9180911660078,204.9180911660078,204.95143225000356,206.61703891601064,206.61703891601064,206.6022360000061,,,,,,,,,,,,,,,,,,,,,,,,,,,,,,,,,,,,,,,,,,,,,,,,,,,,,,,,,895007,001,2024-11-28_15h54.28.907,Test,2024.2.4,None,2024-11-28 15h54.37.589600 +0100,
10,150,30,57,None,1,1,0,,,,,,,,0,1,1,9,,,,,,,,,,,,,206.61703891601064,,,,,,,,,,,,,,,,,,,,,,,206.61247633301537,206.63466495802277,206.81794279100723,206.81794279100723,206.8239848750236,208.51670129102422,208.51670129102422,208.50224083301146,,,,,,,,,,,,,,,,,,,,,,,,,,,,,,,,,,,,,,,,,,,,,,,,,,,,,,,,,895007,001,2024-11-28_15h54.28.907,Test,2024.2.4,None,2024-11-28 15h54.37.589600 +0100,
23,150,120,9,None,2,2,0,,,,,,,,0,2,2,22,,,,,,,,,,,,,208.51670129102422,,,,,,,,,,,,,,,,,,,,,,,208.51174595800694,208.52060362501652,208.71650608300115,208.71650608300115,208.71650608300115,210.416784208006,210.416784208006,210.40245754100033,,,,,,,,,,,,,,,,,,,,,,,,,,,,,,,,,,,,,,,,,,,,,,,,,,,,,,,,,895007,001,2024-11-28_15h54.28.907,Test,2024.2.4,None,2024-11-28 15h54.37.589600 +0100,
6,150,30,3,None,3,3,0,,,,,,,,0,3,3,5,,,,,,,,,,,,,210.416784208006,,,,,,,,,,,,,,,,,,,,,,,210.41176629101392,210.4208693750261,210.6181168750045,210.6181168750045,210.6181168750045,212.31649370800005,212.31649370800005,212.30217520802398,,,,,,,,,,,,,,,,,,,,,,,,,,,,,,,,,,,,,,,,,,,,,,,,,,,,,,,,,895007,001,2024-11-28_15h54.28.907,Test,2024.2.4,None,2024-11-28 15h54.37.589600 +0100,
16,150,90,51,None,4,4,0,,,,,,,,0,4,4,15,,,,,,,,,,,,,212.31649370800005,,,,,,,,,,,,,,,,,,,,,,,212.31143645802513,212.3215984160197,212.51820658301585,212.51820658301585,212.51820658301585,214.21781125001144,214.21781125001144,214.20247112499783,,,,,,,,,,,,,,,,,,,,,,,,,,,,,,,,,,,,,,,,,,,,,,,,,,,,,,,,,895007,001,2024-11-28_15h54.28.907,Test,2024.2.4,None,2024-11-28 15h54.37.589600 +0100,
24,150,120,18,None,5,5,0,,,,,,,,0,5,5,23,,,,,,,,,,,,,214.21781125001144,,,,,,,,,,,,,,,,,,,,,,,214.21299458300928,214.22222666602465,214.41803541601985,214.41803541601985,214.41803541601985,216.11609787499765,216.11609787499765,216.10216362500796,,,,,,,,,,,,,,,,,,,,,,,,,,,,,,,,,,,,,,,,,,,,,,,,,,,,,,,,,895007,001,2024-11-28_15h54.28.907,Test,2024.2.4,None,2024-11-28 15h54.37.589600 +0100,
34,150,180,54,None,6,6,0,,,,,,,,0,6,6,33,,,,,,,,,,,,,216.11609787499765,,,,,,,,,,,,,,,,,,,,,,,216.1111583750171,216.12002616599784,216.3179925410077,216.3179925410077,216.3179925410077,218.01668562501436,218.01668562501436,218.002520250011,,,,,,,,,,,,,,,,,,,,,,,,,,,,,,,,,,,,,,,,,,,,,,,,,,,,,,,,,895007,001,2024-11-28_15h54.28.907,Test,2024.2.4,None,2024-11-28 15h54.37.589600 +0100,
2,150,0,1,None,7,7,0,,,,,,,,0,7,7,1,,,,,,,,,,,,,218.01668562501436,,,,,,,,,,,,,,,,,,,,,,,218.01135429102578,218.02063908299897,218.21801295800833,218.21801295800833,218.21801295800833,219.91678508301266,219.91678508301266,219.9020148749987,,,,,,,,,,,,,,,,,,,,,,,,,,,,,,,,,,,,,,,,,,,,,,,,,,,,,,,,,895007,001,2024-11-28_15h54.28.907,Test,2024.2.4,None,2024-11-28 15h54.37.589600 +0100,
11,150,60,44,None,8,8,0,,,,,,,,0,8,8,10,,,,,,,,,,,,,219.91678508301266,,,,,,,,,,,,,,,,,,,,,,,219.91170083300676,219.9205342500063,220.11817020800663,220.11817020800663,220.11817020800663,221.8168522909982,221.8168522909982,221.80243579100352,,,,,,,,,,,,,,,,,,,,,,,,,,,,,,,,,,,,,,,,,,,,,,,,,,,,,,,,,895007,001,2024-11-28_15h54.28.907,Test,2024.2.4,None,2024-11-28 15h54.37.589600 +0100,
12,150,60,46,None,9,9,0,,,,,,,,0,9,9,11,,,,,,,,,,,,,221.8168522909982,,,,,,,,,,,,,,,,,,,,,,,221.81185058300616,221.82137837502523,222.0179996250081,222.0179996250081,222.0179996250081,223.71651316600037,223.71651316600037,223.70213987500756,,,,,,,,,,,,,,,,,,,,,,,,,,,,,,,,,,,,,,,,,,,,,,,,,,,,,,,,,895007,001,2024-11-28_15h54.28.907,Test,2024.2.4,None,2024-11-28 15h54.37.589600 +0100,
20,150,90,33,None,10,10,0,,,,,,,,0,10,10,19,,,,,,,,,,,,,223.71651316600037,,,,,,,,,,,,,,,,,,,,,,,223.71153858301113,223.72129129100358,223.91809341602493,223.91809341602493,223.91809341602493,225.6166690410173,225.6166690410173,225.60221337500843,,,,,,,,,,,,,,,,,,,,,,,,,,,,,,,,,,,,,,,,,,,,,,,,,,,,,,,,,895007,001,2024-11-28_15h54.28.907,Test,2024.2.4,None,2024-11-28 15h54.37.589600 +0100,
4,150,0,35,None,11,11,0,,,,,,,,0,11,11,3,,,,,,,,,,,,,225.6166690410173,,,,,,,,,,,,,,,,,,,,,,,225.61152875001426,225.6205885000236,225.8179577080009,225.8179577080009,225.8179577080009,227.5164937080117,227.5164937080117,227.50247016601497,,,,,,,,,,,,,,,,,,,,,,,,,,,,,,,,,,,,,,,,,,,,,,,,,,,,,,,,,895007,001,2024-11-28_15h54.28.907,Test,2024.2.4,None,2024-11-28 15h54.37.589600 +0100,
8,150,30,26,None,12,12,0,,,,,,,,0,12,12,7,,,,,,,,,,,,,227.5164937080117,,,,,,,,,,,,,,,,,,,,,,,227.51152404100867,227.52044912500423,227.7180651250237,227.7180651250237,227.7180651250237,229.41600779100554,229.41600779100554,229.40235458299867,,,,,,,,,,,,,,,,,,,,,,,,,,,,,,,,,,,,,,,,,,,,,,,,,,,,,,,,,895007,001,2024-11-28_15h54.28.907,Test,2024.2.4,None,2024-11-28 15h54.37.589600 +0100,
33,150,180,12,None,13,13,0,,,,,,,,0,13,13,32,,,,,,,,,,,,,229.41600779100554,,,,,,,,,,,,,,,,,,,,,,,229.4109932499996,229.42100595802185,229.61808316601673,229.61808316601673,229.61808316601673,231.31665016600164,231.31665016600164,231.3023015409999,,,,,,,,,,,,,,,,,,,,,,,,,,,,,,,,,,,,,,,,,,,,,,,,,,,,,,,,,895007,001,2024-11-28_15h54.28.907,Test,2024.2.4,None,2024-11-28 15h54.37.589600 +0100,
3,150,0,14,None,14,14,0,,,,,,,,0,14,14,2,,,,,,,,,,,,,231.31665016600164,,,,,,,,,,,,,,,,,,,,,,,231.3117556660145,231.3214177500049,231.51798675002647,231.51798675002647,231.51798675002647,233.2162481660198,233.2162481660198,233.20232445801958,,,,,,,,,,,,,,,,,,,,,,,,,,,,,,,,,,,,,,,,,,,,,,,,,,,,,,,,,895007,001,2024-11-28_15h54.28.907,Test,2024.2.4,None,2024-11-28 15h54.37.589600 +0100,
18,150,90,38,None,15,15,0,,,,,,,,0,15,15,17,,,,,,,,,,,,,233.2162481660198,,,,,,,,,,,,,,,,,,,,,,,233.21130141601316,233.22106270800577,233.41806183301378,233.41806183301378,233.41806183301378,235.1156924579991,235.1156924579991,235.1021961660008,,,,,,,,,,,,,,,,,,,,,,,,,,,,,,,,,,,,,,,,,,,,,,,,,,,,,,,,,895007,001,2024-11-28_15h54.28.907,Test,2024.2.4,None,2024-11-28 15h54.37.589600 +0100,
15,150,60,23,None,16,16,0,,,,,,,,0,16,16,14,,,,,,,,,,,,,235.1156924579991,,,,,,,,,,,,,,,,,,,,,,,235.11067579101655,235.1201810000057,235.31799262500135,235.31799262500135,235.31799262500135,237.01648470800137,237.01648470800137,237.0022914580186,,,,,,,,,,,,,,,,,,,,,,,,,,,,,,,,,,,,,,,,,,,,,,,,,,,,,,,,,895007,001,2024-11-28_15h54.28.907,Test,2024.2.4,None,2024-11-28 15h54.37.589600 +0100,
9,150,30,30,None,17,17,0,,,,,,,,0,17,17,8,,,,,,,,,,,,,237.01648470800137,,,,,,,,,,,,,,,,,,,,,,,237.01134175001062,237.02131741601625,237.21797333299764,237.21797333299764,237.21797333299764,238.9167670410243,238.9167670410243,238.90262729101232,,,,,,,,,,,,,,,,,,,,,,,,,,,,,,,,,,,,,,,,,,,,,,,,,,,,,,,,,895007,001,2024-11-28_15h54.28.907,Test,2024.2.4,None,2024-11-28 15h54.37.589600 +0100,
35,150,180,45,None,18,18,0,,,,,,,,0,18,18,34,,,,,,,,,,,,,238.9167670410243,,,,,,,,,,,,,,,,,,,,,,,238.91168579101213,238.92160137501196,239.11806508302107,239.11806508302107,239.11806508302107,240.81593025001348,240.81593025001348,240.8021728330059,,,,,,,,,,,,,,,,,,,,,,,,,,,,,,,,,,,,,,,,,,,,,,,,,,,,,,,,,895007,001,2024-11-28_15h54.28.907,Test,2024.2.4,None,2024-11-28 15h54.37.589600 +0100,
26,150,150,62,None,19,19,0,,,,,,,,0,19,19,25,,,,,,,,,,,,,240.81593025001348,,,,,,,,,,,,,,,,,,,,,,,240.8109285410028,240.82088395801838,241.01823524999782,241.01823524999782,241.01823524999782,242.7162500830018,242.7162500830018,242.70230383300805,,,,,,,,,,,,,,,,,,,,,,,,,,,,,,,,,,,,,,,,,,,,,,,,,,,,,,,,,895007,001,2024-11-28_15h54.28.907,Test,2024.2.4,None,2024-11-28 15h54.37.589600 +0100,
13,150,60,40,None,20,20,0,,,,,,,,0,20,20,12,,,,,,,,,,,,,242.7162500830018,,,,,,,,,,,,,,,,,,,,,,,242.71126591600478,242.72030154100503,242.91806024999823,242.91806024999823,242.91806024999823,244.6158839580021,244.6158839580021,244.6023037910054,,,,,,,,,,,,,,,,,,,,,,,,,,,,,,,,,,,,,,,,,,,,,,,,,,,,,,,,,895007,001,2024-11-28_15h54.28.907,Test,2024.2.4,None,2024-11-28 15h54.37.589600 +0100,
7,150,30,66,None,21,21,0,,,,,,,,0,21,21,6,,,,,,,,,,,,,244.6158839580021,,,,,,,,,,,,,,,,,,,,,,,244.61099016602384,244.62005062500248,244.81812983300188,244.81812983300188,244.81812983300188,246.51662583299913,246.51662583299913,246.50254829099867,,,,,,,,,,,,,,,,,,,,,,,,,,,,,,,,,,,,,,,,,,,,,,,,,,,,,,,,,895007,001,2024-11-28_15h54.28.907,Test,2024.2.4,None,2024-11-28 15h54.37.589600 +0100,
30,150,150,11,None,22,22,0,,,,,,,,0,22,22,29,,,,,,,,,,,,,246.51662583299913,,,,,,,,,,,,,,,,,,,,,,,246.5116505830083,246.52066716601257,246.71795916600968,246.71795916600968,246.71795916600968,248.41719108301913,248.41719108301913,248.40235216601286,,,,,,,,,,,,,,,,,,,,,,,,,,,,,,,,,,,,,,,,,,,,,,,,,,,,,,,,,895007,001,2024-11-28_15h54.28.907,Test,2024.2.4,None,2024-11-28 15h54.37.589600 +0100,
5,150,0,15,None,23,23,0,,,,,,,,0,23,23,4,,,,,,,,,,,,,248.41719108301913,,,,,,,,,,,,,,,,,,,,,,,248.4122358750028,248.4212193750136,248.61706666601822,248.61706666601822,248.61706666601822,250.3163594159996,250.3163594159996,250.30239158301265,,,,,,,,,,,,,,,,,,,,,,,,,,,,,,,,,,,,,,,,,,,,,,,,,,,,,,,,,895007,001,2024-11-28_15h54.28.907,Test,2024.2.4,None,2024-11-28 15h54.37.589600 +0100,
31,150,180,29,None,24,24,0,,,,,,,,0,24,24,30,,,,,,,,,,,,,250.3163594159996,,,,,,,,,,,,,,,,,,,,,,,250.31161595802405,250.3201391660259,250.5179711660021,250.5179711660021,250.5179711660021,252.21575766601018,252.21575766601018,252.20234141600667,,,,,,,,,,,,,,,,,,,,,,,,,,,,,,,,,,,,,,,,,,,,,,,,,,,,,,,,,895007,001,2024-11-28_15h54.28.907,Test,2024.2.4,None,2024-11-28 15h54.37.589600 +0100,
27,150,150,43,None,25,25,0,,,,,,,,0,25,25,26,,,,,,,,,,,,,252.21575766601018,,,,,,,,,,,,,,,,,,,,,,,252.21086541601107,252.22106166600133,252.41800908301957,252.41800908301957,252.41800908301957,254.11609091600985,254.11609091600985,254.1023528330261,,,,,,,,,,,,,,,,,,,,,,,,,,,,,,,,,,,,,,,,,,,,,,,,,,,,,,,,,895007,001,2024-11-28_15h54.28.907,Test,2024.2.4,None,2024-11-28 15h54.37.589600 +0100,
32,150,180,17,None,26,26,0,,,,,,,,0,26,26,31,,,,,,,,,,,,,254.11609091600985,,,,,,,,,,,,,,,,,,,,,,,254.11110675000236,254.12020345800556,254.3181736250117,254.3181736250117,254.3181736250117,256.0164567910251,256.0164567910251,256.0025122500083,,,,,,,,,,,,,,,,,,,,,,,,,,,,,,,,,,,,,,,,,,,,,,,,,,,,,,,,,895007,001,2024-11-28_15h54.28.907,Test,2024.2.4,None,2024-11-28 15h54.37.589600 +0100,
1,150,0,69,None,27,27,0,,,,,,,,0,27,27,0,,,,,,,,,,,,,256.0164567910251,,,,,,,,,,,,,,,,,,,,,,,256.0113272500166,256.02116287502577,256.2182866660005,256.2182866660005,256.2182866660005,257.91586125001777,257.91586125001777,257.9022177910083,,,,,,,,,,,,,,,,,,,,,,,,,,,,,,,,,,,,,,,,,,,,,,,,,,,,,,,,,895007,001,2024-11-28_15h54.28.907,Test,2024.2.4,None,2024-11-28 15h54.37.589600 +0100,
14,150,60,61,None,28,28,0,,,,,,,,0,28,28,13,,,,,,,,,,,,,257.91586125001777,,,,,,,,,,,,,,,,,,,,,,,257.91092300001765,257.9207787080086,258.1181442080124,258.1181442080124,258.1181442080124,259.81635970799834,259.81635970799834,259.802424583002,,,,,,,,,,,,,,,,,,,,,,,,,,,,,,,,,,,,,,,,,,,,,,,,,,,,,,,,,895007,001,2024-11-28_15h54.28.907,Test,2024.2.4,None,2024-11-28 15h54.37.589600 +0100,
19,150,90,50,None,29,29,0,,,,,,,,0,29,29,18,,,,,,,,,,,,,259.81635970799834,,,,,,,,,,,,,,,,,,,,,,,259.81087400001707,259.8211894580163,260.01812583301216,260.01812583301216,260.01812583301216,261.7154967910028,261.7154967910028,261.7021232910047,,,,,,,,,,,,,,,,,,,,,,,,,,,,,,,,,,,,,,,,,,,,,,,,,,,,,,,,,895007,001,2024-11-28_15h54.28.907,Test,2024.2.4,None,2024-11-28 15h54.37.589600 +0100,
28,150,150,13,None,30,30,0,,,,,,,,0,30,30,27,,,,,,,,,,,,,261.7154967910028,,,,,,,,,,,,,,,,,,,,,,,261.7104842910194,261.72026841601473,261.918281708,261.918281708,261.918281708,263.61627995801973,263.61627995801973,263.60258587502176,,,,,,,,,,,,,,,,,,,,,,,,,,,,,,,,,,,,,,,,,,,,,,,,,,,,,,,,,895007,001,2024-11-28_15h54.28.907,Test,2024.2.4,None,2024-11-28 15h54.37.589600 +0100,
29,150,150,42,None,31,31,0,,,,,,,,0,31,31,28,,,,,,,,,,,,,263.61627995801973,,,,,,,,,,,,,,,,,,,,,,,263.61126754101133,263.6201100410253,263.81803979101824,263.81803979101824,263.81803979101824,265.5159253330203,265.5159253330203,265.5024837079982,,,,,,,,,,,,,,,,,,,,,,,,,,,,,,,,,,,,,,,,,,,,,,,,,,,,,,,,,895007,001,2024-11-28_15h54.28.907,Test,2024.2.4,None,2024-11-28 15h54.37.589600 +0100,
17,150,90,56,None,32,32,0,,,,,,,,0,32,32,16,,,,,,,,,,,,,265.5159253330203,,,,,,,,,,,,,,,,,,,,,,,265.51095541601535,265.52123758301605,265.7179549160064,265.7179549160064,265.7179549160064,267.41558595802053,267.41558595802053,267.40234079101356,,,,,,,,,,,,,,,,,,,,,,,,,,,,,,,,,,,,,,,,,,,,,,,,,,,,,,,,,895007,001,2024-11-28_15h54.28.907,Test,2024.2.4,None,2024-11-28 15h54.37.589600 +0100,
22,150,120,68,None,33,33,0,,,,,,,,0,33,33,21,,,,,,,,,,,,,267.41558595802053,,,,,,,,,,,,,,,,,,,,,,,267.41044175002025,267.41956212502555,267.61829762501293,267.61829762501293,267.61829762501293,269.31642887499765,269.31642887499765,269.3025097080099,,,,,,,,,,,,,,,,,,,,,,,,,,,,,,,,,,,,,,,,,,,,,,,,,,,,,,,,,895007,001,2024-11-28_15h54.28.907,Test,2024.2.4,None,2024-11-28 15h54.37.589600 +0100,
25,150,120,59,None,34,34,0,,,,,,,,0,34,34,24,,,,,,,,,,,,,269.31642887499765,,,,,,,,,,,,,,,,,,,,,,,269.31150083302055,269.3211877910071,269.5179336660076,269.5179336660076,269.5179336660076,271.2077570410038,271.2077570410038,271.2022592910216,,,,,,,,,,,,,,,,,,,,,,,,,,,,,,,,,,,,,,,,,,,,,,,,,,,,,,,,,895007,001,2024-11-28_15h54.28.907,Test,2024.2.4,None,2024-11-28 15h54.37.589600 +0100,
,,,,,,,,,,,,,,,,,,,,,,,,,,,,,,,,,,,,,,,,,,,,,,,,,,,,,,,,,,,,,,271.2024778750201,271.21647979100817,271.21647979100817,282.2677172910189,space,11.035392833000515,None,,,,,,,,,,,,,,,,,,,,,,,,,,,,,,,,,,,,,,,,,,,,,,,,,,895007,001,2024-11-28_15h54.28.907,Test,2024.2.4,None,2024-11-28 15h54.37.589600 +0100,
57,150,120,25,None,0,0,0,True,left,1.0802785420091823,None,,,,,,,,0,0,0,0,,,,,,,,,282.28880533302436,,,,,,,,,,,,,,,,,,,,,,,,,,,,,,,,,,,,,,282.28374687500764,282.28880533302436,283.284483291005,284.25916670801234,284.25916670801234,284.25916670801234,285.3431573330017,left,1.0802785420091823,None,,,,,,,,,,,,,,,,,,,,,,,,,,,,,,,,,,,,,,,,895007,001,2024-11-28_15h54.28.907,Test,2024.2.4,None,2024-11-28 15h54.37.589600 +0100,
13,150,60,40,None,1,1,0,False,right,0.9831684170057997,None,,,,,,,,0,1,1,1,,,,,,,,,285.3789466250164,,,,,,,,,,,,,,,,,,,,,,,,,,,,,,,,,,,,,,285.3505310830078,285.3789466250164,286.3741420410224,287.3420385410136,287.3420385410136,287.3420385410136,288.3275799580151,right,0.9831684170057997,None,,,,,,,,,,,,,,,,,,,,,,,,,,,,,,,,,,,,,,,,895007,001,2024-11-28_15h54.28.907,Test,2024.2.4,None,2024-11-28 15h54.37.589600 +0100,
28,150,150,13,None,2,2,0,False,right,0.7972446250205394,None,,,,,,,,0,2,2,2,,,,,,,,,288.342679333,,,,,,,,,,,,,,,,,,,,,,,,,,,,,,,,,,,,,,288.3358545410156,288.342679333,289.33927070800564,290.3252733749978,290.3252733749978,290.3252733749978,291.1266198750236,right,0.7972446250205394,None,,,,,,,,,,,,,,,,,,,,,,,,,,,,,,,,,,,,,,,,895007,001,2024-11-28_15h54.28.907,Test,2024.2.4,None,2024-11-28 15h54.37.589600 +0100,
48,150,60,5,None,3,3,0,True,left,0.9488424999872223,None,,,,,,,,0,3,3,3,,,,,,,,,291.14083458299865,,,,,,,,,,,,,,,,,,,,,,,,,,,,,,,,,,,,,,291.13475104101235,291.14083458299865,292.13480687502306,293.12463791601476,293.12463791601476,293.12463791601476,294.0758396660094,left,0.9488424999872223,None,,,,,,,,,,,,,,,,,,,,,,,,,,,,,,,,,,,,,,,,895007,001,2024-11-28_15h54.28.907,Test,2024.2.4,None,2024-11-28 15h54.37.589600 +0100,
4,150,0,35,None,4,4,0,False,right,0.8665192080079578,None,,,,,,,,0,4,4,4,,,,,,,,,294.09073600001284,,,,,,,,,,,,,,,,,,,,,,,,,,,,,,,,,,,,,,294.0843701249978,294.09073600001284,295.08461837502546,296.0750959580182,296.0750959580182,296.0750959580182,296.95180516599794,right,0.8665192080079578,None,,,,,,,,,,,,,,,,,,,,,,,,,,,,,,,,,,,,,,,,895007,001,2024-11-28_15h54.28.907,Test,2024.2.4,None,2024-11-28 15h54.37.589600 +0100,
9,150,30,30,None,5,5,0,False,right,0.6963261670025531,None,,,,,,,,0,5,5,5,,,,,,,,,296.9643037080241,,,,,,,,,,,,,,,,,,,,,,,,,,,,,,,,,,,,,,296.95966887500254,296.9643037080241,297.956215541024,298.9421659580257,298.9421659580257,298.9421659580257,299.64270883300924,right,0.6963261670025531,None,,,,,,,,,,,,,,,,,,,,,,,,,,,,,,,,,,,,,,,,895007,001,2024-11-28_15h54.28.907,Test,2024.2.4,None,2024-11-28 15h54.37.589600 +0100,
65,150,150,52,None,6,6,0,True,left,1.1028368749830406,None,,,,,,,,0,6,6,6,,,,,,,,,299.655610833026,,,,,,,,,,,,,,,,,,,,,,,,,,,,,,,,,,,,,,299.6499534160248,299.655610833026,300.6512871250161,301.6419650000171,301.6419650000171,301.6419650000171,302.7539410830068,left,1.1028368749830406,None,,,,,,,,,,,,,,,,,,,,,,,,,,,,,,,,,,,,,,,,895007,001,2024-11-28_15h54.28.907,Test,2024.2.4,None,2024-11-28 15h54.37.589600 +0100,
31,150,180,29,None,7,7,0,False,right,0.8503612499916926,None,,,,,,,,0,7,7,7,,,,,,,,,302.76969245800865,,,,,,,,,,,,,,,,,,,,,,,,,,,,,,,,,,,,,,302.7632928750245,302.76969245800865,303.7679000830103,304.7514817500196,304.7514817500196,304.7514817500196,305.60462287502014,right,0.8503612499916926,None,,,,,,,,,,,,,,,,,,,,,,,,,,,,,,,,,,,,,,,,895007,001,2024-11-28_15h54.28.907,Test,2024.2.4,None,2024-11-28 15h54.37.589600 +0100,
17,150,90,56,None,8,8,0,False,right,0.8300844999903347,None,,,,,,,,0,8,8,8,,,,,,,,,305.61931337500573,,,,,,,,,,,,,,,,,,,,,,,,,,,,,,,,,,,,,,305.6131495000154,305.61931337500573,306.6180187080172,307.6014062500035,307.6014062500035,307.6014062500035,308.4371664580249,right,0.8300844999903347,None,,,,,,,,,,,,,,,,,,,,,,,,,,,,,,,,,,,,,,,,895007,001,2024-11-28_15h54.28.907,Test,2024.2.4,None,2024-11-28 15h54.37.589600 +0100,
64,150,150,19,None,9,9,0,True,right,0.8501093750237487,None,,,,,,,,0,9,9,9,,,,,,,,,308.45240520802327,,,,,,,,,,,,,,,,,,,,,,,,,,,,,,,,,,,,,,308.44598570800736,308.45240520802327,309.4396006250172,310.43497308299993,310.43497308299993,310.43497308299993,311.28827858300065,right,0.8501093750237487,None,,,,,,,,,,,,,,,,,,,,,,,,,,,,,,,,,,,,,,,,895007,001,2024-11-28_15h54.28.907,Test,2024.2.4,None,2024-11-28 15h54.37.589600 +0100,
33,150,180,12,None,10,10,0,False,right,1.8572596669837367,None,,,,,,,,0,10,10,10,,,,,,,,,311.30345454101916,,,,,,,,,,,,,,,,,,,,,,,,,,,,,,,,,,,,,,311.2973386250087,311.30345454101916,312.3011830000032,313.28460529100266,313.28460529100266,313.28460529100266,315.1540599580039,right,1.8572596669837367,None,,,,,,,,,,,,,,,,,,,,,,,,,,,,,,,,,,,,,,,,895007,001,2024-11-28_15h54.28.907,Test,2024.2.4,None,2024-11-28 15h54.37.589600 +0100,
18,150,90,38,None,11,11,0,False,right,1.0671634580066893,None,,,,,,,,0,11,11,11,,,,,,,,,315.1694391250203,,,,,,,,,,,,,,,,,,,,,,,,,,,,,,,,,,,,,,315.1629747080151,315.1694391250203,316.167833583022,317.1514308330079,317.1514308330079,317.1514308330079,318.2289618330251,right,1.0671634580066893,None,,,,,,,,,,,,,,,,,,,,,,,,,,,,,,,,,,,,,,,,895007,001,2024-11-28_15h54.28.907,Test,2024.2.4,None,2024-11-28 15h54.37.589600 +0100,
38,150,0,36,None,12,12,0,True,left,1.1776037910021842,None,,,,,,,,0,12,12,12,,,,,,,,,318.24092554100207,,,,,,,,,,,,,,,,,,,,,,,,,,,,,,,,,,,,,,318.236325750011,318.24092554100207,319.2391016250185,320.2255595830211,320.2255595830211,320.2255595830211,321.4093289160228,left,1.1776037910021842,None,,,,,,,,,,,,,,,,,,,,,,,,,,,,,,,,,,,,,,,,895007,001,2024-11-28_15h54.28.907,Test,2024.2.4,None,2024-11-28 15h54.37.589600 +0100,
39,150,0,48,None,13,13,0,True,left,0.909150084014982,None,,,,,,,,0,13,13,13,,,,,,,,,321.4249528750079,,,,,,,,,,,,,,,,,,,,,,,,,,,,,,,,,,,,,,321.41800833301386,321.4249528750079,322.423715041019,323.40908291601227,323.40908291601227,323.40908291601227,324.32094704100746,left,0.909150084014982,None,,,,,,,,,,,,,,,,,,,,,,,,,,,,,,,,,,,,,,,,895007,001,2024-11-28_15h54.28.907,Test,2024.2.4,None,2024-11-28 15h54.37.589600 +0100,
55,150,90,64,None,14,14,0,True,right,2.1350899169920012,None,,,,,,,,0,14,14,14,,,,,,,,,324.33583920801175,,,,,,,,,,,,,,,,,,,,,,,,,,,,,,,,,,,,,,324.32913695802563,324.33583920801175,325.3347010000143,326.31810516602127,326.31810516602127,326.31810516602127,328.4595512500091,right,2.1350899169920012,None,,,,,,,,,,,,,,,,,,,,,,,,,,,,,,,,,,,,,,,,895007,001,2024-11-28_15h54.28.907,Test,2024.2.4,None,2024-11-28 15h54.37.589600 +0100,
58,150,120,10,None,15,15,0,True,left,0.8499432499811519,None,,,,,,,,0,15,15,15,,,,,,,,,328.47341316600796,,,,,,,,,,,,,,,,,,,,,,,,,,,,,,,,,,,,,,328.4673597080109,328.47341316600796,329.4678122080222,330.458497500018,330.458497500018,330.458497500018,331.3185448330187,left,0.8499432499811519,None,,,,,,,,,,,,,,,,,,,,,,,,,,,,,,,,,,,,,,,,895007,001,2024-11-28_15h54.28.907,Test,2024.2.4,None,2024-11-28 15h54.37.589600 +0100,
26,150,150,62,None,16,16,0,False,right,1.2052744590037037,None,,,,,,,,0,16,16,16,,,,,,,,,331.330432540999,,,,,,,,,,,,,,,,,,,,,,,,,,,,,,,,,,,,,,331.32568345800973,331.330432540999,332.322712291003,333.308642375021,333.308642375021,333.308642375021,334.5199946660141,right,1.2052744590037037,None,,,,,,,,,,,,,,,,,,,,,,,,,,,,,,,,,,,,,,,,895007,001,2024-11-28_15h54.28.907,Test,2024.2.4,None,2024-11-28 15h54.37.589600 +0100,
66,150,180,21,None,17,17,0,True,right,1.2440892079903278,None,,,,,,,,0,17,17,17,,,,,,,,,334.5352786250005,,,,,,,,,,,,,,,,,,,,,,,,,,,,,,,,,,,,,,334.5292338330182,334.5352786250005,335.522289458022,336.5180961660226,336.5180961660226,336.5180961660226,337.77010341599816,right,1.2440892079903278,None,,,,,,,,,,,,,,,,,,,,,,,,,,,,,,,,,,,,,,,,895007,001,2024-11-28_15h54.28.907,Test,2024.2.4,None,2024-11-28 15h54.37.589600 +0100,
62,150,150,4,None,18,18,0,True,left,0.8880358329915907,None,,,,,,,,0,18,18,18,,,,,,,,,337.78523350000614,,,,,,,,,,,,,,,,,,,,,,,,,,,,,,,,,,,,,,337.7790158330172,337.78523350000614,338.7727798749984,339.76821041601943,339.76821041601943,339.76821041601943,340.6590725000133,left,0.8880358329915907,None,,,,,,,,,,,,,,,,,,,,,,,,,,,,,,,,,,,,,,,,895007,001,2024-11-28_15h54.28.907,Test,2024.2.4,None,2024-11-28 15h54.37.589600 +0100,
7,150,30,66,None,19,19,0,False,right,0.9126439169922378,None,,,,,,,,0,19,19,19,,,,,,,,,340.6740985830256,,,,,,,,,,,,,,,,,,,,,,,,,,,,,,,,,,,,,,340.6678031250194,340.6740985830256,341.6679187499976,342.6593724580016,342.6593724580016,342.6593724580016,343.575881916011,right,0.9126439169922378,None,,,,,,,,,,,,,,,,,,,,,,,,,,,,,,,,,,,,,,,,895007,001,2024-11-28_15h54.28.907,Test,2024.2.4,None,2024-11-28 15h54.37.589600 +0100,
61,150,150,41,None,20,20,0,True,right,1.3261732079845387,None,,,,,,,,0,20,20,20,,,,,,,,,343.5905925000261,,,,,,,,,,,,,,,,,,,,,,,,,,,,,,,,,,,,,,343.5843828750076,343.5905925000261,344.5845839579997,345.5752819160116,345.5752819160116,345.5752819160116,346.90381137499935,right,1.3261732079845387,None,,,,,,,,,,,,,,,,,,,,,,,,,,,,,,,,,,,,,,,,895007,001,2024-11-28_15h54.28.907,Test,2024.2.4,None,2024-11-28 15h54.37.589600 +0100,
51,150,90,7,None,21,21,0,True,right,0.8968905420042574,None,,,,,,,,0,21,21,21,,,,,,,,,346.9192972500168,,,,,,,,,,,,,,,,,,,,,,,,,,,,,,,,,,,,,,346.9126893330249,346.9192972500168,347.91803079101373,348.9013330830203,348.9013330830203,348.9013330830203,349.8032877080259,right,0.8968905420042574,None,,,,,,,,,,,,,,,,,,,,,,,,,,,,,,,,,,,,,,,,895007,001,2024-11-28_15h54.28.907,Test,2024.2.4,None,2024-11-28 15h54.37.589600 +0100,
25,150,120,59,None,22,22,0,False,right,1.1599302499962505,None,,,,,,,,0,22,22,22,,,,,,,,,349.8189629999979,,,,,,,,,,,,,,,,,,,,,,,,,,,,,,,,,,,,,,349.8120255829999,349.8189629999979,350.80670879100217,351.8015851660166,351.8015851660166,351.8015851660166,352.9702228750102,right,1.1599302499962505,None,,,,,,,,,,,,,,,,,,,,,,,,,,,,,,,,,,,,,,,,895007,001,2024-11-28_15h54.28.907,Test,2024.2.4,None,2024-11-28 15h54.37.589600 +0100,
5,150,0,15,None,23,23,0,False,left,0.8373719590017572,None,,,,,,,,0,23,23,23,,,,,,,,,352.9857837500167,,,,,,,,,,,,,,,,,,,,,,,,,,,,,,,,,,,,,,352.9796330410172,352.9857837500167,353.97303829100565,354.96795975000714,354.96795975000714,354.96795975000714,355.8094266250264,left,0.8373719590017572,None,,,,,,,,,,,,,,,,,,,,,,,,,,,,,,,,,,,,,,,,895007,001,2024-11-28_15h54.28.907,Test,2024.2.4,None,2024-11-28 15h54.37.589600 +0100,
10,150,30,57,None,24,24,0,False,left,1.3878706250106916,None,,,,,,,,0,24,24,24,,,,,,,,,355.8238030830107,,,,,,,,,,,,,,,,,,,,,,,,,,,,,,,,,,,,,,355.81793700001435,355.8238030830107,356.81790850000107,357.80853487501736,357.80853487501736,357.80853487501736,359.2039899160154,left,1.3878706250106916,None,,,,,,,,,,,,,,,,,,,,,,,,,,,,,,,,,,,,,,,,895007,001,2024-11-28_15h54.28.907,Test,2024.2.4,None,2024-11-28 15h54.37.589600 +0100,
27,150,150,43,None,25,25,0,False,right,0.7361942080024164,None,,,,,,,,0,25,25,25,,,,,,,,,359.21981454102206,,,,,,,,,,,,,,,,,,,,,,,,,,,,,,,,,,,,,,359.21306295800605,359.21981454102206,360.2180578330008,361.20048304100055,361.20048304100055,361.20048304100055,361.94303041600506,right,0.7361942080024164,None,,,,,,,,,,,,,,,,,,,,,,,,,,,,,,,,,,,,,,,,895007,001,2024-11-28_15h54.28.907,Test,2024.2.4,None,2024-11-28 15h54.37.589600 +0100,
20,150,90,33,None,26,26,0,False,left,1.2760947079805192,None,,,,,,,,0,26,26,26,,,,,,,,,361.95821304101264,,,,,,,,,,,,,,,,,,,,,,,,,,,,,,,,,,,,,,361.9517221249989,361.95821304101264,362.95685466600116,363.9419727080094,363.9419727080094,363.9419727080094,365.2205215830181,left,1.2760947079805192,None,,,,,,,,,,,,,,,,,,,,,,,,,,,,,,,,,,,,,,,,895007,001,2024-11-28_15h54.28.907,Test,2024.2.4,None,2024-11-28 15h54.37.589600 +0100,
19,150,90,50,None,27,27,0,False,left,1.049914292001631,None,,,,,,,,0,27,27,27,,,,,,,,,365.2370633330138,,,,,,,,,,,,,,,,,,,,,,,,,,,,,,,,,,,,,,365.22973229101626,365.2370633330138,366.2345660410065,367.21825291600544,367.21825291600544,367.21825291600544,368.27137183301966,left,1.049914292001631,None,,,,,,,,,,,,,,,,,,,,,,,,,,,,,,,,,,,,,,,,895007,001,2024-11-28_15h54.28.907,Test,2024.2.4,None,2024-11-28 15h54.37.589600 +0100,
16,150,90,51,None,28,28,0,False,left,0.7441211249970365,None,,,,,,,,0,28,28,28,,,,,,,,,368.28700508302427,,,,,,,,,,,,,,,,,,,,,,,,,,,,,,,,,,,,,,368.2803383330174,368.28700508302427,369.28454354099813,370.2680831250036,370.2680831250036,370.2680831250036,371.02023420800106,left,0.7441211249970365,None,,,,,,,,,,,,,,,,,,,,,,,,,,,,,,,,,,,,,,,,895007,001,2024-11-28_15h54.28.907,Test,2024.2.4,None,2024-11-28 15h54.37.589600 +0100,
14,150,60,61,None,29,29,0,False,right,0.8676254999882076,None,,,,,,,,0,29,29,29,,,,,,,,,371.0347262910218,,,,,,,,,,,,,,,,,,,,,,,,,,,,,,,,,,,,,,371.028771916026,371.0347262910218,372.02287929100567,373.0180975830008,373.0180975830008,373.0180975830008,373.89338700001827,right,0.8676254999882076,None,,,,,,,,,,,,,,,,,,,,,,,,,,,,,,,,,,,,,,,,895007,001,2024-11-28_15h54.28.907,Test,2024.2.4,None,2024-11-28 15h54.37.589600 +0100,
24,150,120,18,None,30,30,0,False,left,0.97133179201046,None,,,,,,,,0,30,30,30,,,,,,,,,373.90837425002246,,,,,,,,,,,,,,,,,,,,,,,,,,,,,,,,,,,,,,373.90226483301376,373.90837425002246,374.90682595802355,375.89190495799994,375.89190495799994,375.89190495799994,376.86991683300585,left,0.97133179201046,None,,,,,,,,,,,,,,,,,,,,,,,,,,,,,,,,,,,,,,,,895007,001,2024-11-28_15h54.28.907,Test,2024.2.4,None,2024-11-28 15h54.37.589600 +0100,
35,150,180,45,None,31,31,0,False,left,0.9932042919972446,None,,,,,,,,0,31,31,31,,,,,,,,,376.884940791002,,,,,,,,,,,,,,,,,,,,,,,,,,,,,,,,,,,,,,376.8781041660113,376.884940791002,377.8724303750205,378.8679375000065,378.8679375000065,378.8679375000065,379.870238833013,left,0.9932042919972446,None,,,,,,,,,,,,,,,,,,,,,,,,,,,,,,,,,,,,,,,,895007,001,2024-11-28_15h54.28.907,Test,2024.2.4,None,2024-11-28 15h54.37.589600 +0100,
41,150,30,22,None,32,32,0,True,left,1.1780463749892078,None,,,,,,,,0,32,32,32,,,,,,,,,379.88531158299884,,,,,,,,,,,,,,,,,,,,,,,,,,,,,,,,,,,,,,379.878615499998,379.88531158299884,380.87336287501967,381.86798066602205,381.86798066602205,381.86798066602205,383.0536072500108,left,1.1780463749892078,None,,,,,,,,,,,,,,,,,,,,,,,,,,,,,,,,,,,,,,,,895007,001,2024-11-28_15h54.28.907,Test,2024.2.4,None,2024-11-28 15h54.37.589600 +0100,
47,150,60,47,None,33,33,0,True,right,1.3629640839935746,None,,,,,,,,0,33,33,33,,,,,,,,,383.0683821660059,,,,,,,,,,,,,,,,,,,,,,,,,,,,,,,,,,,,,,383.0623334580159,383.0683821660059,384.0561151250149,385.051361040998,385.051361040998,385.051361040998,386.42004854101106,right,1.3629640839935746,None,,,,,,,,,,,,,,,,,,,,,,,,,,,,,,,,,,,,,,,,895007,001,2024-11-28_15h54.28.907,Test,2024.2.4,None,2024-11-28 15h54.37.589600 +0100,
36,150,0,37,None,34,34,0,True,left,0.6511714579828549,None,,,,,,,,0,34,34,34,,,,,,,,,386.4355573330249,,,,,,,,,,,,,,,,,,,,,,,,,,,,,,,,,,,,,,386.42910654100706,386.4355573330249,387.4234960830072,388.4179934160202,388.4179934160202,388.4179934160202,389.0765126250044,left,0.6511714579828549,None,,,,,,,,,,,,,,,,,,,,,,,,,,,,,,,,,,,,,,,,895007,001,2024-11-28_15h54.28.907,Test,2024.2.4,None,2024-11-28 15h54.37.589600 +0100,
67,150,180,6,None,35,35,0,True,right,1.655245375004597,None,,,,,,,,0,35,35,35,,,,,,,,,389.09122558301897,,,,,,,,,,,,,,,,,,,,,,,,,,,,,,,,,,,,,,389.08489862500574,389.09122558301897,390.0845357500075,391.075251000002,391.075251000002,391.075251000002,392.736866250023,right,1.655245375004597,None,,,,,,,,,,,,,,,,,,,,,,,,,,,,,,,,,,,,,,,,895007,001,2024-11-28_15h54.28.907,Test,2024.2.4,None,2024-11-28 15h54.37.589600 +0100,
56,150,120,16,None,36,36,0,True,right,1.2183126249874476,None,,,,,,,,0,36,36,36,,,,,,,,,392.7517661660095,,,,,,,,,,,,,,,,,,,,,,,,,,,,,,,,,,,,,,392.74563054100145,392.7517661660095,393.7398269580153,394.7346919160045,394.7346919160045,394.7346919160045,395.9598381250107,right,1.2183126249874476,None,,,,,,,,,,,,,,,,,,,,,,,,,,,,,,,,,,,,,,,,895007,001,2024-11-28_15h54.28.907,Test,2024.2.4,None,2024-11-28 15h54.37.589600 +0100,
43,150,30,31,None,37,37,0,True,left,1.0095752089982852,None,,,,,,,,0,37,37,37,,,,,,,,,395.974117500009,,,,,,,,,,,,,,,,,,,,,,,,,,,,,,,,,,,,,,395.9680779580085,395.974117500009,396.9730660410132,397.9585730000108,397.9585730000108,397.9585730000108,398.9710610410257,left,1.0095752089982852,None,,,,,,,,,,,,,,,,,,,,,,,,,,,,,,,,,,,,,,,,895007,001,2024-11-28_15h54.28.907,Test,2024.2.4,None,2024-11-28 15h54.37.589600 +0100,
70,150,180,32,None,38,38,0,True,right,1.1763797919848002,None,,,,,,,,0,38,38,38,,,,,,,,,398.9860630000185,,,,,,,,,,,,,,,,,,,,,,,,,,,,,,,,,,,,,,398.9792636659986,398.9860630000185,399.98455391600146,400.96653779101325,400.96653779101325,400.96653779101325,402.15348875001655,right,1.1763797919848002,None,,,,,,,,,,,,,,,,,,,,,,,,,,,,,,,,,,,,,,,,895007,001,2024-11-28_15h54.28.907,Test,2024.2.4,None,2024-11-28 15h54.37.589600 +0100,
50,150,60,2,None,39,39,0,True,right,2.8431678330234718,None,,,,,,,,0,39,39,39,,,,,,,,,402.16776525002206,,,,,,,,,,,,,,,,,,,,,,,,,,,,,,,,,,,,,,402.1618850410159,402.16776525002206,403.15567620799993,404.15159800002584,404.15159800002584,404.15159800002584,407.0033052910003,right,2.8431678330234718,None,,,,,,,,,,,,,,,,,,,,,,,,,,,,,,,,,,,,,,,,895007,001,2024-11-28_15h54.28.907,Test,2024.2.4,None,2024-11-28 15h54.37.589600 +0100,
52,150,90,65,None,40,40,0,True,left,0.9398238750000019,None,,,,,,,,0,40,40,40,,,,,,,,,407.01905983302277,,,,,,,,,,,,,,,,,,,,,,,,,,,,,,,,,,,,,,407.01222079101717,407.01905983302277,408.00632337501156,409.00150616600877,409.00150616600877,409.00150616600877,409.9436559580208,left,0.9398238750000019,None,,,,,,,,,,,,,,,,,,,,,,,,,,,,,,,,,,,,,,,,895007,001,2024-11-28_15h54.28.907,Test,2024.2.4,None,2024-11-28 15h54.37.589600 +0100,
29,150,150,42,None,41,41,0,False,right,1.0977865000022575,None,,,,,,,,0,41,41,41,,,,,,,,,409.9591939160018,,,,,,,,,,,,,,,,,,,,,,,,,,,,,,,,,,,,,,409.9525639160129,409.9591939160018,410.9562827080081,411.94162454101024,411.94162454101024,411.94162454101024,413.0426891660027,right,1.0977865000022575,None,,,,,,,,,,,,,,,,,,,,,,,,,,,,,,,,,,,,,,,,895007,001,2024-11-28_15h54.28.907,Test,2024.2.4,None,2024-11-28 15h54.37.589600 +0100,
23,150,120,9,None,42,42,0,False,right,0.877313624980161,None,,,,,,,,0,42,42,42,,,,,,,,,413.05707175002317,,,,,,,,,,,,,,,,,,,,,,,,,,,,,,,,,,,,,,413.05082662502537,413.05707175002317,414.0513323750056,415.04155829100637,415.04155829100637,415.04155829100637,415.9261549160001,right,0.877313624980161,None,,,,,,,,,,,,,,,,,,,,,,,,,,,,,,,,,,,,,,,,895007,001,2024-11-28_15h54.28.907,Test,2024.2.4,None,2024-11-28 15h54.37.589600 +0100,
42,150,30,58,None,43,43,0,True,left,1.0595002920017578,None,,,,,,,,0,43,43,43,,,,,,,,,415.94055749999825,,,,,,,,,,,,,,,,,,,,,,,,,,,,,,,,,,,,,,415.9347062910092,415.94055749999825,416.93464295801823,417.9254240000155,417.9254240000155,417.9254240000155,418.9876307500235,left,1.0595002920017578,None,,,,,,,,,,,,,,,,,,,,,,,,,,,,,,,,,,,,,,,,895007,001,2024-11-28_15h54.28.907,Test,2024.2.4,None,2024-11-28 15h54.37.589600 +0100,
68,150,180,8,None,44,44,0,True,right,0.8833230839809403,None,,,,,,,,0,44,44,44,,,,,,,,,419.00233945800574,,,,,,,,,,,,,,,,,,,,,,,,,,,,,,,,,,,,,,418.99642379101715,419.00233945800574,420.00122529102373,420.98480587502127,420.98480587502127,420.98480587502127,421.870582958014,right,0.8833230839809403,None,,,,,,,,,,,,,,,,,,,,,,,,,,,,,,,,,,,,,,,,895007,001,2024-11-28_15h54.28.907,Test,2024.2.4,None,2024-11-28 15h54.37.589600 +0100,
69,150,180,70,None,45,45,0,True,left,1.0756485000019893,None,,,,,,,,0,45,45,45,,,,,,,,,421.8856703750207,,,,,,,,,,,,,,,,,,,,,,,,,,,,,,,,,,,,,,421.8790434580005,421.8856703750207,422.88455345801776,423.86819225002546,423.86819225002546,423.86819225002546,424.9542499160161,left,1.0756485000019893,None,,,,,,,,,,,,,,,,,,,,,,,,,,,,,,,,,,,,,,,,895007,001,2024-11-28_15h54.28.907,Test,2024.2.4,None,2024-11-28 15h54.37.589600 +0100,
15,150,60,23,None,46,46,0,False,left,1.6360423749720212,None,,,,,,,,0,46,46,46,,,,,,,,,424.96947808301775,,,,,,,,,,,,,,,,,,,,,,,,,,,,,,,,,,,,,,424.9622903749987,424.96947808301775,425.96798875002423,426.9515076660027,426.9515076660027,426.9515076660027,428.59399512500386,left,1.6360423749720212,None,,,,,,,,,,,,,,,,,,,,,,,,,,,,,,,,,,,,,,,,895007,001,2024-11-28_15h54.28.907,Test,2024.2.4,None,2024-11-28 15h54.37.589600 +0100,
46,150,60,49,None,47,47,0,True,left,1.382161957997596,None,,,,,,,,0,47,47,47,,,,,,,,,428.6081939160067,,,,,,,,,,,,,,,,,,,,,,,,,,,,,,,,,,,,,,428.6023946659989,428.6081939160067,429.60723500000313,430.5925510000088,430.5925510000088,430.5925510000088,431.97717720799847,left,1.382161957997596,None,,,,,,,,,,,,,,,,,,,,,,,,,,,,,,,,,,,,,,,,895007,001,2024-11-28_15h54.28.907,Test,2024.2.4,None,2024-11-28 15h54.37.589600 +0100,
2,150,0,1,None,48,48,0,False,left,0.760179208999034,None,,,,,,,,0,48,48,48,,,,,,,,,431.99248750001425,,,,,,,,,,,,,,,,,,,,,,,,,,,,,,,,,,,,,,431.9858232080005,431.99248750001425,432.9893422910245,433.9750047500129,433.9750047500129,433.9750047500129,434.74593933302094,left,0.760179208999034,None,,,,,,,,,,,,,,,,,,,,,,,,,,,,,,,,,,,,,,,,895007,001,2024-11-28_15h54.28.907,Test,2024.2.4,None,2024-11-28 15h54.37.589600 +0100,
34,150,180,54,None,49,49,0,False,right,1.0137965829926543,None,,,,,,,,0,49,49,49,,,,,,,,,434.75740900001256,,,,,,,,,,,,,,,,,,,,,,,,,,,,,,,,,,,,,,434.75277312501566,434.75740900001256,435.7512315410131,436.741984666005,436.741984666005,436.741984666005,437.759712375002,right,1.0137965829926543,None,,,,,,,,,,,,,,,,,,,,,,,,,,,,,,,,,,,,,,,,895007,001,2024-11-28_15h54.28.907,Test,2024.2.4,None,2024-11-28 15h54.37.589600 +0100,
11,150,60,44,None,50,50,0,False,right,1.2028724999981932,None,,,,,,,,0,50,50,50,,,,,,,,,437.7740612500056,,,,,,,,,,,,,,,,,,,,,,,,,,,,,,,,,,,,,,437.76811054101563,437.7740612500056,438.7679515409982,439.7589393329981,439.7589393329981,439.7589393329981,440.9705012910126,right,1.2028724999981932,None,,,,,,,,,,,,,,,,,,,,,,,,,,,,,,,,,,,,,,,,895007,001,2024-11-28_15h54.28.907,Test,2024.2.4,None,2024-11-28 15h54.37.589600 +0100,
1,150,0,69,None,51,51,0,False,right,1.3691274999873713,None,,,,,,,,0,51,51,51,,,,,,,,,440.9857804159983,,,,,,,,,,,,,,,,,,,,,,,,,,,,,,,,,,,,,,440.9795067910163,440.9857804159983,441.9846949580242,442.968151958019,442.968151958019,442.968151958019,444.3432941250212,right,1.3691274999873713,None,,,,,,,,,,,,,,,,,,,,,,,,,,,,,,,,,,,,,,,,895007,001,2024-11-28_15h54.28.907,Test,2024.2.4,None,2024-11-28 15h54.37.589600 +0100,
44,150,30,24,None,52,52,0,True,left,0.9156276659923606,None,,,,,,,,0,52,52,52,,,,,,,,,444.3583813330042,,,,,,,,,,,,,,,,,,,,,,,,,,,,,,,,,,,,,,444.35207987501053,444.3583813330042,445.3566318330122,446.3418841250241,446.3418841250241,446.3418841250241,447.2606293330027,left,0.9156276659923606,None,,,,,,,,,,,,,,,,,,,,,,,,,,,,,,,,,,,,,,,,895007,001,2024-11-28_15h54.28.907,Test,2024.2.4,None,2024-11-28 15h54.37.589600 +0100,
40,150,0,55,None,53,53,0,True,left,1.306187125010183,None,,,,,,,,0,53,53,53,,,,,,,,,447.2754261660157,,,,,,,,,,,,,,,,,,,,,,,,,,,,,,,,,,,,,,447.26951158299926,447.2754261660157,448.27261995800654,449.2584575000219,449.2584575000219,449.2584575000219,450.5704206250084,left,1.306187125010183,None,,,,,,,,,,,,,,,,,,,,,,,,,,,,,,,,,,,,,,,,895007,001,2024-11-28_15h54.28.907,Test,2024.2.4,None,2024-11-28 15h54.37.589600 +0100,
63,150,150,67,None,54,54,0,True,left,1.8082592080172617,None,,,,,,,,0,54,54,54,,,,,,,,,450.58613554100157,,,,,,,,,,,,,,,,,,,,,,,,,,,,,,,,,,,,,,450.5791323330195,450.58613554100157,451.5846172910242,452.56816995801637,452.56816995801637,452.56816995801637,454.38662508301786,left,1.8082592080172617,None,,,,,,,,,,,,,,,,,,,,,,,,,,,,,,,,,,,,,,,,895007,001,2024-11-28_15h54.28.907,Test,2024.2.4,None,2024-11-28 15h54.37.589600 +0100,
54,150,90,63,None,55,55,0,True,left,0.8067929579992779,None,,,,,,,,0,55,55,55,,,,,,,,,454.40176541599794,,,,,,,,,,,,,,,,,,,,,,,,,,,,,,,,,,,,,,454.3949258750072,454.40176541599794,455.3897938330192,456.3847496250237,456.3847496250237,456.3847496250237,457.2033192910021,left,0.8067929579992779,None,,,,,,,,,,,,,,,,,,,,,,,,,,,,,,,,,,,,,,,,895007,001,2024-11-28_15h54.28.907,Test,2024.2.4,None,2024-11-28 15h54.37.589600 +0100,
37,150,0,53,None,56,56,0,True,left,0.7384348750056233,None,,,,,,,,0,56,56,56,,,,,,,,,457.21817037501023,,,,,,,,,,,,,,,,,,,,,,,,,,,,,,,,,,,,,,457.21204283300904,457.21817037501023,458.2060864160012,459.20170166602475,459.20170166602475,459.20170166602475,459.9426319160266,left,0.7384348750056233,None,,,,,,,,,,,,,,,,,,,,,,,,,,,,,,,,,,,,,,,,895007,001,2024-11-28_15h54.28.907,Test,2024.2.4,None,2024-11-28 15h54.37.589600 +0100,
60,150,120,60,None,57,57,0,True,right,1.5214166670048144,None,,,,,,,,0,57,57,57,,,,,,,,,459.95839270800934,,,,,,,,,,,,,,,,,,,,,,,,,,,,,,,,,,,,,,459.9518821660022,459.95839270800934,460.9564389580046,461.94150704101776,461.94150704101776,461.94150704101776,463.4707367910014,right,1.5214166670048144,None,,,,,,,,,,,,,,,,,,,,,,,,,,,,,,,,,,,,,,,,895007,001,2024-11-28_15h54.28.907,Test,2024.2.4,None,2024-11-28 15h54.37.589600 +0100,
22,150,120,68,None,58,58,0,False,left,1.6856582500040531,None,,,,,,,,0,58,58,58,,,,,,,,,463.48605108301854,,,,,,,,,,,,,,,,,,,,,,,,,,,,,,,,,,,,,,463.47957650001626,463.48605108301854,464.4844673750049,465.4683120000118,465.4683120000118,465.4683120000118,467.1596460410219,left,1.6856582500040531,None,,,,,,,,,,,,,,,,,,,,,,,,,,,,,,,,,,,,,,,,895007,001,2024-11-28_15h54.28.907,Test,2024.2.4,None,2024-11-28 15h54.37.589600 +0100,
32,150,180,17,None,59,59,0,False,right,1.031278458016459,None,,,,,,,,0,59,59,59,,,,,,,,,467.1747347910132,,,,,,,,,,,,,,,,,,,,,,,,,,,,,,,,,,,,,,467.1683958750218,467.1747347910132,468.1728501250036,469.158140790998,469.158140790998,469.158140790998,470.19222425000044,right,1.031278458016459,None,,,,,,,,,,,,,,,,,,,,,,,,,,,,,,,,,,,,,,,,895007,001,2024-11-28_15h54.28.907,Test,2024.2.4,None,2024-11-28 15h54.37.589600 +0100,
53,150,90,28,None,60,60,0,True,left,2.7819770830101334,None,,,,,,,,0,60,60,60,,,,,,,,,470.2069157080259,,,,,,,,,,,,,,,,,,,,,,,,,,,,,,,,,,,,,,470.20075437502237,470.2069157080259,471.2014456660254,472.1919431660208,472.1919431660208,472.1919431660208,474.9760787500127,left,2.7819770830101334,None,,,,,,,,,,,,,,,,,,,,,,,,,,,,,,,,,,,,,,,,895007,001,2024-11-28_15h54.28.907,Test,2024.2.4,None,2024-11-28 15h54.37.589600 +0100,
21,150,120,27,None,61,61,0,False,left,1.2144302499946207,None,,,,,,,,0,61,61,61,,,,,,,,,474.9912116250198,,,,,,,,,,,,,,,,,,,,,,,,,,,,,,,,,,,,,,474.9851293330139,474.9912116250198,475.9844583750237,476.9749840000004,476.9749840000004,476.9749840000004,478.19289933302207,left,1.2144302499946207,None,,,,,,,,,,,,,,,,,,,,,,,,,,,,,,,,,,,,,,,,895007,001,2024-11-28_15h54.28.907,Test,2024.2.4,None,2024-11-28 15h54.37.589600 +0100,
12,150,60,46,None,62,62,0,False,left,2.1508727080072276,None,,,,,,,,0,62,62,62,,,,,,,,,478.2075146250136,,,,,,,,,,,,,,,,,,,,,,,,,,,,,,,,,,,,,,478.20126516601886,478.2075146250136,479.2011626250169,480.191925000021,480.191925000021,480.191925000021,482.3534972500056,left,2.1508727080072276,None,,,,,,,,,,,,,,,,,,,,,,,,,,,,,,,,,,,,,,,,895007,001,2024-11-28_15h54.28.907,Test,2024.2.4,None,2024-11-28 15h54.37.589600 +0100,
45,150,30,20,None,63,63,0,True,right,1.4407698329887353,None,,,,,,,,0,63,63,63,,,,,,,,,482.36892312500277,,,,,,,,,,,,,,,,,,,,,,,,,,,,,,,,,,,,,,482.3622904160002,482.36892312500277,483.35577554101474,484.3515479580092,484.3515479580092,484.3515479580092,485.803323250002,right,1.4407698329887353,None,,,,,,,,,,,,,,,,,,,,,,,,,,,,,,,,,,,,,,,,895007,001,2024-11-28_15h54.28.907,Test,2024.2.4,None,2024-11-28 15h54.37.589600 +0100,
30,150,150,11,None,64,64,0,False,right,0.7173120419902261,None,,,,,,,,0,64,64,64,,,,,,,,,485.8188848750142,,,,,,,,,,,,,,,,,,,,,,,,,,,,,,,,,,,,,,485.81179975002306,485.8188848750142,486.8063083750021,487.80144016601844,487.80144016601844,487.80144016601844,488.5292291660153,right,0.7173120419902261,None,,,,,,,,,,,,,,,,,,,,,,,,,,,,,,,,,,,,,,,,895007,001,2024-11-28_15h54.28.907,Test,2024.2.4,None,2024-11-28 15h54.37.589600 +0100,
6,150,30,3,None,65,65,0,False,left,2.5283986249996815,None,,,,,,,,0,65,65,65,,,,,,,,,488.5414624999976,,,,,,,,,,,,,,,,,,,,,,,,,,,,,,,,,,,,,,488.5367378750234,488.5414624999976,489.53994050002075,490.5249419580214,490.5249419580214,490.5249419580214,493.0598470000259,left,2.5283986249996815,None,,,,,,,,,,,,,,,,,,,,,,,,,,,,,,,,,,,,,,,,895007,001,2024-11-28_15h54.28.907,Test,2024.2.4,None,2024-11-28 15h54.37.589600 +0100,
3,150,0,14,None,66,66,0,False,left,1.0300717079953756,None,,,,,,,,0,66,66,66,,,,,,,,,493.0748308330076,,,,,,,,,,,,,,,,,,,,,,,,,,,,,,,,,,,,,,493.0678792500112,493.0748308330076,494.0724617500091,495.0583894580195,495.0583894580195,495.0583894580195,496.0923974580073,left,1.0300717079953756,None,,,,,,,,,,,,,,,,,,,,,,,,,,,,,,,,,,,,,,,,895007,001,2024-11-28_15h54.28.907,Test,2024.2.4,None,2024-11-28 15h54.37.589600 +0100,
59,150,120,39,None,67,67,0,True,left,1.5491549580183346,None,,,,,,,,0,67,67,67,,,,,,,,,496.1072003330046,,,,,,,,,,,,,,,,,,,,,,,,,,,,,,,,,,,,,,496.1005436660198,496.1072003330046,497.1011309160094,498.09167170801084,498.09167170801084,498.09167170801084,499.64342450001277,left,1.5491549580183346,None,,,,,,,,,,,,,,,,,,,,,,,,,,,,,,,,,,,,,,,,895007,001,2024-11-28_15h54.28.907,Test,2024.2.4,None,2024-11-28 15h54.37.589600 +0100,
8,150,30,26,None,68,68,0,False,left,1.7610042919986881,None,,,,,,,,0,68,68,68,,,,,,,,,499.6584773750219,,,,,,,,,,,,,,,,,,,,,,,,,,,,,,,,,,,,,,499.65227325001615,499.6584773750219,500.65573383300216,501.64155983302044,501.64155983302044,501.64155983302044,503.4093227080011,left,1.7610042919986881,None,,,,,,,,,,,,,,,,,,,,,,,,,,,,,,,,,,,,,,,,895007,001,2024-11-28_15h54.28.907,Test,2024.2.4,None,2024-11-28 15h54.37.589600 +0100,
49,150,60,34,None,69,69,0,True,right,0.9308920410112478,None,,,,,,,,0,69,69,69,,,,,,,,,503.4304362500261,,,,,,,,,,,,,,,,,,,,,,,,,,,,,,,,,,,,,,503.4245795410243,503.4304362500261,504.42245558300056,505.41275108300033,505.41275108300033,505.41275108300033,506.3533686250157,right,0.9308920410112478,None,,,,,,,,,,,,,,,,,,,,,,,,,,,,,,,,,,,,,,,,895007,001,2024-11-28_15h54.28.907,Test,2024.2.4,None,2024-11-28 15h54.37.589600 +0100,
,,,,,,,,,,,,,,,,,,,,,,,,,,,,,,,,,,,,,,,,,,,,,,,,,,,,,,,,,,,,,,,,,,,,,,,,,,,,,,,506.3536788330239,506.36379862501053,506.36379862501053,521.6430827500008,space,15.275221999996575,None,,,,,,,,,,,,,,,,,,,,,,,,,,,,,,,,,895007,001,2024-11-28_15h54.28.907,Test,2024.2.4,None,2024-11-28 15h54.37.589600 +0100,
29,150,150,42,None,0,0,0,,,,,,,,,,,,,,,,0,0,0,28,,,,,521.6704718750261,,,,,,,,,,,,,,,,,,,,,,,,,,,,,,,,,,,,,,,,,,,,,,,,,,,,,,,521.662019750016,521.6704718750261,521.8416051250242,521.8416051250242,521.867968208011,523.5500394160044,523.5500394160044,523.5358151250111,,,,,,,,,,,,,,,,,,,,,,,,,895007,001,2024-11-28_15h54.28.907,Test,2024.2.4,None,2024-11-28 15h54.37.589600 +0100,
8,150,30,26,None,1,1,0,,,,,,,,,,,,,,,,0,1,1,7,,,,,523.5500394160044,,,,,,,,,,,,,,,,,,,,,,,,,,,,,,,,,,,,,,,,,,,,,,,,,,,,,,,523.5443895830249,523.5500394160044,523.7414295000199,523.7414295000199,523.7414295000199,525.437757208012,525.437757208012,525.4254127910244,,,,,,,,,,,,,,,,,,,,,,,,,895007,001,2024-11-28_15h54.28.907,Test,2024.2.4,None,2024-11-28 15h54.37.589600 +0100,
10,150,30,57,None,2,2,0,,,,,,,,,,,,,,,,0,2,2,9,,,,,525.437757208012,,,,,,,,,,,,,,,,,,,,,,,,,,,,,,,,,,,,,,,,,,,,,,,,,,,,,,,525.433468208008,525.4513413330133,525.641599458002,525.641599458002,525.641599458002,527.3369376660266,527.3369376660266,527.3250678330078,,,,,,,,,,,,,,,,,,,,,,,,,895007,001,2024-11-28_15h54.28.907,Test,2024.2.4,None,2024-11-28 15h54.37.589600 +0100,
9,150,30,30,None,3,3,0,,,,,,,,,,,,,,,,0,3,3,8,,,,,527.3369376660266,,,,,,,,,,,,,,,,,,,,,,,,,,,,,,,,,,,,,,,,,,,,,,,,,,,,,,,527.3323674999992,527.3512732910167,527.5417970830167,527.5417970830167,527.5417970830167,529.2494275410136,529.2494275410136,529.235507416015,,,,,,,,,,,,,,,,,,,,,,,,,895007,001,2024-11-28_15h54.28.907,Test,2024.2.4,None,2024-11-28 15h54.37.589600 +0100,
16,150,90,51,None,4,4,0,,,,,,,,,,,,,,,,0,4,4,15,,,,,529.2494275410136,,,,,,,,,,,,,,,,,,,,,,,,,,,,,,,,,,,,,,,,,,,,,,,,,,,,,,,529.2440006660181,529.2494275410136,529.4417097910191,529.4417097910191,529.4417097910191,531.1366374159988,531.1366374159988,531.1248405000078,,,,,,,,,,,,,,,,,,,,,,,,,895007,001,2024-11-28_15h54.28.907,Test,2024.2.4,None,2024-11-28 15h54.37.589600 +0100,
18,150,90,38,None,5,5,0,,,,,,,,,,,,,,,,0,5,5,17,,,,,531.1366374159988,,,,,,,,,,,,,,,,,,,,,,,,,,,,,,,,,,,,,,,,,,,,,,,,,,,,,,,531.1322028750146,531.1511595830088,531.3415673330019,531.3415673330019,531.3415673330019,533.0491183749982,533.0491183749982,533.0356784160249,,,,,,,,,,,,,,,,,,,,,,,,,895007,001,2024-11-28_15h54.28.907,Test,2024.2.4,None,2024-11-28 15h54.37.589600 +0100,
22,150,120,68,None,6,6,0,,,,,,,,,,,,,,,,0,6,6,21,,,,,533.0491183749982,,,,,,,,,,,,,,,,,,,,,,,,,,,,,,,,,,,,,,,,,,,,,,,,,,,,,,,533.0437662080221,533.0491183749982,533.2423985830101,533.2423985830101,533.2423985830101,534.9489529580169,534.9489529580169,534.9356328330177,,,,,,,,,,,,,,,,,,,,,,,,,895007,001,2024-11-28_15h54.28.907,Test,2024.2.4,None,2024-11-28 15h54.37.589600 +0100,
2,150,0,1,None,7,7,0,,,,,,,,,,,,,,,,0,7,7,1,,,,,534.9489529580169,,,,,,,,,,,,,,,,,,,,,,,,,,,,,,,,,,,,,,,,,,,,,,,,,,,,,,,534.943391791021,534.9489529580169,535.1415603750211,535.1415603750211,535.1415603750211,536.8468548330129,536.8468548330129,536.835382875026,,,,,,,,,,,,,,,,,,,,,,,,,895007,001,2024-11-28_15h54.28.907,Test,2024.2.4,None,2024-11-28 15h54.37.589600 +0100,
28,150,150,13,None,8,8,0,,,,,,,,,,,,,,,,0,8,8,27,,,,,536.8468548330129,,,,,,,,,,,,,,,,,,,,,,,,,,,,,,,,,,,,,,,,,,,,,,,,,,,,,,,536.8414192500059,536.8468548330129,537.041229000024,537.041229000024,537.041229000024,538.7375460830226,538.7375460830226,538.724961083004,,,,,,,,,,,,,,,,,,,,,,,,,895007,001,2024-11-28_15h54.28.907,Test,2024.2.4,None,2024-11-28 15h54.37.589600 +0100,
31,150,180,29,None,9,9,0,,,,,,,,,,,,,,,,0,9,9,30,,,,,538.7375460830226,,,,,,,,,,,,,,,,,,,,,,,,,,,,,,,,,,,,,,,,,,,,,,,,,,,,,,,538.7332288330072,538.7512614580046,538.9410332080151,538.9410332080151,538.9410332080151,540.6369793750055,540.6369793750055,540.6247737910016,,,,,,,,,,,,,,,,,,,,,,,,,895007,001,2024-11-28_15h54.28.907,Test,2024.2.4,None,2024-11-28 15h54.37.589600 +0100,
15,150,60,23,None,10,10,0,,,,,,,,,,,,,,,,0,10,10,14,,,,,540.6369793750055,,,,,,,,,,,,,,,,,,,,,,,,,,,,,,,,,,,,,,,,,,,,,,,,,,,,,,,540.6326486250036,540.6511664999998,540.8413043750043,540.8413043750043,540.8413043750043,542.5369423330121,542.5369423330121,542.5246167910227,,,,,,,,,,,,,,,,,,,,,,,,,895007,001,2024-11-28_15h54.28.907,Test,2024.2.4,None,2024-11-28 15h54.37.589600 +0100,
13,150,60,40,None,11,11,0,,,,,,,,,,,,,,,,0,11,11,12,,,,,542.5369423330121,,,,,,,,,,,,,,,,,,,,,,,,,,,,,,,,,,,,,,,,,,,,,,,,,,,,,,,542.5328384160239,542.5514879160037,542.7417286249984,542.7417286249984,542.7417286249984,544.4375905409979,544.4375905409979,544.4254782080243,,,,,,,,,,,,,,,,,,,,,,,,,895007,001,2024-11-28_15h54.28.907,Test,2024.2.4,None,2024-11-28 15h54.37.589600 +0100,
23,150,120,9,None,12,12,0,,,,,,,,,,,,,,,,0,12,12,22,,,,,544.4375905409979,,,,,,,,,,,,,,,,,,,,,,,,,,,,,,,,,,,,,,,,,,,,,,,,,,,,,,,544.4335200830246,544.451128958026,544.6422715829976,544.6422715829976,544.6422715829976,546.3499775830132,546.3499775830132,546.3358248750155,,,,,,,,,,,,,,,,,,,,,,,,,895007,001,2024-11-28_15h54.28.907,Test,2024.2.4,None,2024-11-28 15h54.37.589600 +0100,
14,150,60,61,None,13,13,0,,,,,,,,,,,,,,,,0,13,13,13,,,,,546.3499775830132,,,,,,,,,,,,,,,,,,,,,,,,,,,,,,,,,,,,,,,,,,,,,,,,,,,,,,,546.3444831660017,546.3499775830132,546.541134250001,546.541134250001,546.541134250001,548.2504930410068,548.2504930410068,548.2363324160106,,,,,,,,,,,,,,,,,,,,,,,,,895007,001,2024-11-28_15h54.28.907,Test,2024.2.4,None,2024-11-28 15h54.37.589600 +0100,
12,150,60,46,None,14,14,0,,,,,,,,,,,,,,,,0,14,14,11,,,,,548.2504930410068,,,,,,,,,,,,,,,,,,,,,,,,,,,,,,,,,,,,,,,,,,,,,,,,,,,,,,,548.2451518750167,548.2504930410068,548.4414615830174,548.4414615830174,548.4414615830174,550.1368261250027,550.1368261250027,550.1248617500241,,,,,,,,,,,,,,,,,,,,,,,,,895007,001,2024-11-28_15h54.28.907,Test,2024.2.4,None,2024-11-28 15h54.37.589600 +0100,
1,150,0,69,None,15,15,0,,,,,,,,,,,,,,,,0,15,15,0,,,,,550.1368261250027,,,,,,,,,,,,,,,,,,,,,,,,,,,,,,,,,,,,,,,,,,,,,,,,,,,,,,,550.1323105000192,550.1513764160045,550.3413765000005,550.3413765000005,550.3413765000005,552.0366222080193,552.0366222080193,552.0246497080079,,,,,,,,,,,,,,,,,,,,,,,,,895007,001,2024-11-28_15h54.28.907,Test,2024.2.4,None,2024-11-28 15h54.37.589600 +0100,
17,150,90,56,None,16,16,0,,,,,,,,,,,,,,,,0,16,16,16,,,,,552.0366222080193,,,,,,,,,,,,,,,,,,,,,,,,,,,,,,,,,,,,,,,,,,,,,,,,,,,,,,,552.0318879999977,552.0512272909982,552.2412614580244,552.2412614580244,552.2412614580244,553.936785916012,553.936785916012,553.9244816660066,,,,,,,,,,,,,,,,,,,,,,,,,895007,001,2024-11-28_15h54.28.907,Test,2024.2.4,None,2024-11-28 15h54.37.589600 +0100,
4,150,0,35,None,17,17,0,,,,,,,,,,,,,,,,0,17,17,3,,,,,553.936785916012,,,,,,,,,,,,,,,,,,,,,,,,,,,,,,,,,,,,,,,,,,,,,,,,,,,,,,,553.9316500830173,553.9511258330022,554.1413273750222,554.1413273750222,554.1413273750222,555.8371214580256,555.8371214580256,555.8247965410119,,,,,,,,,,,,,,,,,,,,,,,,,895007,001,2024-11-28_15h54.28.907,Test,2024.2.4,None,2024-11-28 15h54.37.589600 +0100,
32,150,180,17,None,18,18,0,,,,,,,,,,,,,,,,0,18,18,31,,,,,555.8371214580256,,,,,,,,,,,,,,,,,,,,,,,,,,,,,,,,,,,,,,,,,,,,,,,,,,,,,,,555.8327258330246,555.8512166660221,556.0413923330198,556.0413923330198,556.0413923330198,557.736823083018,557.736823083018,557.7252463330224,,,,,,,,,,,,,,,,,,,,,,,,,895007,001,2024-11-28_15h54.28.907,Test,2024.2.4,None,2024-11-28 15h54.37.589600 +0100,
25,150,120,59,None,19,19,0,,,,,,,,,,,,,,,,0,19,19,24,,,,,557.736823083018,,,,,,,,,,,,,,,,,,,,,,,,,,,,,,,,,,,,,,,,,,,,,,,,,,,,,,,557.73251445801,557.7512574160064,557.9419367910014,557.9419367910014,557.9419367910014,559.6492464580224,559.6492464580224,559.6357647500117,,,,,,,,,,,,,,,,,,,,,,,,,895007,001,2024-11-28_15h54.28.907,Test,2024.2.4,None,2024-11-28 15h54.37.589600 +0100,
20,150,90,33,None,20,20,0,,,,,,,,,,,,,,,,0,20,20,19,,,,,559.6492464580224,,,,,,,,,,,,,,,,,,,,,,,,,,,,,,,,,,,,,,,,,,,,,,,,,,,,,,,559.6438910000143,559.6492464580224,559.841108749999,559.841108749999,559.841108749999,561.5430420410121,561.5430420410121,561.5253379160131,,,,,,,,,,,,,,,,,,,,,,,,,895007,001,2024-11-28_15h54.28.907,Test,2024.2.4,None,2024-11-28 15h54.37.589600 +0100,
30,150,150,11,None,21,21,0,,,,,,,,,,,,,,,,0,21,21,29,,,,,561.5430420410121,,,,,,,,,,,,,,,,,,,,,,,,,,,,,,,,,,,,,,,,,,,,,,,,,,,,,,,561.5385047500022,561.5512094580045,561.7428338750033,561.7428338750033,561.7428338750033,563.449948375026,563.449948375026,563.4354541250214,,,,,,,,,,,,,,,,,,,,,,,,,895007,001,2024-11-28_15h54.28.907,Test,2024.2.4,None,2024-11-28 15h54.37.589600 +0100,
7,150,30,66,None,22,22,0,,,,,,,,,,,,,,,,0,22,22,6,,,,,563.449948375026,,,,,,,,,,,,,,,,,,,,,,,,,,,,,,,,,,,,,,,,,,,,,,,,,,,,,,,563.4443901250197,563.449948375026,563.6415205000085,563.6415205000085,563.6415205000085,565.3412249580142,565.3412249580142,565.3250364160049,,,,,,,,,,,,,,,,,,,,,,,,,895007,001,2024-11-28_15h54.28.907,Test,2024.2.4,None,2024-11-28 15h54.37.589600 +0100,
26,150,150,62,None,23,23,0,,,,,,,,,,,,,,,,0,23,23,25,,,,,565.3412249580142,,,,,,,,,,,,,,,,,,,,,,,,,,,,,,,,,,,,,,,,,,,,,,,,,,,,,,,565.3365879160119,565.3511413329979,565.5432085830253,565.5432085830253,565.5432085830253,567.2513565830013,567.2513565830013,567.2356453750108,,,,,,,,,,,,,,,,,,,,,,,,,895007,001,2024-11-28_15h54.28.907,Test,2024.2.4,None,2024-11-28 15h54.37.589600 +0100,
11,150,60,44,None,24,24,0,,,,,,,,,,,,,,,,0,24,24,10,,,,,567.2513565830013,,,,,,,,,,,,,,,,,,,,,,,,,,,,,,,,,,,,,,,,,,,,,,,,,,,,,,,567.2459125000169,567.2513565830013,567.4416784580098,567.4416784580098,567.4416784580098,569.1383908330172,569.1383908330172,569.1248647910252,,,,,,,,,,,,,,,,,,,,,,,,,895007,001,2024-11-28_15h54.28.907,Test,2024.2.4,None,2024-11-28 15h54.37.589600 +0100,
19,150,90,50,None,25,25,0,,,,,,,,,,,,,,,,0,25,25,18,,,,,569.1383908330172,,,,,,,,,,,,,,,,,,,,,,,,,,,,,,,,,,,,,,,,,,,,,,,,,,,,,,,569.1338270000124,569.151317166019,569.3411165830039,569.3411165830039,569.3411165830039,571.0366144580184,571.0366144580184,571.0241615000123,,,,,,,,,,,,,,,,,,,,,,,,,895007,001,2024-11-28_15h54.28.907,Test,2024.2.4,None,2024-11-28 15h54.37.589600 +0100,
24,150,120,18,None,26,26,0,,,,,,,,,,,,,,,,0,26,26,23,,,,,571.0366144580184,,,,,,,,,,,,,,,,,,,,,,,,,,,,,,,,,,,,,,,,,,,,,,,,,,,,,,,571.0317328750098,571.0511938330019,571.2414242910163,571.2414242910163,571.2414242910163,572.937689000013,572.937689000013,572.9248793330044,,,,,,,,,,,,,,,,,,,,,,,,,895007,001,2024-11-28_15h54.28.907,Test,2024.2.4,None,2024-11-28 15h54.37.589600 +0100,
21,150,120,27,None,27,27,0,,,,,,,,,,,,,,,,0,27,27,20,,,,,572.937689000013,,,,,,,,,,,,,,,,,,,,,,,,,,,,,,,,,,,,,,,,,,,,,,,,,,,,,,,572.9337288330134,572.951051333017,573.1408097500098,573.1408097500098,573.1408097500098,574.8371655410156,574.8371655410156,574.8247562080214,,,,,,,,,,,,,,,,,,,,,,,,,895007,001,2024-11-28_15h54.28.907,Test,2024.2.4,None,2024-11-28 15h54.37.589600 +0100,
27,150,150,43,None,28,28,0,,,,,,,,,,,,,,,,0,28,28,26,,,,,574.8371655410156,,,,,,,,,,,,,,,,,,,,,,,,,,,,,,,,,,,,,,,,,,,,,,,,,,,,,,,574.8326645000197,574.8512181660044,575.0418257080019,575.0418257080019,575.0418257080019,576.737949833012,576.737949833012,576.724932541023,,,,,,,,,,,,,,,,,,,,,,,,,895007,001,2024-11-28_15h54.28.907,Test,2024.2.4,None,2024-11-28 15h54.37.589600 +0100,
6,150,30,3,None,29,29,0,,,,,,,,,,,,,,,,0,29,29,5,,,,,576.737949833012,,,,,,,,,,,,,,,,,,,,,,,,,,,,,,,,,,,,,,,,,,,,,,,,,,,,,,,576.7335020410246,576.7512576660083,576.9418205410184,576.9418205410184,576.9418205410184,578.6493665410089,578.6493665410089,578.6355081250076,,,,,,,,,,,,,,,,,,,,,,,,,895007,001,2024-11-28_15h54.28.907,Test,2024.2.4,None,2024-11-28 15h54.37.589600 +0100,
33,150,180,12,None,30,30,0,,,,,,,,,,,,,,,,0,30,30,32,,,,,578.6493665410089,,,,,,,,,,,,,,,,,,,,,,,,,,,,,,,,,,,,,,,,,,,,,,,,,,,,,,,578.6437677500071,578.6493665410089,578.8416937080037,578.8416937080037,578.8416937080037,580.5385962080036,580.5385962080036,580.5250201660092,,,,,,,,,,,,,,,,,,,,,,,,,895007,001,2024-11-28_15h54.28.907,Test,2024.2.4,None,2024-11-28 15h54.37.589600 +0100,
34,150,180,54,None,31,31,0,,,,,,,,,,,,,,,,0,31,31,33,,,,,580.5385962080036,,,,,,,,,,,,,,,,,,,,,,,,,,,,,,,,,,,,,,,,,,,,,,,,,,,,,,,580.5339117080148,580.5512785830069,580.7416314160218,580.7416314160218,580.7416314160218,582.4492057910247,582.4492057910247,582.4356500410067,,,,,,,,,,,,,,,,,,,,,,,,,895007,001,2024-11-28_15h54.28.907,Test,2024.2.4,None,2024-11-28 15h54.37.589600 +0100,
35,150,180,45,None,32,32,0,,,,,,,,,,,,,,,,0,32,32,34,,,,,582.4492057910247,,,,,,,,,,,,,,,,,,,,,,,,,,,,,,,,,,,,,,,,,,,,,,,,,,,,,,,582.4437745830219,582.4492057910247,582.6414913330227,582.6414913330227,582.6414913330227,584.3371617910161,584.3371617910161,584.3247988750227,,,,,,,,,,,,,,,,,,,,,,,,,895007,001,2024-11-28_15h54.28.907,Test,2024.2.4,None,2024-11-28 15h54.37.589600 +0100,
5,150,0,15,None,33,33,0,,,,,,,,,,,,,,,,0,33,33,4,,,,,584.3371617910161,,,,,,,,,,,,,,,,,,,,,,,,,,,,,,,,,,,,,,,,,,,,,,,,,,,,,,,584.3327871250222,584.3512030410056,584.5415510410094,584.5415510410094,584.5415510410094,586.249828666012,586.249828666012,586.2357947500132,,,,,,,,,,,,,,,,,,,,,,,,,895007,001,2024-11-28_15h54.28.907,Test,2024.2.4,None,2024-11-28 15h54.37.589600 +0100,
3,150,0,14,None,34,34,0,,,,,,,,,,,,,,,,0,34,34,2,,,,,586.249828666012,,,,,,,,,,,,,,,,,,,,,,,,,,,,,,,,,,,,,,,,,,,,,,,,,,,,,,,586.244471166021,586.249828666012,586.4416505410045,586.4416505410045,586.4416505410045,588.1349168330198,588.1349168330198,588.1252443330013,,,,,,,,,,,,,,,,,,,,,,,,,895007,001,2024-11-28_15h54.28.907,Test,2024.2.4,None,2024-11-28 15h54.37.589600 +0100,
,,,,,,,,,,,,,,,,,,,,,,,,,,,,,,,,,,,,,,,,,,,,,,,,,,,,,,,,,,,,,,,,,,,,,,,,,,,,,,,,,,,,,,,,,,,,,,588.1254452910216,588.1428910410032,588.1428910410032,590.2374996250146,space,2.091903666005237,None,,,,,,,,,,,,,,,,,,895007,001,2024-11-28_15h54.28.907,Test,2024.2.4,None,2024-11-28 15h54.37.589600 +0100,
57,150,120,25,None,0,0,0,True,,,,left,0.9501287919993047,None,,,,,,,,,,,,,0,0,0,0,590.3431365410215,,,,,,,,,,,,,,,,,,,,,,,,,,,,,,,,,,,,,,,,,,,,,,,,,,,,,,,,,,,,,,,,,,,,,,590.337380291021,590.3431365410215,591.3399500410014,592.2346644580248,592.2346644580248,592.2346644580248,593.1876496660116,left,0.9501287919993047,None,,,,,,,,895007,001,2024-11-28_15h54.28.907,Test,2024.2.4,None,2024-11-28 15h54.37.589600 +0100,
13,150,60,40,None,1,1,0,False,,,,right,0.6644670419918839,None,,,,,,,,,,,,,0,1,1,1,593.203343791014,,,,,,,,,,,,,,,,,,,,,,,,,,,,,,,,,,,,,,,,,,,,,,,,,,,,,,,,,,,,,,,,,,,,,,593.1965025830141,593.203343791014,594.2013474580017,595.1847318750224,595.1847318750224,595.1847318750224,595.8534007080016,right,0.6644670419918839,None,,,,,,,,895007,001,2024-11-28_15h54.28.907,Test,2024.2.4,None,2024-11-28 15h54.37.589600 +0100,
28,150,150,13,None,2,2,0,False,,,,right,0.7369506249960978,None,,,,,,,,,,,,,0,2,2,2,595.8685407080047,,,,,,,,,,,,,,,,,,,,,,,,,,,,,,,,,,,,,,,,,,,,,,,,,,,,,,,,,,,,,,,,,,,,,,595.8617776250176,595.8685407080047,596.8557565000083,597.851463916013,597.851463916013,597.851463916013,598.5931281250087,right,0.7369506249960978,None,,,,,,,,895007,001,2024-11-28_15h54.28.907,Test,2024.2.4,None,2024-11-28 15h54.37.589600 +0100,
48,150,60,5,None,3,3,0,True,,,,right,0.6943551669828594,None,,,,,,,,,,,,,0,3,3,3,598.607342791016,,,,,,,,,,,,,,,,,,,,,,,,,,,,,,,,,,,,,,,,,,,,,,,,,,,,,,,,,,,,,,,,,,,,,,598.6014103750058,598.607342791016,599.6012822500197,600.5915696660231,600.5915696660231,600.5915696660231,601.2929488750233,right,0.6943551669828594,None,,,,,,,,895007,001,2024-11-28_15h54.28.907,Test,2024.2.4,None,2024-11-28 15h54.37.589600 +0100,
4,150,0,35,None,4,4,0,False,,,,left,0.8330394999939017,None,,,,,,,,,,,,,0,4,4,4,601.3071440830245,,,,,,,,,,,,,,,,,,,,,,,,,,,,,,,,,,,,,,,,,,,,,,,,,,,,,,,,,,,,,,,,,,,,,,601.3011718750058,601.3071440830245,602.3012050830002,603.2926085409999,603.2926085409999,603.2926085409999,604.135893166007,left,0.8330394999939017,None,,,,,,,,895007,001,2024-11-28_15h54.28.907,Test,2024.2.4,None,2024-11-28 15h54.37.589600 +0100,
9,150,30,30,None,5,5,0,False,,,,right,0.9332782499841414,None,,,,,,,,,,,,,0,5,5,5,604.1475629580091,,,,,,,,,,,,,,,,,,,,,,,,,,,,,,,,,,,,,,,,,,,,,,,,,,,,,,,,,,,,,,,,,,,,,,604.1429835830058,604.1475629580091,605.139440583007,606.1349682500004,606.1349682500004,606.1349682500004,607.0706339160097,right,0.9332782499841414,None,,,,,,,,895007,001,2024-11-28_15h54.28.907,Test,2024.2.4,None,2024-11-28 15h54.37.589600 +0100,
65,150,150,52,None,6,6,0,True,,,,right,0.9007470000069588,None,,,,,,,,,,,,,0,6,6,6,607.0860262910137,,,,,,,,,,,,,,,,,,,,,,,,,,,,,,,,,,,,,,,,,,,,,,,,,,,,,,,,,,,,,,,,,,,,,,607.0794063330104,607.0860262910137,608.0847580410191,609.0681336660055,609.0681336660055,609.0681336660055,609.9794706660032,right,0.9007470000069588,None,,,,,,,,895007,001,2024-11-28_15h54.28.907,Test,2024.2.4,None,2024-11-28 15h54.37.589600 +0100,
31,150,180,29,None,7,7,0,False,,,,right,0.8098454169812612,None,,,,,,,,,,,,,0,7,7,7,609.9913419580262,,,,,,,,,,,,,,,,,,,,,,,,,,,,,,,,,,,,,,,,,,,,,,,,,,,,,,,,,,,,,,,,,,,,,,609.9867199160217,609.9913419580262,610.9898498330149,611.9749880830059,611.9749880830059,611.9749880830059,612.7875495410117,right,0.8098454169812612,None,,,,,,,,895007,001,2024-11-28_15h54.28.907,Test,2024.2.4,None,2024-11-28 15h54.37.589600 +0100,
17,150,90,56,None,8,8,0,False,,,,right,0.7453119999845512,None,,,,,,,,,,,,,0,8,8,8,612.8021072499978,,,,,,,,,,,,,,,,,,,,,,,,,,,,,,,,,,,,,,,,,,,,,,,,,,,,,,,,,,,,,,,,,,,,,,612.7953672500153,612.8021072499978,613.7893684580049,614.7848023330153,614.7848023330153,614.7848023330153,615.5366183750157,right,0.7453119999845512,None,,,,,,,,895007,001,2024-11-28_15h54.28.907,Test,2024.2.4,None,2024-11-28 15h54.37.589600 +0100,
64,150,150,19,None,9,9,0,True,,,,right,0.7203800840070471,None,,,,,,,,,,,,,0,9,9,9,615.5523495000089,,,,,,,,,,,,,,,,,,,,,,,,,,,,,,,,,,,,,,,,,,,,,,,,,,,,,,,,,,,,,,,,,,,,,,615.5452946660225,615.5523495000089,616.5393280000135,617.5347757080162,617.5347757080162,617.5347757080162,618.2577107910183,right,0.7203800840070471,None,,,,,,,,895007,001,2024-11-28_15h54.28.907,Test,2024.2.4,None,2024-11-28 15h54.37.589600 +0100,
33,150,180,12,None,10,10,0,False,,,,left,0.8269803329894785,None,,,,,,,,,,,,,0,10,10,10,618.2698480000254,,,,,,,,,,,,,,,,,,,,,,,,,,,,,,,,,,,,,,,,,,,,,,,,,,,,,,,,,,,,,,,,,,,,,,618.263554041012,618.2698480000254,619.2679365830263,620.2587390830158,620.2587390830158,620.2587390830158,621.0931005410093,left,0.8269803329894785,None,,,,,,,,895007,001,2024-11-28_15h54.28.907,Test,2024.2.4,None,2024-11-28 15h54.37.589600 +0100,
18,150,90,38,None,11,11,0,False,,,,right,1.0204461660177913,None,,,,,,,,,,,,,0,11,11,11,621.107342333009,,,,,,,,,,,,,,,,,,,,,,,,,,,,,,,,,,,,,,,,,,,,,,,,,,,,,,,,,,,,,,,,,,,,,,621.1014628749981,621.107342333009,622.1065861250099,623.0922689580184,623.0922689580184,623.0922689580184,624.1199820830079,right,1.0204461660177913,None,,,,,,,,895007,001,2024-11-28_15h54.28.907,Test,2024.2.4,None,2024-11-28 15h54.37.589600 +0100,
38,150,0,36,None,12,12,0,True,,,,left,0.6539493749733083,None,,,,,,,,,,,,,0,12,12,12,624.1337578750099,,,,,,,,,,,,,,,,,,,,,,,,,,,,,,,,,,,,,,,,,,,,,,,,,,,,,,,,,,,,,,,,,,,,,,624.1279181250138,624.1337578750099,625.1231942500162,626.1181587080064,626.1181587080064,626.1181587080064,626.7758066250244,left,0.6539493749733083,None,,,,,,,,895007,001,2024-11-28_15h54.28.907,Test,2024.2.4,None,2024-11-28 15h54.37.589600 +0100,
39,150,0,48,None,13,13,0,True,,,,left,0.7867319580109324,None,,,,,,,,,,,,,0,13,13,13,626.7905990410072,,,,,,,,,,,,,,,,,,,,,,,,,,,,,,,,,,,,,,,,,,,,,,,,,,,,,,,,,,,,,,,,,,,,,,626.7845357080223,626.7905990410072,627.784485000011,628.7749384580238,628.7749384580238,628.7749384580238,629.5698969160148,left,0.7867319580109324,None,,,,,,,,895007,001,2024-11-28_15h54.28.907,Test,2024.2.4,None,2024-11-28 15h54.37.589600 +0100,
55,150,90,64,None,14,14,0,True,,,,left,0.9915081250073854,None,,,,,,,,,,,,,0,14,14,14,629.5849420000159,,,,,,,,,,,,,,,,,,,,,,,,,,,,,,,,,,,,,,,,,,,,,,,,,,,,,,,,,,,,,,,,,,,,,,629.5784830830235,629.5849420000159,630.5724220000266,631.5677374580118,631.5677374580118,631.5677374580118,632.5698707080155,left,0.9915081250073854,None,,,,,,,,895007,001,2024-11-28_15h54.28.907,Test,2024.2.4,None,2024-11-28 15h54.37.589600 +0100,
58,150,120,10,None,15,15,0,True,,,,right,0.7108242499816697,None,,,,,,,,,,,,,0,15,15,15,632.5845881249988,,,,,,,,,,,,,,,,,,,,,,,,,,,,,,,,,,,,,,,,,,,,,,,,,,,,,,,,,,,,,,,,,,,,,,632.5784877080005,632.5845881249988,633.5722937910177,634.5680250830192,634.5680250830192,634.5680250830192,635.2868209580192,right,0.7108242499816697,None,,,,,,,,895007,001,2024-11-28_15h54.28.907,Test,2024.2.4,None,2024-11-28 15h54.37.589600 +0100,
26,150,150,62,None,16,16,0,False,,,,right,0.6953355419973377,None,,,,,,,,,,,,,0,16,16,16,635.3086550830049,,,,,,,,,,,,,,,,,,,,,,,,,,,,,,,,,,,,,,,,,,,,,,,,,,,,,,,,,,,,,,,,,,,,,,635.3026204160124,635.3086550830049,636.3073762910208,637.2837745830184,637.2837745830184,637.2837745830184,637.9866443330247,right,0.6953355419973377,None,,,,,,,,895007,001,2024-11-28_15h54.28.907,Test,2024.2.4,None,2024-11-28 15h54.37.589600 +0100,
66,150,180,21,None,17,17,0,True,,,,right,0.8344868750136811,None,,,,,,,,,,,,,0,17,17,17,638.002676041011,,,,,,,,,,,,,,,,,,,,,,,,,,,,,,,,,,,,,,,,,,,,,,,,,,,,,,,,,,,,,,,,,,,,,,637.9965157080151,638.002676041011,639.001200166007,639.9847639159998,639.9847639159998,639.9847639159998,640.8266861250158,right,0.8344868750136811,None,,,,,,,,895007,001,2024-11-28_15h54.28.907,Test,2024.2.4,None,2024-11-28 15h54.37.589600 +0100,
62,150,150,4,None,18,18,0,True,,,,left,1.0270416249986738,None,,,,,,,,,,,,,0,18,18,18,640.8411960410012,,,,,,,,,,,,,,,,,,,,,,,,,,,,,,,,,,,,,,,,,,,,,,,,,,,,,,,,,,,,,,,,,,,,,,640.8353719580045,640.8411960410012,641.8399537080259,642.8252233750245,642.8252233750245,642.8252233750245,643.863186750008,left,1.0270416249986738,None,,,,,,,,895007,001,2024-11-28_15h54.28.907,Test,2024.2.4,None,2024-11-28 15h54.37.589600 +0100,
7,150,30,66,None,19,19,0,False,,,,left,1.1614755000045989,None,,,,,,,,,,,,,0,19,19,19,643.875068666006,,,,,,,,,,,,,,,,,,,,,,,,,,,,,,,,,,,,,,,,,,,,,,,,,,,,,,,,,,,,,,,,,,,,,,643.870292208012,643.875068666006,644.8737494579982,645.8580882910173,645.8580882910173,645.8580882910173,647.027097208018,left,1.1614755000045989,None,,,,,,,,895007,001,2024-11-28_15h54.28.907,Test,2024.2.4,None,2024-11-28 15h54.37.589600 +0100,
61,150,150,41,None,20,20,0,True,,,,right,1.229375249997247,None,,,,,,,,,,,,,0,20,20,20,647.0413608330127,,,,,,,,,,,,,,,,,,,,,,,,,,,,,,,,,,,,,,,,,,,,,,,,,,,,,,,,,,,,,,,,,,,,,,647.0356473750144,647.0413608330127,648.0346175830055,649.024469875003,649.024469875003,649.024469875003,650.2591108750203,right,1.229375249997247,None,,,,,,,,895007,001,2024-11-28_15h54.28.907,Test,2024.2.4,None,2024-11-28 15h54.37.589600 +0100,
51,150,90,7,None,21,21,0,True,,,,left,1.2628031249914784,None,,,,,,,,,,,,,0,21,21,21,650.2735686250089,,,,,,,,,,,,,,,,,,,,,,,,,,,,,,,,,,,,,,,,,,,,,,,,,,,,,,,,,,,,,,,,,,,,,,650.2671348750009,650.2735686250089,651.267990250024,652.2582300830109,652.2582300830109,652.2582300830109,653.5266027910111,left,1.2628031249914784,None,,,,,,,,895007,001,2024-11-28_15h54.28.907,Test,2024.2.4,None,2024-11-28 15h54.37.589600 +0100,
25,150,120,59,None,22,22,0,False,,,,right,0.8653025410021655,None,,,,,,,,,,,,,0,22,22,22,653.5414879580203,,,,,,,,,,,,,,,,,,,,,,,,,,,,,,,,,,,,,,,,,,,,,,,,,,,,,,,,,,,,,,,,,,,,,,653.5354592910153,653.5414879580203,654.5400455000054,655.5257410000195,655.5257410000195,655.5257410000195,656.3932774160057,right,0.8653025410021655,None,,,,,,,,895007,001,2024-11-28_15h54.28.907,Test,2024.2.4,None,2024-11-28 15h54.37.589600 +0100,
5,150,0,15,None,23,23,0,False,,,,right,0.8937024589977227,None,,,,,,,,,,,,,0,23,23,23,656.4074431250046,,,,,,,,,,,,,,,,,,,,,,,,,,,,,,,,,,,,,,,,,,,,,,,,,,,,,,,,,,,,,,,,,,,,,,656.4008717500255,656.4074431250046,657.4012561250129,658.3911553330254,658.3911553330254,658.3911553330254,659.2870522910089,right,0.8937024589977227,None,,,,,,,,895007,001,2024-11-28_15h54.28.907,Test,2024.2.4,None,2024-11-28 15h54.37.589600 +0100,
10,150,30,57,None,24,24,0,False,,,,right,0.9247472909919452,None,,,,,,,,,,,,,0,24,24,24,659.3022398750181,,,,,,,,,,,,,,,,,,,,,,,,,,,,,,,,,,,,,,,,,,,,,,,,,,,,,,,,,,,,,,,,,,,,,,659.2958913330222,659.3022398750181,660.2900067080045,661.2846421660215,661.2846421660215,661.2846421660215,662.2202480410051,right,0.9247472909919452,None,,,,,,,,895007,001,2024-11-28_15h54.28.907,Test,2024.2.4,None,2024-11-28 15h54.37.589600 +0100,
27,150,150,43,None,25,25,0,False,,,,right,0.7611328749917448,None,,,,,,,,,,,,,0,25,25,25,662.2346670410188,,,,,,,,,,,,,,,,,,,,,,,,,,,,,,,,,,,,,,,,,,,,,,,,,,,,,,,,,,,,,,,,,,,,,,662.2278573330259,662.2346670410188,663.2227798330132,664.2180196250265,664.2180196250265,664.2180196250265,664.9867760000052,right,0.7611328749917448,None,,,,,,,,895007,001,2024-11-28_15h54.28.907,Test,2024.2.4,None,2024-11-28 15h54.37.589600 +0100,
20,150,90,33,None,26,26,0,False,,,,right,0.7337196659937035,None,,,,,,,,,,,,,0,26,26,26,665.0020048750157,,,,,,,,,,,,,,,,,,,,,,,,,,,,,,,,,,,,,,,,,,,,,,,,,,,,,,,,,,,,,,,,,,,,,,664.995083708025,665.0020048750157,665.9907417500217,666.984896791022,666.984896791022,666.984896791022,667.7294322079979,right,0.7337196659937035,None,,,,,,,,895007,001,2024-11-28_15h54.28.907,Test,2024.2.4,None,2024-11-28 15h54.37.589600 +0100,
19,150,90,50,None,27,27,0,False,,,,right,1.0992136669810861,None,,,,,,,,,,,,,0,27,27,27,667.7414813750074,,,,,,,,,,,,,,,,,,,,,,,,,,,,,,,,,,,,,,,,,,,,,,,,,,,,,,,,,,,,,,,,,,,,,,667.7368281250237,667.7414813750074,668.7402434580144,669.7251201250183,669.7251201250183,669.7251201250183,670.826792833017,right,1.0992136669810861,None,,,,,,,,895007,001,2024-11-28_15h54.28.907,Test,2024.2.4,None,2024-11-28 15h54.37.589600 +0100,
16,150,90,51,None,28,28,0,False,,,,right,0.848908207990462,None,,,,,,,,,,,,,0,28,28,28,670.8419254160253,,,,,,,,,,,,,,,,,,,,,,,,,,,,,,,,,,,,,,,,,,,,,,,,,,,,,,,,,,,,,,,,,,,,,,670.8356657080003,670.8419254160253,671.8402227080078,672.8258625000017,672.8258625000017,672.8258625000017,673.6768493330164,right,0.848908207990462,None,,,,,,,,895007,001,2024-11-28_15h54.28.907,Test,2024.2.4,None,2024-11-28 15h54.37.589600 +0100,
14,150,60,61,None,29,29,0,False,,,,right,0.6666126660129521,None,,,,,,,,,,,,,0,29,29,29,673.6920035000076,,,,,,,,,,,,,,,,,,,,,,,,,,,,,,,,,,,,,,,,,,,,,,,,,,,,,,,,,,,,,,,,,,,,,,673.6858182910073,673.6920035000076,674.690098000021,675.6744313750241,675.6744313750241,675.6744313750241,676.3438629580196,right,0.6666126660129521,None,,,,,,,,895007,001,2024-11-28_15h54.28.907,Test,2024.2.4,None,2024-11-28 15h54.37.589600 +0100,
24,150,120,18,None,30,30,0,False,,,,right,0.8166399159817956,None,,,,,,,,,,,,,0,30,30,30,676.3581327910069,,,,,,,,,,,,,,,,,,,,,,,,,,,,,,,,,,,,,,,,,,,,,,,,,,,,,,,,,,,,,,,,,,,,,,676.3523300410016,676.3581327910069,677.3515979580116,678.3425334580243,678.3425334580243,678.3425334580243,679.1700757500075,right,0.8166399159817956,None,,,,,,,,895007,001,2024-11-28_15h54.28.907,Test,2024.2.4,None,2024-11-28 15h54.37.589600 +0100,
35,150,180,45,None,31,31,0,False,,,,right,1.0605470419977792,None,,,,,,,,,,,,,0,31,31,31,679.1848067910178,,,,,,,,,,,,,,,,,,,,,,,,,,,,,,,,,,,,,,,,,,,,,,,,,,,,,,,,,,,,,,,,,,,,,,679.1777839580027,679.1848067910178,680.1726452500152,681.1679831250221,681.1679831250221,681.1679831250221,682.2369478750043,right,1.0605470419977792,None,,,,,,,,895007,001,2024-11-28_15h54.28.907,Test,2024.2.4,None,2024-11-28 15h54.37.589600 +0100,
41,150,30,22,None,32,32,0,True,,,,left,0.6441318749857601,None,,,,,,,,,,,,,0,32,32,32,682.2523539160029,,,,,,,,,,,,,,,,,,,,,,,,,,,,,,,,,,,,,,,,,,,,,,,,,,,,,,,,,,,,,,,,,,,,,,682.2460616660246,682.2523539160029,683.2511487910233,684.2349401660031,684.2349401660031,684.2349401660031,684.8867187080032,left,0.6441318749857601,None,,,,,,,,895007,001,2024-11-28_15h54.28.907,Test,2024.2.4,None,2024-11-28 15h54.37.589600 +0100,
47,150,60,47,None,33,33,0,True,,,,left,0.8848422919982113,None,,,,,,,,,,,,,0,33,33,33,684.9005064160156,,,,,,,,,,,,,,,,,,,,,,,,,,,,,,,,,,,,,,,,,,,,,,,,,,,,,,,,,,,,,,,,,,,,,,684.8945695000002,684.9005064160156,685.889929833007,686.8846212910139,686.8846212910139,686.8846212910139,687.7765173330263,left,0.8848422919982113,None,,,,,,,,895007,001,2024-11-28_15h54.28.907,Test,2024.2.4,None,2024-11-28 15h54.37.589600 +0100,
36,150,0,37,None,34,34,0,True,,,,left,0.8559360830113292,None,,,,,,,,,,,,,0,34,34,34,687.7907089580258,,,,,,,,,,,,,,,,,,,,,,,,,,,,,,,,,,,,,,,,,,,,,,,,,,,,,,,,,,,,,,,,,,,,,,687.7845199580188,687.7907089580258,688.7846399160044,689.7756144580198,689.7756144580198,689.7756144580198,690.6372517080163,left,0.8559360830113292,None,,,,,,,,895007,001,2024-11-28_15h54.28.907,Test,2024.2.4,None,2024-11-28 15h54.37.589600 +0100,
67,150,180,6,None,35,35,0,True,,,,right,0.8352522079949267,None,,,,,,,,,,,,,0,35,35,35,690.6523040410248,,,,,,,,,,,,,,,,,,,,,,,,,,,,,,,,,,,,,,,,,,,,,,,,,,,,,,,,,,,,,,,,,,,,,,690.645995333005,690.6523040410248,691.6402503749996,692.6346072080196,692.6346072080196,692.6346072080196,693.476378583,right,0.8352522079949267,None,,,,,,,,895007,001,2024-11-28_15h54.28.907,Test,2024.2.4,None,2024-11-28 15h54.37.589600 +0100,
56,150,120,16,None,36,36,0,True,,,,left,0.761283916013781,None,,,,,,,,,,,,,0,36,36,36,693.4907254160207,,,,,,,,,,,,,,,,,,,,,,,,,,,,,,,,,,,,,,,,,,,,,,,,,,,,,,,,,,,,,,,,,,,,,,693.4848631659988,693.4907254160207,694.4846118330024,695.4745789160079,695.4745789160079,695.4745789160079,696.2433695000072,left,0.761283916013781,None,,,,,,,,895007,001,2024-11-28_15h54.28.907,Test,2024.2.4,None,2024-11-28 15h54.37.589600 +0100,
43,150,30,31,None,37,37,0,True,,,,left,0.5979861670057289,None,,,,,,,,,,,,,0,37,37,37,696.2578202910081,,,,,,,,,,,,,,,,,,,,,,,,,,,,,,,,,,,,,,,,,,,,,,,,,,,,,,,,,,,,,,,,,,,,,,696.2512111250253,696.2578202910081,697.2514811660221,698.241533500026,698.241533500026,698.241533500026,698.8432191250031,left,0.5979861670057289,None,,,,,,,,895007,001,2024-11-28_15h54.28.907,Test,2024.2.4,None,2024-11-28 15h54.37.589600 +0100,
70,150,180,32,None,38,38,0,True,,,,right,0.8109664170187898,None,,,,,,,,,,,,,0,38,38,38,698.8575981660106,,,,,,,,,,,,,,,,,,,,,,,,,,,,,,,,,,,,,,,,,,,,,,,,,,,,,,,,,,,,,,,,,,,,,,698.851543458004,698.8575981660106,699.8512970000156,700.8413555410225,700.8413555410225,700.8413555410225,701.6594736250117,right,0.8109664170187898,None,,,,,,,,895007,001,2024-11-28_15h54.28.907,Test,2024.2.4,None,2024-11-28 15h54.37.589600 +0100,
50,150,60,2,None,39,39,0,True,,,,left,0.9179794999945443,None,,,,,,,,,,,,,0,39,39,39,701.6736260410107,,,,,,,,,,,,,,,,,,,,,,,,,,,,,,,,,,,,,,,,,,,,,,,,,,,,,,,,,,,,,,,,,,,,,,701.6676860000007,701.6736260410107,702.667966958019,703.6584969160031,703.6584969160031,703.6584969160031,704.5865299160068,left,0.9179794999945443,None,,,,,,,,895007,001,2024-11-28_15h54.28.907,Test,2024.2.4,None,2024-11-28 15h54.37.589600 +0100,
52,150,90,65,None,40,40,0,True,,,,right,1.119600291014649,None,,,,,,,,,,,,,0,40,40,40,704.6013819159998,,,,,,,,,,,,,,,,,,,,,,,,,,,,,,,,,,,,,,,,,,,,,,,,,,,,,,,,,,,,,,,,,,,,,,704.5943462910072,704.6013819159998,705.5895140830253,706.584817875002,706.584817875002,706.584817875002,707.7093519160117,right,1.119600291014649,None,,,,,,,,895007,001,2024-11-28_15h54.28.907,Test,2024.2.4,None,2024-11-28 15h54.37.589600 +0100,
29,150,150,42,None,41,41,0,False,,,,left,1.0992995419946965,None,,,,,,,,,,,,,0,41,41,41,707.7238632080262,,,,,,,,,,,,,,,,,,,,,,,,,,,,,,,,,,,,,,,,,,,,,,,,,,,,,,,,,,,,,,,,,,,,,,707.7172705000266,707.7238632080262,708.7179942500079,709.7084639579989,709.7084639579989,709.7084639579989,710.810222125001,left,1.0992995419946965,None,,,,,,,,895007,001,2024-11-28_15h54.28.907,Test,2024.2.4,None,2024-11-28 15h54.37.589600 +0100,
23,150,120,9,None,42,42,0,False,,,,right,0.9643269999942277,None,,,,,,,,,,,,,0,42,42,42,710.8247600830218,,,,,,,,,,,,,,,,,,,,,,,,,,,,,,,,,,,,,,,,,,,,,,,,,,,,,,,,,,,,,,,,,,,,,,710.8189929159998,710.8247600830218,711.8235512500105,712.808007833024,712.808007833024,712.808007833024,713.7767268330208,right,0.9643269999942277,None,,,,,,,,895007,001,2024-11-28_15h54.28.907,Test,2024.2.4,None,2024-11-28 15h54.37.589600 +0100,
42,150,30,58,None,43,43,0,True,,,,left,1.0618335840117652,None,,,,,,,,,,,,,0,43,43,43,713.7904652500001,,,,,,,,,,,,,,,,,,,,,,,,,,,,,,,,,,,,,,,,,,,,,,,,,,,,,,,,,,,,,,,,,,,,,,713.7846059160074,713.7904652500001,714.7846116660221,715.774652291002,715.774652291002,715.774652291002,716.84395679101,left,1.0618335840117652,None,,,,,,,,895007,001,2024-11-28_15h54.28.907,Test,2024.2.4,None,2024-11-28 15h54.37.589600 +0100,
68,150,180,8,None,44,44,0,True,,,,left,1.22300716600148,None,,,,,,,,,,,,,0,44,44,44,716.8586547910236,,,,,,,,,,,,,,,,,,,,,,,,,,,,,,,,,,,,,,,,,,,,,,,,,,,,,,,,,,,,,,,,,,,,,,716.8524524579989,716.8586547910236,717.851432541007,718.8428353330237,718.8428353330237,718.8428353330237,720.070054041018,left,1.22300716600148,None,,,,,,,,895007,001,2024-11-28_15h54.28.907,Test,2024.2.4,None,2024-11-28 15h54.37.589600 +0100,
69,150,180,70,None,45,45,0,True,,,,right,0.8686217919748742,None,,,,,,,,,,,,,0,45,45,45,720.0851977080165,,,,,,,,,,,,,,,,,,,,,,,,,,,,,,,,,,,,,,,,,,,,,,,,,,,,,,,,,,,,,,,,,,,,,,720.0784407080209,720.0851977080165,721.0731780830247,722.0681127910211,722.0681127910211,722.0681127910211,722.9427696659986,right,0.8686217919748742,None,,,,,,,,895007,001,2024-11-28_15h54.28.907,Test,2024.2.4,None,2024-11-28 15h54.37.589600 +0100,
15,150,60,23,None,46,46,0,False,,,,right,1.5931205420056358,None,,,,,,,,,,,,,0,46,46,46,722.9573941249982,,,,,,,,,,,,,,,,,,,,,,,,,,,,,,,,,,,,,,,,,,,,,,,,,,,,,,,,,,,,,,,,,,,,,,722.9514388750249,722.9573941249982,723.9513715830108,724.9424422500015,724.9424422500015,724.9424422500015,726.5386878330028,right,1.5931205420056358,None,,,,,,,,895007,001,2024-11-28_15h54.28.907,Test,2024.2.4,None,2024-11-28 15h54.37.589600 +0100,
46,150,60,49,None,47,47,0,True,,,,left,1.0787447500042617,None,,,,,,,,,,,,,0,47,47,47,726.5534441659984,,,,,,,,,,,,,,,,,,,,,,,,,,,,,,,,,,,,,,,,,,,,,,,,,,,,,,,,,,,,,,,,,,,,,,726.5473606660089,726.5534441659984,727.5512768330227,728.5347267080215,728.5347267080215,728.5347267080215,729.6202501250082,left,1.0787447500042617,None,,,,,,,,895007,001,2024-11-28_15h54.28.907,Test,2024.2.4,None,2024-11-28 15h54.37.589600 +0100,
2,150,0,1,None,48,48,0,False,,,,left,0.8061875409912318,None,,,,,,,,,,,,,0,48,48,48,729.6337760000024,,,,,,,,,,,,,,,,,,,,,,,,,,,,,,,,,,,,,,,,,,,,,,,,,,,,,,,,,,,,,,,,,,,,,,729.6277437500248,729.6337760000024,730.622977083025,731.6179105000047,731.6179105000047,731.6179105000047,732.4266347500088,left,0.8061875409912318,None,,,,,,,,895007,001,2024-11-28_15h54.28.907,Test,2024.2.4,None,2024-11-28 15h54.37.589600 +0100,
34,150,180,54,None,49,49,0,False,,,,right,0.8562629160005599,None,,,,,,,,,,,,,0,49,49,49,732.4407231660152,,,,,,,,,,,,,,,,,,,,,,,,,,,,,,,,,,,,,,,,,,,,,,,,,,,,,,,,,,,,,,,,,,,,,,732.4346160830173,732.4407231660152,733.4346128330217,734.4252114580013,734.4252114580013,734.4252114580013,735.2869149160106,right,0.8562629160005599,None,,,,,,,,895007,001,2024-11-28_15h54.28.907,Test,2024.2.4,None,2024-11-28 15h54.37.589600 +0100,
11,150,60,44,None,50,50,0,False,,,,left,0.8426091250148602,None,,,,,,,,,,,,,0,50,50,50,735.3023018329986,,,,,,,,,,,,,,,,,,,,,,,,,,,,,,,,,,,,,,,,,,,,,,,,,,,,,,,,,,,,,,,,,,,,,,735.2960425000056,735.3023018329986,736.2904605830263,737.2847405830107,737.2847405830107,737.2847405830107,738.1374418750056,left,0.8426091250148602,None,,,,,,,,895007,001,2024-11-28_15h54.28.907,Test,2024.2.4,None,2024-11-28 15h54.37.589600 +0100,
1,150,0,69,None,51,51,0,False,,,,right,0.9497779160155915,None,,,,,,,,,,,,,0,51,51,51,738.1530990410247,,,,,,,,,,,,,,,,,,,,,,,,,,,,,,,,,,,,,,,,,,,,,,,,,,,,,,,,,,,,,,,,,,,,,,738.145830458001,738.1530990410247,739.1512301660259,740.1349485829996,740.1349485829996,740.1349485829996,741.0869368330168,right,0.9497779160155915,None,,,,,,,,895007,001,2024-11-28_15h54.28.907,Test,2024.2.4,None,2024-11-28 15h54.37.589600 +0100,
44,150,30,24,None,52,52,0,True,,,,left,0.924352917005308,None,,,,,,,,,,,,,0,52,52,52,741.1023905000184,,,,,,,,,,,,,,,,,,,,,,,,,,,,,,,,,,,,,,,,,,,,,,,,,,,,,,,,,,,,,,,,,,,,,,741.0959537910239,741.1023905000184,742.1012575410132,743.0849330410128,743.0849330410128,743.0849330410128,744.0198973330262,left,0.924352917005308,None,,,,,,,,895007,001,2024-11-28_15h54.28.907,Test,2024.2.4,None,2024-11-28 15h54.37.589600 +0100,
40,150,0,55,None,53,53,0,True,,,,left,1.133938290993683,None,,,,,,,,,,,,,0,53,53,53,744.0355501250015,,,,,,,,,,,,,,,,,,,,,,,,,,,,,,,,,,,,,,,,,,,,,,,,,,,,,,,,,,,,,,,,,,,,,,744.0281919160043,744.0355501250015,745.0234482079977,746.0181012910034,746.0181012910034,746.0181012910034,747.162447041017,left,1.133938290993683,None,,,,,,,,895007,001,2024-11-28_15h54.28.907,Test,2024.2.4,None,2024-11-28 15h54.37.589600 +0100,
63,150,150,67,None,54,54,0,True,,,,right,0.8210177079890855,None,,,,,,,,,,,,,0,54,54,54,747.1736369160062,,,,,,,,,,,,,,,,,,,,,,,,,,,,,,,,,,,,,,,,,,,,,,,,,,,,,,,,,,,,,,,,,,,,,,747.168895166018,747.1736369160062,748.1679030410014,749.1596039160213,749.1596039160213,749.1596039160213,749.9875444580102,right,0.8210177079890855,None,,,,,,,,895007,001,2024-11-28_15h54.28.907,Test,2024.2.4,None,2024-11-28 15h54.37.589600 +0100,
54,150,90,63,None,55,55,0,True,,,,left,1.0102659999975003,None,,,,,,,,,,,,,0,55,55,55,750.0032566250011,,,,,,,,,,,,,,,,,,,,,,,,,,,,,,,,,,,,,,,,,,,,,,,,,,,,,,,,,,,,,,,,,,,,,,749.9961964160029,750.0032566250011,751.0012643330265,751.984830958012,751.984830958012,751.984830958012,753.003325083002,left,1.0102659999975003,None,,,,,,,,895007,001,2024-11-28_15h54.28.907,Test,2024.2.4,None,2024-11-28 15h54.37.589600 +0100,
37,150,0,53,None,56,56,0,True,,,,left,0.6861397909815423,None,,,,,,,,,,,,,0,56,56,56,753.0181129160046,,,,,,,,,,,,,,,,,,,,,,,,,,,,,,,,,,,,,,,,,,,,,,,,,,,,,,,,,,,,,,,,,,,,,,753.0115421660012,753.0181129160046,754.006482124998,755.0013341660087,755.0013341660087,755.0013341660087,755.693146708014,left,0.6861397909815423,None,,,,,,,,895007,001,2024-11-28_15h54.28.907,Test,2024.2.4,None,2024-11-28 15h54.37.589600 +0100,
60,150,120,60,None,57,57,0,True,,,,left,1.5306571669934783,None,,,,,,,,,,,,,0,57,57,57,755.7076440000092,,,,,,,,,,,,,,,,,,,,,,,,,,,,,,,,,,,,,,,,,,,,,,,,,,,,,,,,,,,,,,,,,,,,,,755.7017883330118,755.7076440000092,756.7012642080081,757.6918315830117,757.6918315830117,757.6918315830117,759.225324708008,left,1.5306571669934783,None,,,,,,,,895007,001,2024-11-28_15h54.28.907,Test,2024.2.4,None,2024-11-28 15h54.37.589600 +0100,
22,150,120,68,None,58,58,0,False,,,,right,0.7597880829998758,None,,,,,,,,,,,,,0,58,58,58,759.2374447910115,,,,,,,,,,,,,,,,,,,,,,,,,,,,,,,,,,,,,,,,,,,,,,,,,,,,,,,,,,,,,,,,,,,,,,759.2321105000156,759.2374447910115,760.2347525830264,761.2250719580043,761.2250719580043,761.2250719580043,761.9875312080258,right,0.7597880829998758,None,,,,,,,,895007,001,2024-11-28_15h54.28.907,Test,2024.2.4,None,2024-11-28 15h54.37.589600 +0100,
32,150,180,17,None,59,59,0,False,,,,right,0.7960934999864548,None,,,,,,,,,,,,,0,59,59,59,762.0025121250073,,,,,,,,,,,,,,,,,,,,,,,,,,,,,,,,,,,,,,,,,,,,,,,,,,,,,,,,,,,,,,,,,,,,,,761.9962539999979,762.0025121250073,763.0012185410014,763.9848552500189,763.9848552500189,763.9848552500189,764.7868036250002,right,0.7960934999864548,None,,,,,,,,895007,001,2024-11-28_15h54.28.907,Test,2024.2.4,None,2024-11-28 15h54.37.589600 +0100,
53,150,90,28,None,60,60,0,True,,,,left,0.7612475840141997,None,,,,,,,,,,,,,0,60,60,60,764.8022315410199,,,,,,,,,,,,,,,,,,,,,,,,,,,,,,,,,,,,,,,,,,,,,,,,,,,,,,,,,,,,,,,,,,,,,,764.7957672080083,764.8022315410199,765.7898912910023,766.7846187500108,766.7846187500108,766.7846187500108,767.5534598329978,left,0.7612475840141997,None,,,,,,,,895007,001,2024-11-28_15h54.28.907,Test,2024.2.4,None,2024-11-28 15h54.37.589600 +0100,
21,150,120,27,None,61,61,0,False,,,,left,0.8672422079835087,None,,,,,,,,,,,,,0,61,61,61,767.568270000018,,,,,,,,,,,,,,,,,,,,,,,,,,,,,,,,,,,,,,,,,,,,,,,,,,,,,,,,,,,,,,,,,,,,,,767.5624172500102,767.568270000018,768.5569694160076,769.5514633330167,769.5514633330167,769.5514633330167,770.4293699580012,left,0.8672422079835087,None,,,,,,,,895007,001,2024-11-28_15h54.28.907,Test,2024.2.4,None,2024-11-28 15h54.37.589600 +0100,
12,150,60,46,None,62,62,0,False,,,,left,0.6797710419923533,None,,,,,,,,,,,,,0,62,62,62,770.4409440000018,,,,,,,,,,,,,,,,,,,,,,,,,,,,,,,,,,,,,,,,,,,,,,,,,,,,,,,,,,,,,,,,,,,,,,770.4360552500002,770.4409440000018,771.4345978750207,772.4249004160229,772.4249004160229,772.4249004160229,773.1095867500117,left,0.6797710419923533,None,,,,,,,,895007,001,2024-11-28_15h54.28.907,Test,2024.2.4,None,2024-11-28 15h54.37.589600 +0100,
45,150,30,20,None,63,63,0,True,,,,left,0.7499154580000322,None,,,,,,,,,,,,,0,63,63,63,773.1244175830216,,,,,,,,,,,,,,,,,,,,,,,,,,,,,,,,,,,,,,,,,,,,,,,,,,,,,,,,,,,,,,,,,,,,,,773.1182628750103,773.1244175830216,774.1181245410116,775.1084625830117,775.1084625830117,775.1084625830117,775.8686136250035,left,0.7499154580000322,None,,,,,,,,895007,001,2024-11-28_15h54.28.907,Test,2024.2.4,None,2024-11-28 15h54.37.589600 +0100,
30,150,150,11,None,64,64,0,False,,,,left,0.7100106659927405,None,,,,,,,,,,,,,0,64,64,64,775.884541166015,,,,,,,,,,,,,,,,,,,,,,,,,,,,,,,,,,,,,,,,,,,,,,,,,,,,,,,,,,,,,,,,,,,,,,775.8797230409982,775.884541166015,776.8729016660072,777.8605154580146,777.8605154580146,777.8605154580146,778.5761127500155,left,0.7100106659927405,None,,,,,,,,895007,001,2024-11-28_15h54.28.907,Test,2024.2.4,None,2024-11-28 15h54.37.589600 +0100,
6,150,30,3,None,65,65,0,False,,,,left,0.786990374996094,None,,,,,,,,,,,,,0,65,65,65,778.5903678330069,,,,,,,,,,,,,,,,,,,,,,,,,,,,,,,,,,,,,,,,,,,,,,,,,,,,,,,,,,,,,,,,,,,,,,778.5844151250203,778.5903678330069,779.5848229580151,780.5757908750093,780.5757908750093,780.5757908750093,781.3701631250151,left,0.786990374996094,None,,,,,,,,895007,001,2024-11-28_15h54.28.907,Test,2024.2.4,None,2024-11-28 15h54.37.589600 +0100,
3,150,0,14,None,66,66,0,False,,,,left,1.023653208016185,None,,,,,,,,,,,,,0,66,66,66,781.3862981660059,,,,,,,,,,,,,,,,,,,,,,,,,,,,,,,,,,,,,,,,,,,,,,,,,,,,,,,,,,,,,,,,,,,,,,781.3791870830173,781.3862981660059,782.3845632080047,783.3681314580026,783.3681314580026,783.3681314580026,784.3940054160194,left,1.023653208016185,None,,,,,,,,895007,001,2024-11-28_15h54.28.907,Test,2024.2.4,None,2024-11-28 15h54.37.589600 +0100,
59,150,120,39,None,67,67,0,True,,,,left,0.7934737920004409,None,,,,,,,,,,,,,0,67,67,67,784.4080478330143,,,,,,,,,,,,,,,,,,,,,,,,,,,,,,,,,,,,,,,,,,,,,,,,,,,,,,,,,,,,,,,,,,,,,,784.4023798750131,784.4080478330143,785.4012909160228,786.391846500017,786.391846500017,786.391846500017,787.1959312500258,left,0.7934737920004409,None,,,,,,,,895007,001,2024-11-28_15h54.28.907,Test,2024.2.4,None,2024-11-28 15h54.37.589600 +0100,
8,150,30,26,None,68,68,0,False,,,,left,0.7620618749933783,None,,,,,,,,,,,,,0,68,68,68,787.2076740410121,,,,,,,,,,,,,,,,,,,,,,,,,,,,,,,,,,,,,,,,,,,,,,,,,,,,,,,,,,,,,,,,,,,,,,787.2028365410224,787.2076740410121,788.2013004160253,789.1918515410216,789.1918515410216,789.1918515410216,789.9593611660239,left,0.7620618749933783,None,,,,,,,,895007,001,2024-11-28_15h54.28.907,Test,2024.2.4,None,2024-11-28 15h54.37.589600 +0100,
49,150,60,34,None,69,69,0,True,,,,left,0.9357907919911668,None,,,,,,,,,,,,,0,69,69,69,789.9742675000161,,,,,,,,,,,,,,,,,,,,,,,,,,,,,,,,,,,,,,,,,,,,,,,,,,,,,,,,,,,,,,,,,,,,,,789.9678905000037,789.9742675000161,790.9679766250192,791.9589891660144,791.9589891660144,791.9589891660144,792.9034714580048,left,0.9357907919911668,None,,,,,,,,895007,001,2024-11-28_15h54.28.907,Test,2024.2.4,None,2024-11-28 15h54.37.589600 +0100,
,,,,,,,,,,,,,,,,,,,,,,,,,,,,,,,,,,,,,,,,,,,,,,,,,,,,,,,,,,,,,,,,,,,,,,,,,,,,,,,,,,,,,,,,,,,,,,,,,,,,,,,,,,,,,,,792.9038629580173,792.9133366250026,792.9133366250026,794.7421782500169,space,1.8265602920146193,None,895007,001,2024-11-28_15h54.28.907,Test,2024.2.4,None,2024-11-28 15h54.37.589600 +0100,
