Trial_Number,Exposure_Duration,Displacement_Angle,Stimulus,Response,thisN,thisTrialN,thisRepN,Is_Distractor,key_resp_3.keys,key_resp_3.rt,key_resp_3.duration,key_resp_7.keys,key_resp_7.rt,key_resp_7.duration,trials.thisRepN,trials.thisTrialN,trials.thisN,trials.thisIndex,trials_2.thisRepN,trials_2.thisTrialN,trials_2.thisN,trials_2.thisIndex,trials_3.thisRepN,trials_3.thisTrialN,trials_3.thisN,trials_3.thisIndex,trials_4.thisRepN,trials_4.thisTrialN,trials_4.thisN,trials_4.thisIndex,thisRow.t,notes,Intro_to_experiment.started,important1_2.started,key_resp_8.started,Intro_to_experiment.stopped,key_resp_8.keys,key_resp_8.rt,key_resp_8.duration,important.started,important1.started,key_resp_4.started,important.stopped,key_resp_4.keys,key_resp_4.rt,key_resp_4.duration,training_instruction.started,key_resp_9.started,important1_3.started,training_instruction.stopped,key_resp_9.keys,key_resp_9.rt,key_resp_9.duration,training_trial.started,cross.started,image.started,aperture.started,cross.stopped,image.stopped,aperture.stopped,training_trial.stopped,New_instruction.started,text.started,key_resp_2.started,New_instruction.stopped,key_resp_2.keys,key_resp_2.rt,key_resp_2.duration,test_trial.started,cross2.started,cross2.stopped,image_2.started,key_resp_3.started,aperture_2.started,test_trial.stopped,trials_2.key_resp_3.keys,trials_2.key_resp_3.rt,trials_2.key_resp_3.duration,image_2.stopped,aperture_2.stopped,text_3.started,start_blok_2.started,key_resp_5.started,text_4.started,start_blok_2.stopped,key_resp_5.keys,key_resp_5.rt,key_resp_5.duration,training_2.started,cross_2.started,image_3.started,aperture_3.started,cross_2.stopped,image_3.stopped,aperture_3.stopped,training_2.stopped,nyeste_instruks.started,text_5.started,key_resp_6.started,nyeste_instruks.stopped,key_resp_6.keys,key_resp_6.rt,key_resp_6.duration,test_2.started,cross2_2.started,cross2_2.stopped,image_4.started,key_resp_7.started,aperture_4.started,test_2.stopped,trials_4.key_resp_7.keys,trials_4.key_resp_7.rt,trials_4.key_resp_7.duration,image_4.stopped,aperture_4.stopped,text_6.started,Instruction.started,Instruktion.started,key_resp.started,Instruction.stopped,key_resp.keys,key_resp.rt,key_resp.duration,participant,session,date,expName,psychopyVersion,frameRate,expStart,
,,,,,,,,,,,,,,,,,,,,,,,,,,,,,,,,,0.006161625002278015,0.012092582997865975,0.012092582997865975,31.40444808299071,space,31.36281379099819,None,,,,,,,,,,,,,,,,,,,,,,,,,,,,,,,,,,,,,,,,,,,,,,,,,,,,,,,,,,,,,,,,,,,,,,,,,,,,,,,,,,,,,910848,001,2024-11-28_13h21.34.608,Test,2024.2.4,None,2024-11-28 13h21.42.424664 +0100,
,,,,,,,,,,,,,,,,,,,,,,,,,,,,,,,,,,,,,,,,31.404531417007092,31.42696345798322,31.42696345798322,41.9015190830105,space,10.469354667002335,None,,,,,,,,,,,,,,,,,,,,,,,,,,,,,,,,,,,,,,,,,,,,,,,,,,,,,,,,,,,,,,,,,,,,,,,,,,,,,,910848,001,2024-11-28_13h21.34.608,Test,2024.2.4,None,2024-11-28 13h21.42.424664 +0100,
,,,,,,,,,,,,,,,,,,,,,,,,,,,,,,,,,,,,,,,,,,,,,,,41.90161612498923,41.92219812498661,41.92219812498661,48.26743254199391,space,6.340978249994805,None,,,,,,,,,,,,,,,,,,,,,,,,,,,,,,,,,,,,,,,,,,,,,,,,,,,,,,,,,,,,,,,,,,,,,,,910848,001,2024-11-28_13h21.34.608,Test,2024.2.4,None,2024-11-28 13h21.42.424664 +0100,
30,150,150,2,None,0,0,0,,,,,,,,0,0,0,29,,,,,,,,,,,,,48.303468666999834,,,,,,,,,,,,,,,,,,,,,,,48.29477770801168,48.303468666999834,48.466136292001465,48.466136292001465,48.49955558299553,50.16558287499356,50.16558287499356,50.15035645800526,,,,,,,,,,,,,,,,,,,,,,,,,,,,,,,,,,,,,,,,,,,,,,,,,,,,,,,,,,,,,,,910848,001,2024-11-28_13h21.34.608,Test,2024.2.4,None,2024-11-28 13h21.42.424664 +0100,
3,150,0,18,None,1,1,0,,,,,,,,0,1,1,2,,,,,,,,,,,,,50.16558287499356,,,,,,,,,,,,,,,,,,,,,,,50.16067774998373,50.16932662500767,50.366291124984855,50.366291124984855,50.366291124984855,52.0656224580016,52.0656224580016,52.05046304198913,,,,,,,,,,,,,,,,,,,,,,,,,,,,,,,,,,,,,,,,,,,,,,,,,,,,,,,,,,,,,,,910848,001,2024-11-28_13h21.34.608,Test,2024.2.4,None,2024-11-28 13h21.42.424664 +0100,
9,150,30,62,None,2,2,0,,,,,,,,0,2,2,8,,,,,,,,,,,,,52.0656224580016,,,,,,,,,,,,,,,,,,,,,,,52.06057437500567,52.08282937499462,52.266386333008995,52.266386333008995,52.27298391700606,53.965930625010515,53.965930625010515,53.952925249992404,,,,,,,,,,,,,,,,,,,,,,,,,,,,,,,,,,,,,,,,,,,,,,,,,,,,,,,,,,,,,,,910848,001,2024-11-28_13h21.34.608,Test,2024.2.4,None,2024-11-28 13h21.42.424664 +0100,
26,150,150,69,None,3,3,0,,,,,,,,0,3,3,25,,,,,,,,,,,,,53.965930625010515,,,,,,,,,,,,,,,,,,,,,,,53.96127199998591,53.965930625010515,54.1663290830038,54.1663290830038,54.1540395829943,55.86577233299613,55.86577233299613,55.850400791998254,,,,,,,,,,,,,,,,,,,,,,,,,,,,,,,,,,,,,,,,,,,,,,,,,,,,,,,,,,,,,,,910848,001,2024-11-28_13h21.34.608,Test,2024.2.4,None,2024-11-28 13h21.42.424664 +0100,
24,150,120,8,None,4,4,0,,,,,,,,0,4,4,23,,,,,,,,,,,,,55.86577233299613,,,,,,,,,,,,,,,,,,,,,,,55.86100524998619,55.86956250001094,56.06623941700673,56.06623941700673,56.06623941700673,57.76485949999187,57.76485949999187,57.750360208010534,,,,,,,,,,,,,,,,,,,,,,,,,,,,,,,,,,,,,,,,,,,,,,,,,,,,,,,,,,,,,,,910848,001,2024-11-28_13h21.34.608,Test,2024.2.4,None,2024-11-28 13h21.42.424664 +0100,
11,150,60,33,None,5,5,0,,,,,,,,0,5,5,10,,,,,,,,,,,,,57.76485949999187,,,,,,,,,,,,,,,,,,,,,,,57.75991374999285,57.76893133300473,57.9663468330109,57.9663468330109,57.9663468330109,59.66599033298553,59.66599033298553,59.65061224999954,,,,,,,,,,,,,,,,,,,,,,,,,,,,,,,,,,,,,,,,,,,,,,,,,,,,,,,,,,,,,,,910848,001,2024-11-28_13h21.34.608,Test,2024.2.4,None,2024-11-28 13h21.42.424664 +0100,
7,150,30,15,None,6,6,0,,,,,,,,0,6,6,6,,,,,,,,,,,,,59.66599033298553,,,,,,,,,,,,,,,,,,,,,,,59.66103962500347,59.66984966699965,59.86629350000294,59.86629350000294,59.86629350000294,61.56495791699854,61.56495791699854,61.55057783299708,,,,,,,,,,,,,,,,,,,,,,,,,,,,,,,,,,,,,,,,,,,,,,,,,,,,,,,,,,,,,,,910848,001,2024-11-28_13h21.34.608,Test,2024.2.4,None,2024-11-28 13h21.42.424664 +0100,
6,150,30,68,None,7,7,0,,,,,,,,0,7,7,5,,,,,,,,,,,,,61.56495791699854,,,,,,,,,,,,,,,,,,,,,,,61.560042833007174,61.568970166990766,61.76631054200698,61.76631054200698,61.76631054200698,63.4625796249893,63.4625796249893,63.450428167008795,,,,,,,,,,,,,,,,,,,,,,,,,,,,,,,,,,,,,,,,,,,,,,,,,,,,,,,,,,,,,,,910848,001,2024-11-28_13h21.34.608,Test,2024.2.4,None,2024-11-28 13h21.42.424664 +0100,
29,150,150,11,None,8,8,0,,,,,,,,0,8,8,28,,,,,,,,,,,,,63.4625796249893,,,,,,,,,,,,,,,,,,,,,,,63.45760191700538,63.467332667001756,63.66649158298969,63.66649158298969,63.65430204200675,65.36434800000279,65.36434800000279,65.35057783298544,,,,,,,,,,,,,,,,,,,,,,,,,,,,,,,,,,,,,,,,,,,,,,,,,,,,,,,,,,,,,,,910848,001,2024-11-28_13h21.34.608,Test,2024.2.4,None,2024-11-28 13h21.42.424664 +0100,
25,150,120,4,None,9,9,0,,,,,,,,0,9,9,24,,,,,,,,,,,,,65.36434800000279,,,,,,,,,,,,,,,,,,,,,,,65.35876029200153,65.36434800000279,65.56651854200754,65.56651854200754,65.55541758300387,67.26334645799943,67.26334645799943,67.25038991699694,,,,,,,,,,,,,,,,,,,,,,,,,,,,,,,,,,,,,,,,,,,,,,,,,,,,,,,,,,,,,,,910848,001,2024-11-28_13h21.34.608,Test,2024.2.4,None,2024-11-28 13h21.42.424664 +0100,
12,150,60,22,None,10,10,0,,,,,,,,0,10,10,11,,,,,,,,,,,,,67.26334645799943,,,,,,,,,,,,,,,,,,,,,,,67.25843191699823,67.26807766698766,67.46638783300295,67.46638783300295,67.46638783300295,69.16411316700396,69.16411316700396,69.15066566699534,,,,,,,,,,,,,,,,,,,,,,,,,,,,,,,,,,,,,,,,,,,,,,,,,,,,,,,,,,,,,,,910848,001,2024-11-28_13h21.34.608,Test,2024.2.4,None,2024-11-28 13h21.42.424664 +0100,
19,150,90,37,None,11,11,0,,,,,,,,0,11,11,18,,,,,,,,,,,,,69.16411316700396,,,,,,,,,,,,,,,,,,,,,,,69.15895687500597,69.16799675000948,69.36622420800268,69.36622420800268,69.36622420800268,71.06593037498533,71.06593037498533,71.050815124996,,,,,,,,,,,,,,,,,,,,,,,,,,,,,,,,,,,,,,,,,,,,,,,,,,,,,,,,,,,,,,,910848,001,2024-11-28_13h21.34.608,Test,2024.2.4,None,2024-11-28 13h21.42.424664 +0100,
13,150,60,36,None,12,12,0,,,,,,,,0,12,12,12,,,,,,,,,,,,,71.06593037498533,,,,,,,,,,,,,,,,,,,,,,,71.06095183300204,71.08277854201151,71.26628650000202,71.26628650000202,71.27292874999694,72.96433112499653,72.96433112499653,72.95038970798487,,,,,,,,,,,,,,,,,,,,,,,,,,,,,,,,,,,,,,,,,,,,,,,,,,,,,,,,,,,,,,,910848,001,2024-11-28_13h21.34.608,Test,2024.2.4,None,2024-11-28 13h21.42.424664 +0100,
27,150,150,63,None,13,13,0,,,,,,,,0,13,13,26,,,,,,,,,,,,,72.96433112499653,,,,,,,,,,,,,,,,,,,,,,,72.95936945799622,72.96914462500717,73.16619908300345,73.16619908300345,73.16619908300345,74.8644675000105,74.8644675000105,74.85064404198783,,,,,,,,,,,,,,,,,,,,,,,,,,,,,,,,,,,,,,,,,,,,,,,,,,,,,,,,,,,,,,,910848,001,2024-11-28_13h21.34.608,Test,2024.2.4,None,2024-11-28 13h21.42.424664 +0100,
8,150,30,28,None,14,14,0,,,,,,,,0,14,14,7,,,,,,,,,,,,,74.8644675000105,,,,,,,,,,,,,,,,,,,,,,,74.85942883300595,74.8683517499885,75.06625354199787,75.06625354199787,75.06625354199787,76.76452287498978,76.76452287498978,76.75051362501108,,,,,,,,,,,,,,,,,,,,,,,,,,,,,,,,,,,,,,,,,,,,,,,,,,,,,,,,,,,,,,,910848,001,2024-11-28_13h21.34.608,Test,2024.2.4,None,2024-11-28 13h21.42.424664 +0100,
14,150,60,14,None,15,15,0,,,,,,,,0,15,15,13,,,,,,,,,,,,,76.76452287498978,,,,,,,,,,,,,,,,,,,,,,,76.7593002920039,76.76954487498733,76.95691258300212,76.95691258300212,76.96632529198541,78.66392304201145,78.66392304201145,78.65052116700099,,,,,,,,,,,,,,,,,,,,,,,,,,,,,,,,,,,,,,,,,,,,,,,,,,,,,,,,,,,,,,,910848,001,2024-11-28_13h21.34.608,Test,2024.2.4,None,2024-11-28 13h21.42.424664 +0100,
22,150,120,25,None,16,16,0,,,,,,,,0,16,16,21,,,,,,,,,,,,,78.66392304201145,,,,,,,,,,,,,,,,,,,,,,,78.65911174999201,78.6687013329938,78.8662968330027,78.8662968330027,78.8662968330027,80.56382329200278,80.56382329200278,80.55035133298952,,,,,,,,,,,,,,,,,,,,,,,,,,,,,,,,,,,,,,,,,,,,,,,,,,,,,,,,,,,,,,,910848,001,2024-11-28_13h21.34.608,Test,2024.2.4,None,2024-11-28 13h21.42.424664 +0100,
10,150,30,57,None,17,17,0,,,,,,,,0,17,17,9,,,,,,,,,,,,,80.56382329200278,,,,,,,,,,,,,,,,,,,,,,,80.55887995800003,80.5689473329985,80.76626075000968,80.76626075000968,80.76626075000968,82.46443633298622,82.46443633298622,82.45062045799568,,,,,,,,,,,,,,,,,,,,,,,,,,,,,,,,,,,,,,,,,,,,,,,,,,,,,,,,,,,,,,,910848,001,2024-11-28_13h21.34.608,Test,2024.2.4,None,2024-11-28 13h21.42.424664 +0100,
32,150,180,67,None,18,18,0,,,,,,,,0,18,18,31,,,,,,,,,,,,,82.46443633298622,,,,,,,,,,,,,,,,,,,,,,,82.45948212500662,82.469185791997,82.66639979201136,82.66639979201136,82.66639979201136,84.36376691699843,84.36376691699843,84.35052508299123,,,,,,,,,,,,,,,,,,,,,,,,,,,,,,,,,,,,,,,,,,,,,,,,,,,,,,,,,,,,,,,910848,001,2024-11-28_13h21.34.608,Test,2024.2.4,None,2024-11-28 13h21.42.424664 +0100,
34,150,180,10,None,19,19,0,,,,,,,,0,19,19,33,,,,,,,,,,,,,84.36376691699843,,,,,,,,,,,,,,,,,,,,,,,84.35893666700576,84.3686194169859,84.56640583300032,84.56640583300032,84.56640583300032,86.26383195800008,86.26383195800008,86.25042945798486,,,,,,,,,,,,,,,,,,,,,,,,,,,,,,,,,,,,,,,,,,,,,,,,,,,,,,,,,,,,,,,910848,001,2024-11-28_13h21.34.608,Test,2024.2.4,None,2024-11-28 13h21.42.424664 +0100,
16,150,90,46,None,20,20,0,,,,,,,,0,20,20,15,,,,,,,,,,,,,86.26383195800008,,,,,,,,,,,,,,,,,,,,,,,86.25875970799825,86.26774258300429,86.46632783298264,86.46632783298264,86.46632783298264,88.16368762499769,88.16368762499769,88.15029324998613,,,,,,,,,,,,,,,,,,,,,,,,,,,,,,,,,,,,,,,,,,,,,,,,,,,,,,,,,,,,,,,910848,001,2024-11-28_13h21.34.608,Test,2024.2.4,None,2024-11-28 13h21.42.424664 +0100,
17,150,90,32,None,21,21,0,,,,,,,,0,21,21,16,,,,,,,,,,,,,88.16368762499769,,,,,,,,,,,,,,,,,,,,,,,88.15876575000584,88.1675479580008,88.36624195799232,88.36624195799232,88.36624195799232,90.06409045800683,90.06409045800683,90.05054791699513,,,,,,,,,,,,,,,,,,,,,,,,,,,,,,,,,,,,,,,,,,,,,,,,,,,,,,,,,,,,,,,910848,001,2024-11-28_13h21.34.608,Test,2024.2.4,None,2024-11-28 13h21.42.424664 +0100,
28,150,150,12,None,22,22,0,,,,,,,,0,22,22,27,,,,,,,,,,,,,90.06409045800683,,,,,,,,,,,,,,,,,,,,,,,90.05913637499907,90.06892766698729,90.26627708299202,90.26627708299202,90.26627708299202,91.96475454198662,91.96475454198662,91.95061883298331,,,,,,,,,,,,,,,,,,,,,,,,,,,,,,,,,,,,,,,,,,,,,,,,,,,,,,,,,,,,,,,910848,001,2024-11-28_13h21.34.608,Test,2024.2.4,None,2024-11-28 13h21.42.424664 +0100,
18,150,90,52,None,23,23,0,,,,,,,,0,23,23,17,,,,,,,,,,,,,91.96475454198662,,,,,,,,,,,,,,,,,,,,,,,91.95983566698851,91.96958762500435,92.1663624169887,92.1663624169887,92.1663624169887,93.86487591700279,93.86487591700279,93.85056320799049,,,,,,,,,,,,,,,,,,,,,,,,,,,,,,,,,,,,,,,,,,,,,,,,,,,,,,,,,,,,,,,910848,001,2024-11-28_13h21.34.608,Test,2024.2.4,None,2024-11-28 13h21.42.424664 +0100,
23,150,120,13,None,24,24,0,,,,,,,,0,24,24,22,,,,,,,,,,,,,93.86487591700279,,,,,,,,,,,,,,,,,,,,,,,93.8592567500018,93.86487591700279,94.06644245798816,94.06644245798816,94.05490320798708,95.76457887500874,95.76457887500874,95.7505971250066,,,,,,,,,,,,,,,,,,,,,,,,,,,,,,,,,,,,,,,,,,,,,,,,,,,,,,,,,,,,,,,910848,001,2024-11-28_13h21.34.608,Test,2024.2.4,None,2024-11-28 13h21.42.424664 +0100,
15,150,60,7,None,25,25,0,,,,,,,,0,25,25,14,,,,,,,,,,,,,95.76457887500874,,,,,,,,,,,,,,,,,,,,,,,95.75947749998886,95.76921699999366,95.95772291699541,95.95772291699541,95.96486062498298,97.66418925000471,97.66418925000471,97.65059529198334,,,,,,,,,,,,,,,,,,,,,,,,,,,,,,,,,,,,,,,,,,,,,,,,,,,,,,,,,,,,,,,910848,001,2024-11-28_13h21.34.608,Test,2024.2.4,None,2024-11-28 13h21.42.424664 +0100,
21,150,120,58,None,26,26,0,,,,,,,,0,26,26,20,,,,,,,,,,,,,97.66418925000471,,,,,,,,,,,,,,,,,,,,,,,97.65923091699369,97.66923137500999,97.86642070798553,97.86642070798553,97.86642070798553,99.56357291698805,99.56357291698805,99.55044316698331,,,,,,,,,,,,,,,,,,,,,,,,,,,,,,,,,,,,,,,,,,,,,,,,,,,,,,,,,,,,,,,910848,001,2024-11-28_13h21.34.608,Test,2024.2.4,None,2024-11-28 13h21.42.424664 +0100,
2,150,0,44,None,27,27,0,,,,,,,,0,27,27,1,,,,,,,,,,,,,99.56357291698805,,,,,,,,,,,,,,,,,,,,,,,99.55895441700704,99.56770237500314,99.76626800000668,99.76626800000668,99.76626800000668,101.46393458300736,101.46393458300736,101.45064533301047,,,,,,,,,,,,,,,,,,,,,,,,,,,,,,,,,,,,,,,,,,,,,,,,,,,,,,,,,,,,,,,910848,001,2024-11-28_13h21.34.608,Test,2024.2.4,None,2024-11-28 13h21.42.424664 +0100,
1,150,0,55,None,28,28,0,,,,,,,,0,28,28,0,,,,,,,,,,,,,101.46393458300736,,,,,,,,,,,,,,,,,,,,,,,101.4592082919844,101.46864029200515,101.66634587498265,101.66634587498265,101.66634587498265,103.36258179199649,103.36258179199649,103.35041745798662,,,,,,,,,,,,,,,,,,,,,,,,,,,,,,,,,,,,,,,,,,,,,,,,,,,,,,,,,,,,,,,910848,001,2024-11-28_13h21.34.608,Test,2024.2.4,None,2024-11-28 13h21.42.424664 +0100,
31,150,180,29,None,29,29,0,,,,,,,,0,29,29,30,,,,,,,,,,,,,103.36258179199649,,,,,,,,,,,,,,,,,,,,,,,103.35781112499535,103.3668002919876,103.56625637499383,103.56625637499383,103.55476304198964,105.2638426249905,105.2638426249905,105.25059608300216,,,,,,,,,,,,,,,,,,,,,,,,,,,,,,,,,,,,,,,,,,,,,,,,,,,,,,,,,,,,,,,910848,001,2024-11-28_13h21.34.608,Test,2024.2.4,None,2024-11-28 13h21.42.424664 +0100,
20,150,90,21,None,30,30,0,,,,,,,,0,30,30,19,,,,,,,,,,,,,105.2638426249905,,,,,,,,,,,,,,,,,,,,,,,105.25907016699784,105.26862250000704,105.4663504170021,105.4663504170021,105.4663504170021,107.16465783299645,107.16465783299645,107.15067320800154,,,,,,,,,,,,,,,,,,,,,,,,,,,,,,,,,,,,,,,,,,,,,,,,,,,,,,,,,,,,,,,910848,001,2024-11-28_13h21.34.608,Test,2024.2.4,None,2024-11-28 13h21.42.424664 +0100,
33,150,180,64,None,31,31,0,,,,,,,,0,31,31,32,,,,,,,,,,,,,107.16465783299645,,,,,,,,,,,,,,,,,,,,,,,107.15963466698304,107.16919374998542,107.36623895799858,107.36623895799858,107.36623895799858,109.06446091699763,109.06446091699763,109.05052533300477,,,,,,,,,,,,,,,,,,,,,,,,,,,,,,,,,,,,,,,,,,,,,,,,,,,,,,,,,,,,,,,910848,001,2024-11-28_13h21.34.608,Test,2024.2.4,None,2024-11-28 13h21.42.424664 +0100,
5,150,0,59,None,32,32,0,,,,,,,,0,32,32,4,,,,,,,,,,,,,109.06446091699763,,,,,,,,,,,,,,,,,,,,,,,109.05954374998691,109.06902620798792,109.26629629198578,109.26629629198578,109.26629629198578,110.96509120799601,110.96509120799601,110.95085187500808,,,,,,,,,,,,,,,,,,,,,,,,,,,,,,,,,,,,,,,,,,,,,,,,,,,,,,,,,,,,,,,910848,001,2024-11-28_13h21.34.608,Test,2024.2.4,None,2024-11-28 13h21.42.424664 +0100,
4,150,0,35,None,33,33,0,,,,,,,,0,33,33,3,,,,,,,,,,,,,110.96509120799601,,,,,,,,,,,,,,,,,,,,,,,110.96019812498707,110.96909475000575,111.16636299999664,111.16636299999664,111.16636299999664,112.86351137500606,112.86351137500606,112.85047179198591,,,,,,,,,,,,,,,,,,,,,,,,,,,,,,,,,,,,,,,,,,,,,,,,,,,,,,,,,,,,,,,910848,001,2024-11-28_13h21.34.608,Test,2024.2.4,None,2024-11-28 13h21.42.424664 +0100,
35,150,180,19,None,34,34,0,,,,,,,,0,34,34,34,,,,,,,,,,,,,112.86351137500606,,,,,,,,,,,,,,,,,,,,,,,112.85864862499875,112.86860554199666,113.066241833003,113.066241833003,113.066241833003,114.75623433300643,114.75623433300643,114.75063370799762,,,,,,,,,,,,,,,,,,,,,,,,,,,,,,,,,,,,,,,,,,,,,,,,,,,,,,,,,,,,,,,910848,001,2024-11-28_13h21.34.608,Test,2024.2.4,None,2024-11-28 13h21.42.424664 +0100,
,,,,,,,,,,,,,,,,,,,,,,,,,,,,,,,,,,,,,,,,,,,,,,,,,,,,,,,,,,,,,,114.75086729199393,114.76468525000382,114.76468525000382,123.13606200000504,space,8.368493875022978,None,,,,,,,,,,,,,,,,,,,,,,,,,,,,,,,,,,,,,,,,,,,,,,,,,,,,,,,,910848,001,2024-11-28_13h21.34.608,Test,2024.2.4,None,2024-11-28 13h21.42.424664 +0100,
4,150,0,35,None,0,0,0,False,right,1.0234960000088904,None,,,,,,,,0,0,0,0,,,,,,,,,123.1681230829854,,,,,,,,,,,,,,,,,,,,,,,,,,,,,,,,,,,,,,123.15885095798876,123.1681230829854,124.16622149999603,125.13303399999859,125.13303399999859,125.13303399999859,126.16847725000116,right,1.0234960000088904,None,,,,,,,,,,,,,,,,,,,,,,,,,,,,,,,,,,,,,,,,,,,,,,910848,001,2024-11-28_13h21.34.608,Test,2024.2.4,None,2024-11-28 13h21.42.424664 +0100,
31,150,180,29,None,1,1,0,False,left,1.134528708003927,None,,,,,,,,0,1,1,1,,,,,,,,,126.20369312498951,,,,,,,,,,,,,,,,,,,,,,,,,,,,,,,,,,,,,,126.17628270800924,126.20369312498951,127.1995875420107,128.16635412498727,128.16635412498727,128.16635412498727,129.30771170801017,left,1.134528708003927,None,,,,,,,,,,,,,,,,,,,,,,,,,,,,,,,,,,,,,,,,,,,,,,910848,001,2024-11-28_13h21.34.608,Test,2024.2.4,None,2024-11-28 13h21.42.424664 +0100,
33,150,180,64,None,2,2,0,False,left,1.7436514169967268,None,,,,,,,,0,2,2,2,,,,,,,,,129.32206354200025,,,,,,,,,,,,,,,,,,,,,,,,,,,,,,,,,,,,,,129.3150446669897,129.32206354200025,130.31619954199414,131.30689058298594,131.30689058298594,131.30689058298594,133.05763445800403,left,1.7436514169967268,None,,,,,,,,,,,,,,,,,,,,,,,,,,,,,,,,,,,,,,,,,,,,,,910848,001,2024-11-28_13h21.34.608,Test,2024.2.4,None,2024-11-28 13h21.42.424664 +0100,
53,150,90,65,None,3,3,0,True,left,1.0556324580102228,None,,,,,,,,0,3,3,3,,,,,,,,,133.07215404199087,,,,,,,,,,,,,,,,,,,,,,,,,,,,,,,,,,,,,,133.06595262500923,133.07215404199087,134.06631512500462,135.05593408300774,135.05593408300774,135.05593408300774,136.11819604199263,left,1.0556324580102228,None,,,,,,,,,,,,,,,,,,,,,,,,,,,,,,,,,,,,,,,,,,,,,,910848,001,2024-11-28_13h21.34.608,Test,2024.2.4,None,2024-11-28 13h21.42.424664 +0100,
67,150,180,23,None,4,4,0,True,right,0.8743712500145193,None,,,,,,,,0,4,4,4,,,,,,,,,136.13288208300946,,,,,,,,,,,,,,,,,,,,,,,,,,,,,,,,,,,,,,136.12660983300884,136.13288208300946,137.12154037499567,138.11641779198544,138.11641779198544,138.11641779198544,139.00165916699916,right,0.8743712500145193,None,,,,,,,,,,,,,,,,,,,,,,,,,,,,,,,,,,,,,,,,,,,,,,910848,001,2024-11-28_13h21.34.608,Test,2024.2.4,None,2024-11-28 13h21.42.424664 +0100,
26,150,150,69,None,5,5,0,False,right,0.7506064999906812,None,,,,,,,,0,5,5,5,,,,,,,,,139.01731941700564,,,,,,,,,,,,,,,,,,,,,,,,,,,,,,,,,,,,,,139.01047750000726,139.01731941700564,140.00427087501157,140.99957874999382,140.99957874999382,140.99957874999382,141.75305295799626,right,0.7506064999906812,None,,,,,,,,,,,,,,,,,,,,,,,,,,,,,,,,,,,,,,,,,,,,,,910848,001,2024-11-28_13h21.34.608,Test,2024.2.4,None,2024-11-28 13h21.42.424664 +0100,
38,150,0,53,None,6,6,0,True,left,1.0045959590061102,None,,,,,,,,0,6,6,6,,,,,,,,,141.76776491699275,,,,,,,,,,,,,,,,,,,,,,,,,,,,,,,,,,,,,,141.7613103330077,141.76776491699275,142.76632412499748,143.74987708299886,143.74987708299886,143.74987708299886,144.75777241701144,left,1.0045959590061102,None,,,,,,,,,,,,,,,,,,,,,,,,,,,,,,,,,,,,,,,,,,,,,,910848,001,2024-11-28_13h21.34.608,Test,2024.2.4,None,2024-11-28 13h21.42.424664 +0100,
48,150,60,45,None,7,7,0,True,left,1.212310582981445,None,,,,,,,,0,7,7,7,,,,,,,,,144.77331449999474,,,,,,,,,,,,,,,,,,,,,,,,,,,,,,,,,,,,,,144.76703041698784,144.77331449999474,145.77074366700253,146.7568387920037,146.7568387920037,146.7568387920037,147.974367332994,left,1.212310582981445,None,,,,,,,,,,,,,,,,,,,,,,,,,,,,,,,,,,,,,,,,,,,,,,910848,001,2024-11-28_13h21.34.608,Test,2024.2.4,None,2024-11-28 13h21.42.424664 +0100,
50,150,60,61,None,8,8,0,True,left,1.0029240419971757,None,,,,,,,,0,8,8,8,,,,,,,,,147.98910329199862,,,,,,,,,,,,,,,,,,,,,,,,,,,,,,,,,,,,,,147.98327312499168,147.98910329199862,148.98285845801,149.97394708299544,149.97394708299544,149.97394708299544,150.98500216699904,left,1.0029240419971757,None,,,,,,,,,,,,,,,,,,,,,,,,,,,,,,,,,,,,,,,,,,,,,,910848,001,2024-11-28_13h21.34.608,Test,2024.2.4,None,2024-11-28 13h21.42.424664 +0100,
11,150,60,33,None,9,9,0,False,right,0.813761750003323,None,,,,,,,,0,9,9,9,,,,,,,,,151.00036624999484,,,,,,,,,,,,,,,,,,,,,,,,,,,,,,,,,,,,,,150.9939012079849,151.00036624999484,151.98757308299537,152.98308945799363,152.98308945799363,152.98308945799363,153.801636166987,right,0.813761750003323,None,,,,,,,,,,,,,,,,,,,,,,,,,,,,,,,,,,,,,,,,,,,,,,910848,001,2024-11-28_13h21.34.608,Test,2024.2.4,None,2024-11-28 13h21.42.424664 +0100,
46,150,60,66,None,10,10,0,True,left,1.2741990000067744,None,,,,,,,,0,10,10,10,,,,,,,,,153.8170834170014,,,,,,,,,,,,,,,,,,,,,,,,,,,,,,,,,,,,,,153.81061962500098,153.8170834170014,154.80404849999468,155.7996221249923,155.7996221249923,155.7996221249923,157.0850419579947,left,1.2741990000067744,None,,,,,,,,,,,,,,,,,,,,,,,,,,,,,,,,,,,,,,,,,,,,,,910848,001,2024-11-28_13h21.34.608,Test,2024.2.4,None,2024-11-28 13h21.42.424664 +0100,
69,150,180,47,None,11,11,0,True,right,1.0178848750074394,None,,,,,,,,0,11,11,11,,,,,,,,,157.09979458298767,,,,,,,,,,,,,,,,,,,,,,,,,,,,,,,,,,,,,,157.09374558299896,157.09979458298767,158.08851274999324,159.08296800000244,159.08296800000244,159.08296800000244,160.10802854198846,right,1.0178848750074394,None,,,,,,,,,,,,,,,,,,,,,,,,,,,,,,,,,,,,,,,,,,,,,,910848,001,2024-11-28_13h21.34.608,Test,2024.2.4,None,2024-11-28 13h21.42.424664 +0100,
40,150,0,34,None,12,12,0,True,left,1.047914209018927,None,,,,,,,,0,12,12,12,,,,,,,,,160.12945558299543,,,,,,,,,,,,,,,,,,,,,,,,,,,,,,,,,,,,,,160.12362470800872,160.12945558299543,161.12109558298835,162.11051087500528,162.11051087500528,162.11051087500528,163.16885329200886,left,1.047914209018927,None,,,,,,,,,,,,,,,,,,,,,,,,,,,,,,,,,,,,,,,,,,,,,,910848,001,2024-11-28_13h21.34.608,Test,2024.2.4,None,2024-11-28 13h21.42.424664 +0100,
5,150,0,59,None,13,13,0,False,right,0.8502498750167433,None,,,,,,,,0,13,13,13,,,,,,,,,163.183703082992,,,,,,,,,,,,,,,,,,,,,,,,,,,,,,,,,,,,,,163.1776569999929,163.183703082992,164.17129929200746,165.16642045800108,165.16642045800108,165.16642045800108,166.01960999998846,right,0.8502498750167433,None,,,,,,,,,,,,,,,,,,,,,,,,,,,,,,,,,,,,,,,,,,,,,,910848,001,2024-11-28_13h21.34.608,Test,2024.2.4,None,2024-11-28 13h21.42.424664 +0100,
25,150,120,4,None,14,14,0,False,left,1.2776218330254778,None,,,,,,,,0,14,14,14,,,,,,,,,166.0349898749846,,,,,,,,,,,,,,,,,,,,,,,,,,,,,,,,,,,,,,166.02877083298517,166.0349898749846,167.03305458300747,168.01645679198555,168.01645679198555,168.01645679198555,169.30165541698807,left,1.2776218330254778,None,,,,,,,,,,,,,,,,,,,,,,,,,,,,,,,,,,,,,,,,,,,,,,910848,001,2024-11-28_13h21.34.608,Test,2024.2.4,None,2024-11-28 13h21.42.424664 +0100,
51,150,90,20,None,15,15,0,True,left,1.5537174589990173,None,,,,,,,,0,15,15,15,,,,,,,,,169.31523604199174,,,,,,,,,,,,,,,,,,,,,,,,,,,,,,,,,,,,,,169.30943329198635,169.31523604199174,170.30502862500725,171.2997192920011,171.2997192920011,171.2997192920011,172.8573722919973,left,1.5537174589990173,None,,,,,,,,,,,,,,,,,,,,,,,,,,,,,,,,,,,,,,,,,,,,,,910848,001,2024-11-28_13h21.34.608,Test,2024.2.4,None,2024-11-28 13h21.42.424664 +0100,
42,150,30,30,None,16,16,0,True,left,1.3375453750195447,None,,,,,,,,0,16,16,16,,,,,,,,,172.87188779198914,,,,,,,,,,,,,,,,,,,,,,,,,,,,,,,,,,,,,,172.8660029169987,172.87188779198914,173.86622733299737,174.85739412499242,174.85739412499242,174.85739412499242,176.20169166699634,left,1.3375453750195447,None,,,,,,,,,,,,,,,,,,,,,,,,,,,,,,,,,,,,,,,,,,,,,,910848,001,2024-11-28_13h21.34.608,Test,2024.2.4,None,2024-11-28 13h21.42.424664 +0100,
58,150,120,27,None,17,17,0,True,left,1.121171917009633,None,,,,,,,,0,17,17,17,,,,,,,,,176.21650216699345,,,,,,,,,,,,,,,,,,,,,,,,,,,,,,,,,,,,,,176.21020220799255,176.21650216699345,177.2047209169832,178.19965170801152,178.19965170801152,178.19965170801152,179.3249795419979,left,1.121171917009633,None,,,,,,,,,,,,,,,,,,,,,,,,,,,,,,,,,,,,,,,,,,,,,,910848,001,2024-11-28_13h21.34.608,Test,2024.2.4,None,2024-11-28 13h21.42.424664 +0100,
49,150,60,24,None,18,18,0,True,left,1.0102555410121568,None,,,,,,,,0,18,18,18,,,,,,,,,179.33955070798402,,,,,,,,,,,,,,,,,,,,,,,,,,,,,,,,,,,,,,179.3333640829951,179.33955070798402,180.33324058298604,181.32405533301062,181.32405533301062,181.32405533301062,182.34094591700705,left,1.0102555410121568,None,,,,,,,,,,,,,,,,,,,,,,,,,,,,,,,,,,,,,,,,,,,,,,910848,001,2024-11-28_13h21.34.608,Test,2024.2.4,None,2024-11-28 13h21.42.424664 +0100,
22,150,120,25,None,19,19,0,False,right,0.8518762080057058,None,,,,,,,,0,19,19,19,,,,,,,,,182.35531241699937,,,,,,,,,,,,,,,,,,,,,,,,,,,,,,,,,,,,,,182.34831375000067,182.35531241699937,183.3496340829879,184.3394217499881,184.3394217499881,184.3394217499881,185.2017571250035,right,0.8518762080057058,None,,,,,,,,,,,,,,,,,,,,,,,,,,,,,,,,,,,,,,,,,,,,,,910848,001,2024-11-28_13h21.34.608,Test,2024.2.4,None,2024-11-28 13h21.42.424664 +0100,
43,150,30,1,None,20,20,0,True,left,1.0615258750040084,None,,,,,,,,0,20,20,20,,,,,,,,,185.21677112500765,,,,,,,,,,,,,,,,,,,,,,,,,,,,,,,,,,,,,,185.20997504200204,185.21677112500765,186.2048319169844,187.19973424999625,187.19973424999625,187.19973424999625,188.26843045800342,left,1.0615258750040084,None,,,,,,,,,,,,,,,,,,,,,,,,,,,,,,,,,,,,,,,,,,,,,,910848,001,2024-11-28_13h21.34.608,Test,2024.2.4,None,2024-11-28 13h21.42.424664 +0100,
12,150,60,22,None,21,21,0,False,right,1.6198882499884348,None,,,,,,,,0,21,21,21,,,,,,,,,188.28354495798703,,,,,,,,,,,,,,,,,,,,,,,,,,,,,,,,,,,,,,188.27661520798574,188.28354495798703,189.27169074999983,190.26629354199395,190.26629354199395,190.26629354199395,191.8909867919865,right,1.6198882499884348,None,,,,,,,,,,,,,,,,,,,,,,,,,,,,,,,,,,,,,,,,,,,,,,910848,001,2024-11-28_13h21.34.608,Test,2024.2.4,None,2024-11-28 13h21.42.424664 +0100,
20,150,90,21,None,22,22,0,False,left,1.5206912080175243,None,,,,,,,,0,22,22,22,,,,,,,,,191.90418404201046,,,,,,,,,,,,,,,,,,,,,,,,,,,,,,,,,,,,,,191.89809316699393,191.90418404201046,192.89948724998976,193.88991295799497,193.88991295799497,193.88991295799497,195.4183818330057,left,1.5206912080175243,None,,,,,,,,,,,,,,,,,,,,,,,,,,,,,,,,,,,,,,,,,,,,,,910848,001,2024-11-28_13h21.34.608,Test,2024.2.4,None,2024-11-28 13h21.42.424664 +0100,
57,150,120,6,None,23,23,0,True,left,1.0616400410071947,None,,,,,,,,0,23,23,23,,,,,,,,,195.43356599999242,,,,,,,,,,,,,,,,,,,,,,,,,,,,,,,,,,,,,,195.42722183300066,195.43356599999242,196.42121866700472,197.41647229201044,197.41647229201044,197.41647229201044,198.48486004199367,left,1.0616400410071947,None,,,,,,,,,,,,,,,,,,,,,,,,,,,,,,,,,,,,,,,,,,,,,,910848,001,2024-11-28_13h21.34.608,Test,2024.2.4,None,2024-11-28 13h21.42.424664 +0100,
29,150,150,11,None,24,24,0,False,left,1.3726122920052148,None,,,,,,,,0,24,24,24,,,,,,,,,198.50042333299643,,,,,,,,,,,,,,,,,,,,,,,,,,,,,,,,,,,,,,198.49342725001043,198.50042333299643,199.48764599999413,200.48304866699618,200.48304866699618,200.48304866699618,201.85868037500768,left,1.3726122920052148,None,,,,,,,,,,,,,,,,,,,,,,,,,,,,,,,,,,,,,,,,,,,,,,910848,001,2024-11-28_13h21.34.608,Test,2024.2.4,None,2024-11-28 13h21.42.424664 +0100,
63,150,150,43,None,25,25,0,True,left,2.313484750018688,None,,,,,,,,0,25,25,25,,,,,,,,,201.8727075830102,,,,,,,,,,,,,,,,,,,,,,,,,,,,,,,,,,,,,,201.86673487498774,201.8727075830102,202.86614041699795,203.8580046670104,203.8580046670104,203.8580046670104,206.1754211249936,left,2.313484750018688,None,,,,,,,,,,,,,,,,,,,,,,,,,,,,,,,,,,,,,,,,,,,,,,910848,001,2024-11-28_13h21.34.608,Test,2024.2.4,None,2024-11-28 13h21.42.424664 +0100,
36,150,0,5,None,26,26,0,True,left,0.9192088749841787,None,,,,,,,,0,26,26,26,,,,,,,,,206.18988716698368,,,,,,,,,,,,,,,,,,,,,,,,,,,,,,,,,,,,,,206.18385754199699,206.18988716698368,207.18845812499058,208.17379224998876,208.17379224998876,208.17379224998876,209.1017361249833,left,0.9192088749841787,None,,,,,,,,,,,,,,,,,,,,,,,,,,,,,,,,,,,,,,,,,,,,,,910848,001,2024-11-28_13h21.34.608,Test,2024.2.4,None,2024-11-28 13h21.42.424664 +0100,
60,150,120,56,None,27,27,0,True,right,1.4101649580115918,None,,,,,,,,0,27,27,27,,,,,,,,,209.11695591700845,,,,,,,,,,,,,,,,,,,,,,,,,,,,,,,,,,,,,,209.11010079199332,209.11695591700845,210.1044264579832,211.09966370800976,211.09966370800976,211.09966370800976,212.51854604200344,right,1.4101649580115918,None,,,,,,,,,,,,,,,,,,,,,,,,,,,,,,,,,,,,,,,,,,,,,,910848,001,2024-11-28_13h21.34.608,Test,2024.2.4,None,2024-11-28 13h21.42.424664 +0100,
3,150,0,18,None,28,28,0,False,right,0.8962815830018371,None,,,,,,,,0,28,28,28,,,,,,,,,212.5340933749976,,,,,,,,,,,,,,,,,,,,,,,,,,,,,,,,,,,,,,212.52754895799444,212.5340933749976,213.5330456669908,214.5164271669928,214.5164271669928,214.5164271669928,215.41844025001046,right,0.8962815830018371,None,,,,,,,,,,,,,,,,,,,,,,,,,,,,,,,,,,,,,,,,,,,,,,910848,001,2024-11-28_13h21.34.608,Test,2024.2.4,None,2024-11-28 13h21.42.424664 +0100,
35,150,180,19,None,29,29,0,False,left,2.1675663749920204,None,,,,,,,,0,29,29,29,,,,,,,,,215.43303770798957,,,,,,,,,,,,,,,,,,,,,,,,,,,,,,,,,,,,,,215.42615499999374,215.43303770798957,216.42147999998997,217.4163827500015,217.4163827500015,217.4163827500015,219.5955302079965,left,2.1675663749920204,None,,,,,,,,,,,,,,,,,,,,,,,,,,,,,,,,,,,,,,,,,,,,,,910848,001,2024-11-28_13h21.34.608,Test,2024.2.4,None,2024-11-28 13h21.42.424664 +0100,
15,150,60,7,None,30,30,0,False,left,1.4023843340110034,None,,,,,,,,0,30,30,30,,,,,,,,,219.60616608298733,,,,,,,,,,,,,,,,,,,,,,,,,,,,,,,,,,,,,,219.60149299999466,219.60616608298733,220.599715999997,221.5902926249837,221.5902926249837,221.5902926249837,223.00182825000957,left,1.4023843340110034,None,,,,,,,,,,,,,,,,,,,,,,,,,,,,,,,,,,,,,,,,,,,,,,910848,001,2024-11-28_13h21.34.608,Test,2024.2.4,None,2024-11-28 13h21.42.424664 +0100,
70,150,180,26,None,31,31,0,True,left,1.6088421669846866,None,,,,,,,,0,31,31,31,,,,,,,,,223.0154297919944,,,,,,,,,,,,,,,,,,,,,,,,,,,,,,,,,,,,,,223.00936412499868,223.0154297919944,224.0049807500036,224.99986612499924,224.99986612499924,224.99986612499924,226.61827379200258,left,1.6088421669846866,None,,,,,,,,,,,,,,,,,,,,,,,,,,,,,,,,,,,,,,,,,,,,,,910848,001,2024-11-28_13h21.34.608,Test,2024.2.4,None,2024-11-28 13h21.42.424664 +0100,
64,150,150,41,None,32,32,0,True,left,1.3102375419985037,None,,,,,,,,0,32,32,32,,,,,,,,,226.63373912498355,,,,,,,,,,,,,,,,,,,,,,,,,,,,,,,,,,,,,,226.62690429200302,226.63373912498355,227.6207684999972,228.61601033300394,228.61601033300394,228.61601033300394,229.93505345800077,left,1.3102375419985037,None,,,,,,,,,,,,,,,,,,,,,,,,,,,,,,,,,,,,,,,,,,,,,,910848,001,2024-11-28_13h21.34.608,Test,2024.2.4,None,2024-11-28 13h21.42.424664 +0100,
44,150,30,39,None,33,33,0,True,left,1.083974458015291,None,,,,,,,,0,33,33,33,,,,,,,,,229.95096516699414,,,,,,,,,,,,,,,,,,,,,,,,,,,,,,,,,,,,,,229.9440167080029,229.95096516699414,230.94967829200323,231.9333816249855,231.9333816249855,231.9333816249855,233.02828479200252,left,1.083974458015291,None,,,,,,,,,,,,,,,,,,,,,,,,,,,,,,,,,,,,,,,,,,,,,,910848,001,2024-11-28_13h21.34.608,Test,2024.2.4,None,2024-11-28 13h21.42.424664 +0100,
68,150,180,51,None,34,34,0,True,left,1.175898458022857,None,,,,,,,,0,34,34,34,,,,,,,,,233.04127591699944,,,,,,,,,,,,,,,,,,,,,,,,,,,,,,,,,,,,,,233.0361558329896,233.04127591699944,234.0383638330095,235.0240140829992,235.0240140829992,235.0240140829992,236.20231100000092,left,1.175898458022857,None,,,,,,,,,,,,,,,,,,,,,,,,,,,,,,,,,,,,,,,,,,,,,,910848,001,2024-11-28_13h21.34.608,Test,2024.2.4,None,2024-11-28 13h21.42.424664 +0100,
23,150,120,13,None,35,35,0,False,right,0.8051906249893364,None,,,,,,,,0,35,35,35,,,,,,,,,236.21676729200408,,,,,,,,,,,,,,,,,,,,,,,,,,,,,,,,,,,,,,236.20996104198275,236.21676729200408,237.20432283298578,238.19972862501163,238.19972862501163,238.19972862501163,239.00826599998982,right,0.8051906249893364,None,,,,,,,,,,,,,,,,,,,,,,,,,,,,,,,,,,,,,,,,,,,,,,910848,001,2024-11-28_13h21.34.608,Test,2024.2.4,None,2024-11-28 13h21.42.424664 +0100,
32,150,180,67,None,36,36,0,False,right,0.9616163340106141,None,,,,,,,,0,36,36,36,,,,,,,,,239.02225945799728,,,,,,,,,,,,,,,,,,,,,,,,,,,,,,,,,,,,,,239.01560195800266,239.02225945799728,240.02109233298688,241.00599754200084,241.00599754200084,241.00599754200084,241.97471079198294,right,0.9616163340106141,None,,,,,,,,,,,,,,,,,,,,,,,,,,,,,,,,,,,,,,,,,,,,,,910848,001,2024-11-28_13h21.34.608,Test,2024.2.4,None,2024-11-28 13h21.42.424664 +0100,
52,150,90,40,None,37,37,0,True,right,1.7492146670119837,None,,,,,,,,0,37,37,37,,,,,,,,,241.9889656669984,,,,,,,,,,,,,,,,,,,,,,,,,,,,,,,,,,,,,,241.9831567920046,241.9889656669984,242.9830119170074,243.97352404199773,243.97352404199773,243.97352404199773,245.72493116700207,right,1.7492146670119837,None,,,,,,,,,,,,,,,,,,,,,,,,,,,,,,,,,,,,,,,,,,,,,,910848,001,2024-11-28_13h21.34.608,Test,2024.2.4,None,2024-11-28 13h21.42.424664 +0100,
16,150,90,46,None,38,38,0,False,left,2.316404124983819,None,,,,,,,,0,38,38,38,,,,,,,,,245.73892579198582,,,,,,,,,,,,,,,,,,,,,,,,,,,,,,,,,,,,,,245.73230933299055,245.73892579198582,246.73297058299067,247.72412241698476,247.72412241698476,247.72412241698476,250.05175220800447,left,2.316404124983819,None,,,,,,,,,,,,,,,,,,,,,,,,,,,,,,,,,,,,,,,,,,,,,,910848,001,2024-11-28_13h21.34.608,Test,2024.2.4,None,2024-11-28 13h21.42.424664 +0100,
19,150,90,37,None,39,39,0,False,left,1.4409373749804217,None,,,,,,,,0,39,39,39,,,,,,,,,250.06693624999025,,,,,,,,,,,,,,,,,,,,,,,,,,,,,,,,,,,,,,250.06045116699534,250.06693624999025,251.05494462500792,252.04967079201015,252.04967079201015,252.04967079201015,253.5016126249975,left,1.4409373749804217,None,,,,,,,,,,,,,,,,,,,,,,,,,,,,,,,,,,,,,,,,,,,,,,910848,001,2024-11-28_13h21.34.608,Test,2024.2.4,None,2024-11-28 13h21.42.424664 +0100,
6,150,30,68,None,40,40,0,False,right,0.8256872080091853,None,,,,,,,,0,40,40,40,,,,,,,,,253.51626091700746,,,,,,,,,,,,,,,,,,,,,,,,,,,,,,,,,,,,,,253.50974099998712,253.51626091700746,254.5049952499976,255.49962916699587,255.49962916699587,255.49962916699587,256.33498066698667,right,0.8256872080091853,None,,,,,,,,,,,,,,,,,,,,,,,,,,,,,,,,,,,,,,,,,,,,,,910848,001,2024-11-28_13h21.34.608,Test,2024.2.4,None,2024-11-28 13h21.42.424664 +0100,
21,150,120,58,None,41,41,0,False,right,1.4930556660110597,None,,,,,,,,0,41,41,41,,,,,,,,,256.35039816700737,,,,,,,,,,,,,,,,,,,,,,,,,,,,,,,,,,,,,,256.3437946669874,256.35039816700737,257.3379024580063,258.3328949580027,258.3328949580027,258.3328949580027,259.83495600000606,right,1.4930556660110597,None,,,,,,,,,,,,,,,,,,,,,,,,,,,,,,,,,,,,,,,,,,,,,,910848,001,2024-11-28_13h21.34.608,Test,2024.2.4,None,2024-11-28 13h21.42.424664 +0100,
28,150,150,12,None,42,42,0,False,right,0.9277723750274163,None,,,,,,,,0,42,42,42,,,,,,,,,259.85096433298895,,,,,,,,,,,,,,,,,,,,,,,,,,,,,,,,,,,,,,259.84388404199854,259.85096433298895,260.84959187498316,261.8330085829948,261.8330085829948,261.8330085829948,262.7683837079967,right,0.9277723750274163,None,,,,,,,,,,,,,,,,,,,,,,,,,,,,,,,,,,,,,,,,,,,,,,910848,001,2024-11-28_13h21.34.608,Test,2024.2.4,None,2024-11-28 13h21.42.424664 +0100,
27,150,150,63,None,43,43,0,False,right,0.7921780000033323,None,,,,,,,,0,43,43,43,,,,,,,,,262.7834187920089,,,,,,,,,,,,,,,,,,,,,,,,,,,,,,,,,,,,,,262.7765567919996,262.7834187920089,263.77061800000956,264.76633812498767,264.76633812498767,264.76633812498767,265.568548167008,right,0.7921780000033323,None,,,,,,,,,,,,,,,,,,,,,,,,,,,,,,,,,,,,,,,,,,,,,,910848,001,2024-11-28_13h21.34.608,Test,2024.2.4,None,2024-11-28 13h21.42.424664 +0100,
1,150,0,55,None,44,44,0,False,right,1.0027834170032293,None,,,,,,,,0,44,44,44,,,,,,,,,265.58404545800295,,,,,,,,,,,,,,,,,,,,,,,,,,,,,,,,,,,,,,265.57763470799546,265.58404545800295,266.5828393329866,267.56620470801136,267.56620470801136,267.56620470801136,268.57441954198293,right,1.0027834170032293,None,,,,,,,,,,,,,,,,,,,,,,,,,,,,,,,,,,,,,,,,,,,,,,910848,001,2024-11-28_13h21.34.608,Test,2024.2.4,None,2024-11-28 13h21.42.424664 +0100,
7,150,30,15,None,45,45,0,False,left,1.4953601250017527,None,,,,,,,,0,45,45,45,,,,,,,,,268.58926058298675,,,,,,,,,,,,,,,,,,,,,,,,,,,,,,,,,,,,,,268.58318637500633,268.58926058298675,269.5883569580037,270.57323624999844,270.57323624999844,270.57323624999844,272.0751287500025,left,1.4953601250017527,None,,,,,,,,,,,,,,,,,,,,,,,,,,,,,,,,,,,,,,,,,,,,,,910848,001,2024-11-28_13h21.34.608,Test,2024.2.4,None,2024-11-28 13h21.42.424664 +0100,
24,150,120,8,None,46,46,0,False,left,1.4441084999998566,None,,,,,,,,0,46,46,46,,,,,,,,,272.090175291989,,,,,,,,,,,,,,,,,,,,,,,,,,,,,,,,,,,,,,272.08387491700705,272.090175291989,273.0884848329879,274.07370300000184,274.07370300000184,274.07370300000184,275.52452391700353,left,1.4441084999998566,None,,,,,,,,,,,,,,,,,,,,,,,,,,,,,,,,,,,,,,,,,,,,,,910848,001,2024-11-28_13h21.34.608,Test,2024.2.4,None,2024-11-28 13h21.42.424664 +0100,
39,150,0,17,None,47,47,0,True,left,2.3636887919856235,None,,,,,,,,0,47,47,47,,,,,,,,,275.539258417004,,,,,,,,,,,,,,,,,,,,,,,,,,,,,,,,,,,,,,275.53321604200755,275.539258417004,276.5329232919903,277.5236640830117,277.5236640830117,277.5236640830117,279.8909958330041,left,2.3636887919856235,None,,,,,,,,,,,,,,,,,,,,,,,,,,,,,,,,,,,,,,,,,,,,,,910848,001,2024-11-28_13h21.34.608,Test,2024.2.4,None,2024-11-28 13h21.42.424664 +0100,
2,150,0,44,None,48,48,0,False,right,0.9010689580172766,None,,,,,,,,0,48,48,48,,,,,,,,,279.9058007079875,,,,,,,,,,,,,,,,,,,,,,,,,,,,,,,,,,,,,,279.89931820798665,279.9058007079875,280.89951329200994,281.889996916987,281.889996916987,281.889996916987,282.8016831249988,right,0.9010689580172766,None,,,,,,,,,,,,,,,,,,,,,,,,,,,,,,,,,,,,,,,,,,,,,,910848,001,2024-11-28_13h21.34.608,Test,2024.2.4,None,2024-11-28 13h21.42.424664 +0100,
18,150,90,52,None,49,49,0,False,left,1.0940495830145665,None,,,,,,,,0,49,49,49,,,,,,,,,282.8164074170054,,,,,,,,,,,,,,,,,,,,,,,,,,,,,,,,,,,,,,282.80981391700334,282.8164074170054,283.8047872919997,284.7996903329913,284.7996903329913,284.7996903329913,285.90151795800193,left,1.0940495830145665,None,,,,,,,,,,,,,,,,,,,,,,,,,,,,,,,,,,,,,,,,,,,,,,910848,001,2024-11-28_13h21.34.608,Test,2024.2.4,None,2024-11-28 13h21.42.424664 +0100,
54,150,90,38,None,50,50,0,True,left,1.6527890829893295,None,,,,,,,,0,50,50,50,,,,,,,,,285.9154467920016,,,,,,,,,,,,,,,,,,,,,,,,,,,,,,,,,,,,,,285.90829537500395,285.9154467920016,286.9041888329957,287.8996519999928,287.8996519999928,287.8996519999928,289.55788095798925,left,1.6527890829893295,None,,,,,,,,,,,,,,,,,,,,,,,,,,,,,,,,,,,,,,,,,,,,,,910848,001,2024-11-28_13h21.34.608,Test,2024.2.4,None,2024-11-28 13h21.42.424664 +0100,
30,150,150,2,None,51,51,0,False,right,1.643399041990051,None,,,,,,,,0,51,51,51,,,,,,,,,289.5723938329902,,,,,,,,,,,,,,,,,,,,,,,,,,,,,,,,,,,,,,289.566200375004,289.5723938329902,290.5662889579835,291.55779770799563,291.55779770799563,291.55779770799563,293.20850904198596,right,1.643399041990051,None,,,,,,,,,,,,,,,,,,,,,,,,,,,,,,,,,,,,,,,,,,,,,,910848,001,2024-11-28_13h21.34.608,Test,2024.2.4,None,2024-11-28 13h21.42.424664 +0100,
37,150,0,50,None,52,52,0,True,left,1.6267322920029983,None,,,,,,,,0,52,52,52,,,,,,,,,293.22347037500003,,,,,,,,,,,,,,,,,,,,,,,,,,,,,,,,,,,,,,293.2167253330117,293.22347037500003,294.2215389169869,295.2076678329904,295.2076678329904,295.2076678329904,296.8416079169838,left,1.6267322920029983,None,,,,,,,,,,,,,,,,,,,,,,,,,,,,,,,,,,,,,,,,,,,,,,910848,001,2024-11-28_13h21.34.608,Test,2024.2.4,None,2024-11-28 13h21.42.424664 +0100,
55,150,90,49,None,53,53,0,True,right,1.225658833020134,None,,,,,,,,0,53,53,53,,,,,,,,,296.8568506669835,,,,,,,,,,,,,,,,,,,,,,,,,,,,,,,,,,,,,,296.8505283749837,296.8568506669835,297.85502891699434,298.8416036670096,298.8416036670096,298.8416036670096,300.0745037079905,right,1.225658833020134,None,,,,,,,,,,,,,,,,,,,,,,,,,,,,,,,,,,,,,,,,,,,,,,910848,001,2024-11-28_13h21.34.608,Test,2024.2.4,None,2024-11-28 13h21.42.424664 +0100,
13,150,60,36,None,54,54,0,False,right,0.932041666994337,None,,,,,,,,0,54,54,54,,,,,,,,,300.0888482919836,,,,,,,,,,,,,,,,,,,,,,,,,,,,,,,,,,,,,,300.08238341700053,300.0888482919836,301.0883223749988,302.07323170799646,302.07323170799646,302.07323170799646,303.0076623329951,right,0.932041666994337,None,,,,,,,,,,,,,,,,,,,,,,,,,,,,,,,,,,,,,,,,,,,,,,910848,001,2024-11-28_13h21.34.608,Test,2024.2.4,None,2024-11-28 13h21.42.424664 +0100,
14,150,60,14,None,55,55,0,False,right,0.8977812500088476,None,,,,,,,,0,55,55,55,,,,,,,,,303.0227661670069,,,,,,,,,,,,,,,,,,,,,,,,,,,,,,,,,,,,,,303.01669191700057,303.0227661670069,304.01620508299675,305.00691683299374,305.00691683299374,305.00691683299374,305.9086151669908,right,0.8977812500088476,None,,,,,,,,,,,,,,,,,,,,,,,,,,,,,,,,,,,,,,,,,,,,,,910848,001,2024-11-28_13h21.34.608,Test,2024.2.4,None,2024-11-28 13h21.42.424664 +0100,
41,150,30,60,None,56,56,0,True,right,1.08267779200105,None,,,,,,,,0,56,56,56,,,,,,,,,305.92299991700565,,,,,,,,,,,,,,,,,,,,,,,,,,,,,,,,,,,,,,305.9170398330025,305.92299991700565,306.9206253750017,307.90711500000907,307.90711500000907,307.90711500000907,309.00157187500736,right,1.08267779200105,None,,,,,,,,,,,,,,,,,,,,,,,,,,,,,,,,,,,,,,,,,,,,,,910848,001,2024-11-28_13h21.34.608,Test,2024.2.4,None,2024-11-28 13h21.42.424664 +0100,
59,150,120,3,None,57,57,0,True,left,1.311195874994155,None,,,,,,,,0,57,57,57,,,,,,,,,309.0166051670094,,,,,,,,,,,,,,,,,,,,,,,,,,,,,,,,,,,,,,309.00986495800316,309.0166051670094,310.00504474999616,310.9999476670055,310.9999476670055,310.9999476670055,312.31848620800884,left,1.311195874994155,None,,,,,,,,,,,,,,,,,,,,,,,,,,,,,,,,,,,,,,,,,,,,,,910848,001,2024-11-28_13h21.34.608,Test,2024.2.4,None,2024-11-28 13h21.42.424664 +0100,
34,150,180,10,None,58,58,0,False,left,1.117667332990095,None,,,,,,,,0,58,58,58,,,,,,,,,312.3315799999982,,,,,,,,,,,,,,,,,,,,,,,,,,,,,,,,,,,,,,312.32574825000484,312.3315799999982,313.3216575419938,314.31660587500664,314.31660587500664,314.31660587500664,315.4408172919939,left,1.117667332990095,None,,,,,,,,,,,,,,,,,,,,,,,,,,,,,,,,,,,,,,,,,,,,,,910848,001,2024-11-28_13h21.34.608,Test,2024.2.4,None,2024-11-28 13h21.42.424664 +0100,
61,150,150,31,None,59,59,0,True,right,1.6265717500064056,None,,,,,,,,0,59,59,59,,,,,,,,,315.4553965420055,,,,,,,,,,,,,,,,,,,,,,,,,,,,,,,,,,,,,,315.44937462499365,315.4553965420055,316.4496504169947,317.4403094169975,317.4403094169975,317.4403094169975,319.077032125002,right,1.6265717500064056,None,,,,,,,,,,,,,,,,,,,,,,,,,,,,,,,,,,,,,,,,,,,,,,910848,001,2024-11-28_13h21.34.608,Test,2024.2.4,None,2024-11-28 13h21.42.424664 +0100,
17,150,90,32,None,60,60,0,False,left,2.1661319590057246,None,,,,,,,,0,60,60,60,,,,,,,,,319.08837266699993,,,,,,,,,,,,,,,,,,,,,,,,,,,,,,,,,,,,,,319.08375499999966,319.08837266699993,320.0829199999862,321.07321425000555,321.07321425000555,321.07321425000555,323.24173387500923,left,2.1661319590057246,None,,,,,,,,,,,,,,,,,,,,,,,,,,,,,,,,,,,,,,,,,,,,,,910848,001,2024-11-28_13h21.34.608,Test,2024.2.4,None,2024-11-28 13h21.42.424664 +0100,
8,150,30,28,None,61,61,0,False,right,0.9821497910015751,None,,,,,,,,0,61,61,61,,,,,,,,,323.2570175419969,,,,,,,,,,,,,,,,,,,,,,,,,,,,,,,,,,,,,,323.2506708749861,323.2570175419969,324.25470729198423,325.24077045801096,325.24077045801096,325.24077045801096,326.22580874999403,right,0.9821497910015751,None,,,,,,,,,,,,,,,,,,,,,,,,,,,,,,,,,,,,,,,,,,,,,,910848,001,2024-11-28_13h21.34.608,Test,2024.2.4,None,2024-11-28 13h21.42.424664 +0100,
45,150,30,48,None,62,62,0,True,left,6.335512417019345,None,,,,,,,,0,62,62,62,,,,,,,,,326.2409072500013,,,,,,,,,,,,,,,,,,,,,,,,,,,,,,,,,,,,,,326.2345807499951,326.2409072500013,327.237517667003,328.22333620800055,328.22333620800055,328.22333620800055,334.5682757500035,left,6.335512417019345,None,331.21653195799445,331.21653195799445,331.2249977499887,,,,,,,,,,,,,,,,,,,,,,,,,,,,,,,,,,,,,,,,,,,910848,001,2024-11-28_13h21.34.608,Test,2024.2.4,None,2024-11-28 13h21.42.424664 +0100,
9,150,30,62,None,63,63,0,False,left,1.1236818750039674,None,,,,,,,,0,63,63,63,,,,,,,,,334.58109808299923,,,,,,,,,,,,,,,,,,,,,,,,,,,,,,,,,,,,,,334.5752358750033,334.58109808299923,335.57077525000204,336.56631779199233,336.56631779199233,336.56631779199233,337.7017902919906,left,1.1236818750039674,None,,,,,,,,,,,,,,,,,,,,,,,,,,,,,,,,,,,,,,,,,,,,,,910848,001,2024-11-28_13h21.34.608,Test,2024.2.4,None,2024-11-28 13h21.42.424664 +0100,
65,150,150,16,None,64,64,0,True,right,0.9674207089992706,None,,,,,,,,0,64,64,64,,,,,,,,,337.71755324999685,,,,,,,,,,,,,,,,,,,,,,,,,,,,,,,,,,,,,,337.7105270829925,337.71755324999685,338.71632149998914,339.6997402079869,339.6997402079869,339.6997402079869,340.677891875006,right,0.9674207089992706,None,,,,,,,,,,,,,,,,,,,,,,,,,,,,,,,,,,,,,,,,,,,,,,910848,001,2024-11-28_13h21.34.608,Test,2024.2.4,None,2024-11-28 13h21.42.424664 +0100,
66,150,180,54,None,65,65,0,True,left,1.1481912080198526,None,,,,,,,,0,65,65,65,,,,,,,,,340.68888391699875,,,,,,,,,,,,,,,,,,,,,,,,,,,,,,,,,,,,,,340.68427854200127,340.68888391699875,341.68297716698726,342.6732588330051,342.6732588330051,342.6732588330051,343.824455791997,left,1.1481912080198526,None,,,,,,,,,,,,,,,,,,,,,,,,,,,,,,,,,,,,,,,,,,,,,,910848,001,2024-11-28_13h21.34.608,Test,2024.2.4,None,2024-11-28 13h21.42.424664 +0100,
62,150,150,9,None,66,66,0,True,right,0.8700318749761209,None,,,,,,,,0,66,66,66,,,,,,,,,343.8383986669942,,,,,,,,,,,,,,,,,,,,,,,,,,,,,,,,,,,,,,343.83240408299025,343.8383986669942,344.83307058300124,345.8231491250044,345.8231491250044,345.8231491250044,346.7020533749892,right,0.8700318749761209,None,,,,,,,,,,,,,,,,,,,,,,,,,,,,,,,,,,,,,,,,,,,,,,910848,001,2024-11-28_13h21.34.608,Test,2024.2.4,None,2024-11-28 13h21.42.424664 +0100,
56,150,120,70,None,67,67,0,True,right,0.8783506249892525,None,,,,,,,,0,67,67,67,,,,,,,,,346.716821250011,,,,,,,,,,,,,,,,,,,,,,,,,,,,,,,,,,,,,,346.71001574999536,346.716821250011,347.70407987499493,348.69970020800247,348.69970020800247,348.69970020800247,349.5856964580016,right,0.8783506249892525,None,,,,,,,,,,,,,,,,,,,,,,,,,,,,,,,,,,,,,,,,,,,,,,910848,001,2024-11-28_13h21.34.608,Test,2024.2.4,None,2024-11-28 13h21.42.424664 +0100,
47,150,60,42,None,68,68,0,True,left,2.0780347080144566,None,,,,,,,,0,68,68,68,,,,,,,,,349.6003905829857,,,,,,,,,,,,,,,,,,,,,,,,,,,,,,,,,,,,,,349.5944448749942,349.6003905829857,350.58786970798974,351.5830354169884,351.5830354169884,351.5830354169884,353.66833862499334,left,2.0780347080144566,None,,,,,,,,,,,,,,,,,,,,,,,,,,,,,,,,,,,,,,,,,,,,,,910848,001,2024-11-28_13h21.34.608,Test,2024.2.4,None,2024-11-28 13h21.42.424664 +0100,
10,150,30,57,None,69,69,0,False,right,1.6334470419969875,None,,,,,,,,0,69,69,69,,,,,,,,,353.6822732499859,,,,,,,,,,,,,,,,,,,,,,,,,,,,,,,,,,,,,,353.6765130420099,353.6822732499859,354.671501875011,355.66647262498736,355.66647262498736,355.66647262498736,357.30275629198877,right,1.6334470419969875,None,,,,,,,,,,,,,,,,,,,,,,,,,,,,,,,,,,,,,,,,,,,,,,910848,001,2024-11-28_13h21.34.608,Test,2024.2.4,None,2024-11-28 13h21.42.424664 +0100,
,,,,,,,,,,,,,,,,,,,,,,,,,,,,,,,,,,,,,,,,,,,,,,,,,,,,,,,,,,,,,,,,,,,,,,,,,,,,,,,,,,357.30313766701147,357.3130536249955,357.3130536249955,373.151022999984,space,15.828689749992918,None,,,,,,,,,,,,,,,,,,,,,,,,,,,,,,,,,,,,910848,001,2024-11-28_13h21.34.608,Test,2024.2.4,None,2024-11-28 13h21.42.424664 +0100,
7,150,30,15,None,0,0,0,,,,,,,,,,,,,,,,0,0,0,6,,,,,373.17699837498367,,,,,,,,,,,,,,,,,,,,,,,,,,,,,,,,,,,,,,,,,,,,,,,,,,,,,,,,,,373.16862574999686,373.17699837498367,373.34971979199327,373.34971979199327,373.37223220799933,375.0482653749932,375.0482653749932,375.03422450000653,,,,,,,,,,,,,,,,,,,,,,,,,,,,910848,001,2024-11-28_13h21.34.608,Test,2024.2.4,None,2024-11-28 13h21.42.424664 +0100,
31,150,180,29,None,1,1,0,,,,,,,,,,,,,,,,0,1,1,30,,,,,375.0482653749932,,,,,,,,,,,,,,,,,,,,,,,,,,,,,,,,,,,,,,,,,,,,,,,,,,,,,,,,,,375.04319691698765,375.0531665830058,375.2495982499968,375.2495982499968,375.2495982499968,376.94743120798375,376.94743120798375,376.9339830419922,,,,,,,,,,,,,,,,,,,,,,,,,,,,910848,001,2024-11-28_13h21.34.608,Test,2024.2.4,None,2024-11-28 13h21.42.424664 +0100,
18,150,90,52,None,2,2,0,,,,,,,,,,,,,,,,0,2,2,17,,,,,376.94743120798375,,,,,,,,,,,,,,,,,,,,,,,,,,,,,,,,,,,,,,,,,,,,,,,,,,,,,,,,,,376.94226516698836,376.9523622079869,377.1496725830075,377.1496725830075,377.1496725830075,378.84772216700367,378.84772216700367,378.83395933298743,,,,,,,,,,,,,,,,,,,,,,,,,,,,910848,001,2024-11-28_13h21.34.608,Test,2024.2.4,None,2024-11-28 13h21.42.424664 +0100,
19,150,90,37,None,3,3,0,,,,,,,,,,,,,,,,0,3,3,18,,,,,378.84772216700367,,,,,,,,,,,,,,,,,,,,,,,,,,,,,,,,,,,,,,,,,,,,,,,,,,,,,,,,,,378.84278345800703,378.852558374987,379.0497463750071,379.0497463750071,379.0497463750071,380.74736279199715,380.74736279199715,380.7340037499962,,,,,,,,,,,,,,,,,,,,,,,,,,,,910848,001,2024-11-28_13h21.34.608,Test,2024.2.4,None,2024-11-28 13h21.42.424664 +0100,
4,150,0,35,None,4,4,0,,,,,,,,,,,,,,,,0,4,4,3,,,,,380.74736279199715,,,,,,,,,,,,,,,,,,,,,,,,,,,,,,,,,,,,,,,,,,,,,,,,,,,,,,,,,,380.74255162500776,380.75215616700007,380.94988370800274,380.94988370800274,380.94988370800274,382.6474045829964,382.6474045829964,382.6340631250059,,,,,,,,,,,,,,,,,,,,,,,,,,,,910848,001,2024-11-28_13h21.34.608,Test,2024.2.4,None,2024-11-28 13h21.42.424664 +0100,
14,150,60,14,None,5,5,0,,,,,,,,,,,,,,,,0,5,5,13,,,,,382.6474045829964,,,,,,,,,,,,,,,,,,,,,,,,,,,,,,,,,,,,,,,,,,,,,,,,,,,,,,,,,,382.64240987499943,382.65272258300683,382.8497273749963,382.8497273749963,382.8497273749963,384.5470508330036,384.5470508330036,384.5339387499844,,,,,,,,,,,,,,,,,,,,,,,,,,,,910848,001,2024-11-28_13h21.34.608,Test,2024.2.4,None,2024-11-28 13h21.42.424664 +0100,
12,150,60,22,None,6,6,0,,,,,,,,,,,,,,,,0,6,6,11,,,,,384.5470508330036,,,,,,,,,,,,,,,,,,,,,,,,,,,,,,,,,,,,,,,,,,,,,,,,,,,,,,,,,,384.5422326249827,384.55172433299595,384.7498238749977,384.7498238749977,384.7498238749977,386.44854708301136,386.44854708301136,386.43443983298494,,,,,,,,,,,,,,,,,,,,,,,,,,,,910848,001,2024-11-28_13h21.34.608,Test,2024.2.4,None,2024-11-28 13h21.42.424664 +0100,
30,150,150,2,None,7,7,0,,,,,,,,,,,,,,,,0,7,7,29,,,,,386.44854708301136,,,,,,,,,,,,,,,,,,,,,,,,,,,,,,,,,,,,,,,,,,,,,,,,,,,,,,,,,,386.44369929199456,386.45438054201077,386.6496699999843,386.6496699999843,386.6496699999843,388.346549082984,388.346549082984,388.3339986669889,,,,,,,,,,,,,,,,,,,,,,,,,,,,910848,001,2024-11-28_13h21.34.608,Test,2024.2.4,None,2024-11-28 13h21.42.424664 +0100,
33,150,180,64,None,8,8,0,,,,,,,,,,,,,,,,0,8,8,32,,,,,388.346549082984,,,,,,,,,,,,,,,,,,,,,,,,,,,,,,,,,,,,,,,,,,,,,,,,,,,,,,,,,,388.3417486670078,388.3515412079869,388.54982108299737,388.54982108299737,388.54982108299737,390.2461692499928,390.2461692499928,390.2336887079873,,,,,,,,,,,,,,,,,,,,,,,,,,,,910848,001,2024-11-28_13h21.34.608,Test,2024.2.4,None,2024-11-28 13h21.42.424664 +0100,
20,150,90,21,None,9,9,0,,,,,,,,,,,,,,,,0,9,9,19,,,,,390.2461692499928,,,,,,,,,,,,,,,,,,,,,,,,,,,,,,,,,,,,,,,,,,,,,,,,,,,,,,,,,,390.24137170799077,390.25041633300134,390.4496240419976,390.4496240419976,390.43838087498443,392.147703249997,392.147703249997,392.1338874580106,,,,,,,,,,,,,,,,,,,,,,,,,,,,910848,001,2024-11-28_13h21.34.608,Test,2024.2.4,None,2024-11-28 13h21.42.424664 +0100,
17,150,90,32,None,10,10,0,,,,,,,,,,,,,,,,0,10,10,16,,,,,392.147703249997,,,,,,,,,,,,,,,,,,,,,,,,,,,,,,,,,,,,,,,,,,,,,,,,,,,,,,,,,,392.14262679198873,392.1526015420095,392.3496781249996,392.3496781249996,392.3496781249996,394.04677212500246,394.04677212500246,394.03385449998314,,,,,,,,,,,,,,,,,,,,,,,,,,,,910848,001,2024-11-28_13h21.34.608,Test,2024.2.4,None,2024-11-28 13h21.42.424664 +0100,
13,150,60,36,None,11,11,0,,,,,,,,,,,,,,,,0,11,11,12,,,,,394.04677212500246,,,,,,,,,,,,,,,,,,,,,,,,,,,,,,,,,,,,,,,,,,,,,,,,,,,,,,,,,,394.04187237500446,394.0511004999862,394.2497269169835,394.2497269169835,394.2497269169835,395.94666433299426,395.94666433299426,395.9339294169913,,,,,,,,,,,,,,,,,,,,,,,,,,,,910848,001,2024-11-28_13h21.34.608,Test,2024.2.4,None,2024-11-28 13h21.42.424664 +0100,
28,150,150,12,None,12,12,0,,,,,,,,,,,,,,,,0,12,12,27,,,,,395.94666433299426,,,,,,,,,,,,,,,,,,,,,,,,,,,,,,,,,,,,,,,,,,,,,,,,,,,,,,,,,,395.9417064579902,395.951344333007,396.14968070801115,396.14968070801115,396.14968070801115,397.8477304999833,397.8477304999833,397.83465320800315,,,,,,,,,,,,,,,,,,,,,,,,,,,,910848,001,2024-11-28_13h21.34.608,Test,2024.2.4,None,2024-11-28 13h21.42.424664 +0100,
16,150,90,46,None,13,13,0,,,,,,,,,,,,,,,,0,13,13,15,,,,,397.8477304999833,,,,,,,,,,,,,,,,,,,,,,,,,,,,,,,,,,,,,,,,,,,,,,,,,,,,,,,,,,397.8427785419917,397.8525521249976,398.0494428749953,398.0494428749953,398.0494428749953,399.7468384169915,399.7468384169915,399.73385154199786,,,,,,,,,,,,,,,,,,,,,,,,,,,,910848,001,2024-11-28_13h21.34.608,Test,2024.2.4,None,2024-11-28 13h21.42.424664 +0100,
26,150,150,69,None,14,14,0,,,,,,,,,,,,,,,,0,14,14,25,,,,,399.7468384169915,,,,,,,,,,,,,,,,,,,,,,,,,,,,,,,,,,,,,,,,,,,,,,,,,,,,,,,,,,399.7419639999862,399.7515120829921,399.9498782499868,399.9498782499868,399.9498782499868,401.6472237499838,401.6472237499838,401.6339540419867,,,,,,,,,,,,,,,,,,,,,,,,,,,,910848,001,2024-11-28_13h21.34.608,Test,2024.2.4,None,2024-11-28 13h21.42.424664 +0100,
11,150,60,33,None,15,15,0,,,,,,,,,,,,,,,,0,15,15,10,,,,,401.6472237499838,,,,,,,,,,,,,,,,,,,,,,,,,,,,,,,,,,,,,,,,,,,,,,,,,,,,,,,,,,401.64241770800436,401.6511262499844,401.84970337498817,401.84970337498817,401.84970337498817,403.5472498330055,403.5472498330055,403.5336851250031,,,,,,,,,,,,,,,,,,,,,,,,,,,,910848,001,2024-11-28_13h21.34.608,Test,2024.2.4,None,2024-11-28 13h21.42.424664 +0100,
15,150,60,7,None,16,16,0,,,,,,,,,,,,,,,,0,16,16,14,,,,,403.5472498330055,,,,,,,,,,,,,,,,,,,,,,,,,,,,,,,,,,,,,,,,,,,,,,,,,,,,,,,,,,403.5424428329861,403.55115891699097,403.7497952079866,403.7497952079866,403.7497952079866,405.4527621669986,405.4527621669986,405.433921207994,,,,,,,,,,,,,,,,,,,,,,,,,,,,910848,001,2024-11-28_13h21.34.608,Test,2024.2.4,None,2024-11-28 13h21.42.424664 +0100,
9,150,30,62,None,17,17,0,,,,,,,,,,,,,,,,0,17,17,8,,,,,405.4527621669986,,,,,,,,,,,,,,,,,,,,,,,,,,,,,,,,,,,,,,,,,,,,,,,,,,,,,,,,,,405.44820074999006,405.4660906250065,405.64926079200814,405.64926079200814,405.65544145798776,407.3479427919956,407.3479427919956,407.33407958300086,,,,,,,,,,,,,,,,,,,,,,,,,,,,910848,001,2024-11-28_13h21.34.608,Test,2024.2.4,None,2024-11-28 13h21.42.424664 +0100,
32,150,180,67,None,18,18,0,,,,,,,,,,,,,,,,0,18,18,31,,,,,407.3479427919956,,,,,,,,,,,,,,,,,,,,,,,,,,,,,,,,,,,,,,,,,,,,,,,,,,,,,,,,,,407.3429646669829,407.3519073330099,407.54964416701114,407.54964416701114,407.54964416701114,409.2482852920075,409.2482852920075,409.2341300419939,,,,,,,,,,,,,,,,,,,,,,,,,,,,910848,001,2024-11-28_13h21.34.608,Test,2024.2.4,None,2024-11-28 13h21.42.424664 +0100,
2,150,0,44,None,19,19,0,,,,,,,,,,,,,,,,0,19,19,1,,,,,409.2482852920075,,,,,,,,,,,,,,,,,,,,,,,,,,,,,,,,,,,,,,,,,,,,,,,,,,,,,,,,,,409.2430694169889,409.25277454199386,409.44986479199724,409.44986479199724,409.44986479199724,411.1471817920101,411.1471817920101,411.13396574999206,,,,,,,,,,,,,,,,,,,,,,,,,,,,910848,001,2024-11-28_13h21.34.608,Test,2024.2.4,None,2024-11-28 13h21.42.424664 +0100,
27,150,150,63,None,20,20,0,,,,,,,,,,,,,,,,0,20,20,26,,,,,411.1471817920101,,,,,,,,,,,,,,,,,,,,,,,,,,,,,,,,,,,,,,,,,,,,,,,,,,,,,,,,,,411.14225325000007,411.1513930830115,411.3499138749903,411.3499138749903,411.3499138749903,413.0472888330114,413.0472888330114,413.03369149999344,,,,,,,,,,,,,,,,,,,,,,,,,,,,910848,001,2024-11-28_13h21.34.608,Test,2024.2.4,None,2024-11-28 13h21.42.424664 +0100,
34,150,180,10,None,21,21,0,,,,,,,,,,,,,,,,0,21,21,33,,,,,413.0472888330114,,,,,,,,,,,,,,,,,,,,,,,,,,,,,,,,,,,,,,,,,,,,,,,,,,,,,,,,,,413.04224841698306,413.05136133299675,413.2497572499851,413.2497572499851,413.2497572499851,414.94844883299083,414.94844883299083,414.9343460829987,,,,,,,,,,,,,,,,,,,,,,,,,,,,910848,001,2024-11-28_13h21.34.608,Test,2024.2.4,None,2024-11-28 13h21.42.424664 +0100,
3,150,0,18,None,22,22,0,,,,,,,,,,,,,,,,0,22,22,2,,,,,414.94844883299083,,,,,,,,,,,,,,,,,,,,,,,,,,,,,,,,,,,,,,,,,,,,,,,,,,,,,,,,,,414.94321891700383,414.9530841670057,415.14959966699826,415.14959966699826,415.14959966699826,416.8479962919955,416.8479962919955,416.8340140419896,,,,,,,,,,,,,,,,,,,,,,,,,,,,910848,001,2024-11-28_13h21.34.608,Test,2024.2.4,None,2024-11-28 13h21.42.424664 +0100,
25,150,120,4,None,23,23,0,,,,,,,,,,,,,,,,0,23,23,24,,,,,416.8479962919955,,,,,,,,,,,,,,,,,,,,,,,,,,,,,,,,,,,,,,,,,,,,,,,,,,,,,,,,,,416.84298175000004,416.8527075419843,417.04970083298394,417.04970083298394,417.04970083298394,418.7488436670101,418.7488436670101,418.73439475000487,,,,,,,,,,,,,,,,,,,,,,,,,,,,910848,001,2024-11-28_13h21.34.608,Test,2024.2.4,None,2024-11-28 13h21.42.424664 +0100,
22,150,120,25,None,24,24,0,,,,,,,,,,,,,,,,0,24,24,21,,,,,418.7488436670101,,,,,,,,,,,,,,,,,,,,,,,,,,,,,,,,,,,,,,,,,,,,,,,,,,,,,,,,,,418.74377841700334,418.75349429200287,418.94976208300795,418.94976208300795,418.94976208300795,420.6471034169954,420.6471034169954,420.6339191669831,,,,,,,,,,,,,,,,,,,,,,,,,,,,910848,001,2024-11-28_13h21.34.608,Test,2024.2.4,None,2024-11-28 13h21.42.424664 +0100,
1,150,0,55,None,25,25,0,,,,,,,,,,,,,,,,0,25,25,0,,,,,420.6471034169954,,,,,,,,,,,,,,,,,,,,,,,,,,,,,,,,,,,,,,,,,,,,,,,,,,,,,,,,,,420.6421451669885,420.65186862499104,420.8496447080106,420.8496447080106,420.8496447080106,422.55125225000666,422.55125225000666,422.5339734579902,,,,,,,,,,,,,,,,,,,,,,,,,,,,910848,001,2024-11-28_13h21.34.608,Test,2024.2.4,None,2024-11-28 13h21.42.424664 +0100,
29,150,150,11,None,26,26,0,,,,,,,,,,,,,,,,0,26,26,28,,,,,422.55125225000666,,,,,,,,,,,,,,,,,,,,,,,,,,,,,,,,,,,,,,,,,,,,,,,,,,,,,,,,,,422.54660641698865,422.56640537499334,422.7483972919872,422.7483972919872,422.7663480420015,424.4478198750003,424.4478198750003,424.43366787501145,,,,,,,,,,,,,,,,,,,,,,,,,,,,910848,001,2024-11-28_13h21.34.608,Test,2024.2.4,None,2024-11-28 13h21.42.424664 +0100,
21,150,120,58,None,27,27,0,,,,,,,,,,,,,,,,0,27,27,20,,,,,424.4478198750003,,,,,,,,,,,,,,,,,,,,,,,,,,,,,,,,,,,,,,,,,,,,,,,,,,,,,,,,,,424.4427484580083,424.4518568330095,424.64977766698576,424.64977766698576,424.64977766698576,426.34725824999623,426.34725824999623,426.3338916669891,,,,,,,,,,,,,,,,,,,,,,,,,,,,910848,001,2024-11-28_13h21.34.608,Test,2024.2.4,None,2024-11-28 13h21.42.424664 +0100,
8,150,30,28,None,28,28,0,,,,,,,,,,,,,,,,0,28,28,7,,,,,426.34725824999623,,,,,,,,,,,,,,,,,,,,,,,,,,,,,,,,,,,,,,,,,,,,,,,,,,,,,,,,,,426.3423538329953,426.3520585419901,426.5496680419892,426.5496680419892,426.5496680419892,428.24704166699667,428.24704166699667,428.2340855830116,,,,,,,,,,,,,,,,,,,,,,,,,,,,910848,001,2024-11-28_13h21.34.608,Test,2024.2.4,None,2024-11-28 13h21.42.424664 +0100,
6,150,30,68,None,29,29,0,,,,,,,,,,,,,,,,0,29,29,5,,,,,428.24704166699667,,,,,,,,,,,,,,,,,,,,,,,,,,,,,,,,,,,,,,,,,,,,,,,,,,,,,,,,,,428.2422731250117,428.2517998330004,428.4493512919871,428.4493512919871,428.4493512919871,430.1476423749991,430.1476423749991,430.1339240829984,,,,,,,,,,,,,,,,,,,,,,,,,,,,910848,001,2024-11-28_13h21.34.608,Test,2024.2.4,None,2024-11-28 13h21.42.424664 +0100,
23,150,120,13,None,30,30,0,,,,,,,,,,,,,,,,0,30,30,22,,,,,430.1476423749991,,,,,,,,,,,,,,,,,,,,,,,,,,,,,,,,,,,,,,,,,,,,,,,,,,,,,,,,,,430.1424768329889,430.15255179200904,430.34963608300313,430.34963608300313,430.34963608300313,432.04699362500105,432.04699362500105,432.03376916699926,,,,,,,,,,,,,,,,,,,,,,,,,,,,910848,001,2024-11-28_13h21.34.608,Test,2024.2.4,None,2024-11-28 13h21.42.424664 +0100,
35,150,180,19,None,31,31,0,,,,,,,,,,,,,,,,0,31,31,34,,,,,432.04699362500105,,,,,,,,,,,,,,,,,,,,,,,,,,,,,,,,,,,,,,,,,,,,,,,,,,,,,,,,,,432.0421372499841,432.05203512500157,432.2496851669857,432.2496851669857,432.2496851669857,433.9475955829839,433.9475955829839,433.9340594999958,,,,,,,,,,,,,,,,,,,,,,,,,,,,910848,001,2024-11-28_13h21.34.608,Test,2024.2.4,None,2024-11-28 13h21.42.424664 +0100,
5,150,0,59,None,32,32,0,,,,,,,,,,,,,,,,0,32,32,4,,,,,433.9475955829839,,,,,,,,,,,,,,,,,,,,,,,,,,,,,,,,,,,,,,,,,,,,,,,,,,,,,,,,,,433.9426663329941,433.95261891698465,434.149651374988,434.149651374988,434.149651374988,435.8477336250071,435.8477336250071,435.8339400829864,,,,,,,,,,,,,,,,,,,,,,,,,,,,910848,001,2024-11-28_13h21.34.608,Test,2024.2.4,None,2024-11-28 13h21.42.424664 +0100,
10,150,30,57,None,33,33,0,,,,,,,,,,,,,,,,0,33,33,9,,,,,435.8477336250071,,,,,,,,,,,,,,,,,,,,,,,,,,,,,,,,,,,,,,,,,,,,,,,,,,,,,,,,,,435.8428938330035,435.85159166698577,436.0496957919968,436.0496957919968,436.0496957919968,437.7475655419985,437.7475655419985,437.7342213749944,,,,,,,,,,,,,,,,,,,,,,,,,,,,910848,001,2024-11-28_13h21.34.608,Test,2024.2.4,None,2024-11-28 13h21.42.424664 +0100,
24,150,120,8,None,34,34,0,,,,,,,,,,,,,,,,0,34,34,23,,,,,437.7475655419985,,,,,,,,,,,,,,,,,,,,,,,,,,,,,,,,,,,,,,,,,,,,,,,,,,,,,,,,,,437.74264154199045,437.7520738329913,437.94971995800734,437.94971995800734,437.94971995800734,439.63961687500705,439.63961687500705,439.63411449998966,,,,,,,,,,,,,,,,,,,,,,,,,,,,910848,001,2024-11-28_13h21.34.608,Test,2024.2.4,None,2024-11-28 13h21.42.424664 +0100,
,,,,,,,,,,,,,,,,,,,,,,,,,,,,,,,,,,,,,,,,,,,,,,,,,,,,,,,,,,,,,,,,,,,,,,,,,,,,,,,,,,,,,,,,,,,,,,,,,439.6343738749856,439.6482652499981,439.6482652499981,446.8505968750105,space,7.195084750012029,None,,,,,,,,,,,,,,,,,,,,,910848,001,2024-11-28_13h21.34.608,Test,2024.2.4,None,2024-11-28 13h21.42.424664 +0100,
4,150,0,35,None,0,0,0,False,,,,right,1.2172247499984223,None,,,,,,,,,,,,,0,0,0,0,446.9532608749869,,,,,,,,,,,,,,,,,,,,,,,,,,,,,,,,,,,,,,,,,,,,,,,,,,,,,,,,,,,,,,,,,,,,,,,,,446.9481317079917,446.9532608749869,447.949989582994,448.84972166700754,448.84972166700754,448.84972166700754,450.0692602499912,right,1.2172247499984223,None,,,,,,,,,,,910848,001,2024-11-28_13h21.34.608,Test,2024.2.4,None,2024-11-28 13h21.42.424664 +0100,
31,150,180,29,None,1,1,0,False,,,,left,0.8873281250125729,None,,,,,,,,,,,,,0,1,1,1,450.0846540830098,,,,,,,,,,,,,,,,,,,,,,,,,,,,,,,,,,,,,,,,,,,,,,,,,,,,,,,,,,,,,,,,,,,,,,,,,450.077388042002,450.0846540830098,451.08302345799166,452.06636841699947,452.06636841699947,452.06636841699947,452.958484917006,left,0.8873281250125729,None,,,,,,,,,,,910848,001,2024-11-28_13h21.34.608,Test,2024.2.4,None,2024-11-28 13h21.42.424664 +0100,
33,150,180,64,None,2,2,0,False,,,,left,0.8111390419944655,None,,,,,,,,,,,,,0,2,2,2,452.9715372500068,,,,,,,,,,,,,,,,,,,,,,,,,,,,,,,,,,,,,,,,,,,,,,,,,,,,,,,,,,,,,,,,,,,,,,,,,452.9653685420053,452.9715372500068,453.9662447919836,454.9574205419922,454.9574205419922,454.9574205419922,455.77486949999,left,0.8111390419944655,None,,,,,,,,,,,910848,001,2024-11-28_13h21.34.608,Test,2024.2.4,None,2024-11-28 13h21.42.424664 +0100,
53,150,90,65,None,3,3,0,True,,,,right,0.8537040000082925,None,,,,,,,,,,,,,0,3,3,3,455.78960404198733,,,,,,,,,,,,,,,,,,,,,,,,,,,,,,,,,,,,,,,,,,,,,,,,,,,,,,,,,,,,,,,,,,,,,,,,,455.7827395829954,455.78960404198733,456.7875714999973,457.7726440000115,457.7726440000115,457.7726440000115,458.6350846249843,right,0.8537040000082925,None,,,,,,,,,,,910848,001,2024-11-28_13h21.34.608,Test,2024.2.4,None,2024-11-28 13h21.42.424664 +0100,
67,150,180,23,None,4,4,0,True,,,,right,1.0743963750137482,None,,,,,,,,,,,,,0,4,4,4,458.6503045420104,,,,,,,,,,,,,,,,,,,,,,,,,,,,,,,,,,,,,,,,,,,,,,,,,,,,,,,,,,,,,,,,,,,,,,,,,458.6434235830093,458.6503045420104,459.63827749999473,460.6329499580024,460.6329499580024,460.6329499580024,461.71905600000173,right,1.0743963750137482,None,,,,,,,,,,,910848,001,2024-11-28_13h21.34.608,Test,2024.2.4,None,2024-11-28 13h21.42.424664 +0100,
26,150,150,69,None,5,5,0,False,,,,left,1.2347343750006985,None,,,,,,,,,,,,,0,5,5,5,461.73362541699316,,,,,,,,,,,,,,,,,,,,,,,,,,,,,,,,,,,,,,,,,,,,,,,,,,,,,,,,,,,,,,,,,,,,,,,,,461.7266437920043,461.73362541699316,462.72168804198736,463.716314166988,463.716314166988,463.716314166988,464.95840087500983,left,1.2347343750006985,None,,,,,,,,,,,910848,001,2024-11-28_13h21.34.608,Test,2024.2.4,None,2024-11-28 13h21.42.424664 +0100,
38,150,0,53,None,6,6,0,True,,,,left,1.319569124985719,None,,,,,,,,,,,,,0,6,6,6,464.9735789579863,,,,,,,,,,,,,,,,,,,,,,,,,,,,,,,,,,,,,,,,,,,,,,,,,,,,,,,,,,,,,,,,,,,,,,,,,464.9668089580082,464.9735789579863,465.9718948749942,466.9578571250022,466.9578571250022,466.9578571250022,468.28515566699207,left,1.319569124985719,None,,,,,,,,,,,910848,001,2024-11-28_13h21.34.608,Test,2024.2.4,None,2024-11-28 13h21.42.424664 +0100,
48,150,60,45,None,7,7,0,True,,,,right,0.8337438330054283,None,,,,,,,,,,,,,0,7,7,7,468.2984525829961,,,,,,,,,,,,,,,,,,,,,,,,,,,,,,,,,,,,,,,,,,,,,,,,,,,,,,,,,,,,,,,,,,,,,,,,,468.2925619169837,468.2984525829961,469.28824104199884,470.2831576669996,470.2831576669996,470.2831576669996,471.1200651249965,right,0.8337438330054283,None,,,,,,,,,,,910848,001,2024-11-28_13h21.34.608,Test,2024.2.4,None,2024-11-28 13h21.42.424664 +0100,
50,150,60,61,None,8,8,0,True,,,,right,0.7125460829993244,None,,,,,,,,,,,,,0,8,8,8,471.135017958004,,,,,,,,,,,,,,,,,,,,,,,,,,,,,,,,,,,,,,,,,,,,,,,,,,,,,,,,,,,,,,,,,,,,,,,,,471.1288839170011,471.135017958004,472.13288687498425,473.1164244170068,473.1164244170068,473.1164244170068,473.83523245799006,right,0.7125460829993244,None,,,,,,,,,,,910848,001,2024-11-28_13h21.34.608,Test,2024.2.4,None,2024-11-28 13h21.42.424664 +0100,
11,150,60,33,None,9,9,0,False,,,,left,0.7894248329976108,None,,,,,,,,,,,,,0,9,9,9,473.8500484999968,,,,,,,,,,,,,,,,,,,,,,,,,,,,,,,,,,,,,,,,,,,,,,,,,,,,,,,,,,,,,,,,,,,,,,,,,473.84284133301117,473.8500484999968,474.83788495798944,475.8330713750038,475.8330713750038,475.8330713750038,476.62473041701014,left,0.7894248329976108,None,,,,,,,,,,,910848,001,2024-11-28_13h21.34.608,Test,2024.2.4,None,2024-11-28 13h21.42.424664 +0100,
46,150,60,66,None,10,10,0,True,,,,left,0.9685461669869255,None,,,,,,,,,,,,,0,10,10,10,476.6397092920088,,,,,,,,,,,,,,,,,,,,,,,,,,,,,,,,,,,,,,,,,,,,,,,,,,,,,,,,,,,,,,,,,,,,,,,,,476.6330669579911,476.6397092920088,477.63780425000004,478.6234894579975,478.6234894579975,478.6234894579975,479.6017813750077,left,0.9685461669869255,None,,,,,,,,,,,910848,001,2024-11-28_13h21.34.608,Test,2024.2.4,None,2024-11-28 13h21.42.424664 +0100,
69,150,180,47,None,11,11,0,True,,,,left,1.2512169999827165,None,,,,,,,,,,,,,0,11,11,11,479.616824458004,,,,,,,,,,,,,,,,,,,,,,,,,,,,,,,,,,,,,,,,,,,,,,,,,,,,,,,,,,,,,,,,,,,,,,,,,479.61003000001074,479.616824458004,480.6049079580116,481.5998060829879,481.5998060829879,481.5998060829879,482.85790062500746,left,1.2512169999827165,None,,,,,,,,,,,910848,001,2024-11-28_13h21.34.608,Test,2024.2.4,None,2024-11-28 13h21.42.424664 +0100,
40,150,0,34,None,12,12,0,True,,,,left,1.1634740000008605,None,,,,,,,,,,,,,0,12,12,12,482.872610624996,,,,,,,,,,,,,,,,,,,,,,,,,,,,,,,,,,,,,,,,,,,,,,,,,,,,,,,,,,,,,,,,,,,,,,,,,482.8664795829973,482.872610624996,483.86632495798403,484.8567577920039,484.8567577920039,484.8567577920039,486.0245073749975,left,1.1634740000008605,None,,,,,,,,,,,910848,001,2024-11-28_13h21.34.608,Test,2024.2.4,None,2024-11-28 13h21.42.424664 +0100,
5,150,0,59,None,13,13,0,False,,,,left,1.8176295830053277,None,,,,,,,,,,,,,0,13,13,13,486.0383632919984,,,,,,,,,,,,,,,,,,,,,,,,,,,,,,,,,,,,,,,,,,,,,,,,,,,,,,,,,,,,,,,,,,,,,,,,,486.0318640829937,486.0383632919984,487.0329842499923,488.02415854198625,488.02415854198625,488.02415854198625,489.85180587499053,left,1.8176295830053277,None,,,,,,,,,,,910848,001,2024-11-28_13h21.34.608,Test,2024.2.4,None,2024-11-28 13h21.42.424664 +0100,
25,150,120,4,None,14,14,0,False,,,,right,1.4840558330179192,None,,,,,,,,,,,,,0,14,14,14,489.86657337500947,,,,,,,,,,,,,,,,,,,,,,,,,,,,,,,,,,,,,,,,,,,,,,,,,,,,,,,,,,,,,,,,,,,,,,,,,489.85953062499175,489.86657337500947,490.8554941669863,491.84972587498487,491.84972587498487,491.84972587498487,493.34421133299475,right,1.4840558330179192,None,,,,,,,,,,,910848,001,2024-11-28_13h21.34.608,Test,2024.2.4,None,2024-11-28 13h21.42.424664 +0100,
51,150,90,20,None,15,15,0,True,,,,right,2.2514655419799965,None,,,,,,,,,,,,,0,15,15,15,493.3561110419978,,,,,,,,,,,,,,,,,,,,,,,,,,,,,,,,,,,,,,,,,,,,,,,,,,,,,,,,,,,,,,,,,,,,,,,,,493.35134566700435,493.3561110419978,494.3495533329842,495.3412993749953,495.3412993749953,495.3412993749953,497.6013772079896,right,2.2514655419799965,None,,,,,,,,,,,910848,001,2024-11-28_13h21.34.608,Test,2024.2.4,None,2024-11-28 13h21.42.424664 +0100,
42,150,30,30,None,16,16,0,True,,,,right,1.8446482080034912,None,,,,,,,,,,,,,0,16,16,16,497.6149284580024,,,,,,,,,,,,,,,,,,,,,,,,,,,,,,,,,,,,,,,,,,,,,,,,,,,,,,,,,,,,,,,,,,,,,,,,,497.6087041249848,497.6149284580024,498.60474962499575,499.599815374997,499.599815374997,499.599815374997,501.45272891700733,right,1.8446482080034912,None,,,,,,,,,,,910848,001,2024-11-28_13h21.34.608,Test,2024.2.4,None,2024-11-28 13h21.42.424664 +0100,
58,150,120,27,None,17,17,0,True,,,,right,1.4538156659982633,None,,,,,,,,,,,,,0,17,17,17,501.46896391699556,,,,,,,,,,,,,,,,,,,,,,,,,,,,,,,,,,,,,,,,,,,,,,,,,,,,,,,,,,,,,,,,,,,,,,,,,501.46227550000185,501.46896391699556,502.4662602499884,503.4497762079991,503.4497762079991,503.4497762079991,504.9075042080076,right,1.4538156659982633,None,,,,,,,,,,,910848,001,2024-11-28_13h21.34.608,Test,2024.2.4,None,2024-11-28 13h21.42.424664 +0100,
49,150,60,24,None,18,18,0,True,,,,left,1.1353932080091909,None,,,,,,,,,,,,,0,18,18,18,504.9221591250098,,,,,,,,,,,,,,,,,,,,,,,,,,,,,,,,,,,,,,,,,,,,,,,,,,,,,,,,,,,,,,,,,,,,,,,,,504.9161307500035,504.9221591250098,505.9162115830113,506.9078553750005,506.9078553750005,506.9078553750005,508.05177008299506,left,1.1353932080091909,None,,,,,,,,,,,910848,001,2024-11-28_13h21.34.608,Test,2024.2.4,None,2024-11-28 13h21.42.424664 +0100,
22,150,120,25,None,19,19,0,False,,,,right,1.1174736249959096,None,,,,,,,,,,,,,0,19,19,19,508.0665022920002,,,,,,,,,,,,,,,,,,,,,,,,,,,,,,,,,,,,,,,,,,,,,,,,,,,,,,,,,,,,,,,,,,,,,,,,,508.0593390830036,508.0665022920002,509.05495145800523,510.04981837500236,510.04981837500236,510.04981837500236,511.1744223749847,right,1.1174736249959096,None,,,,,,,,,,,910848,001,2024-11-28_13h21.34.608,Test,2024.2.4,None,2024-11-28 13h21.42.424664 +0100,
43,150,30,1,None,20,20,0,True,,,,left,1.8942053749924526,None,,,,,,,,,,,,,0,20,20,20,511.1889239579905,,,,,,,,,,,,,,,,,,,,,,,,,,,,,,,,,,,,,,,,,,,,,,,,,,,,,,,,,,,,,,,,,,,,,,,,,511.18300424999325,511.1889239579905,512.1828811669839,513.1734155000013,513.1734155000013,513.1734155000013,515.0744700419891,left,1.8942053749924526,None,,,,,,,,,,,910848,001,2024-11-28_13h21.34.608,Test,2024.2.4,None,2024-11-28 13h21.42.424664 +0100,
12,150,60,22,None,21,21,0,False,,,,right,1.1665588330070022,None,,,,,,,,,,,,,0,21,21,21,515.0895275000075,,,,,,,,,,,,,,,,,,,,,,,,,,,,,,,,,,,,,,,,,,,,,,,,,,,,,,,,,,,,,,,,,,,,,,,,,515.083298957994,515.0895275000075,516.0829339170014,517.0738624579972,517.0738624579972,517.0738624579972,518.2516993329918,right,1.1665588330070022,None,,,,,,,,,,,910848,001,2024-11-28_13h21.34.608,Test,2024.2.4,None,2024-11-28 13h21.42.424664 +0100,
20,150,90,21,None,22,22,0,False,,,,right,1.400034250022145,None,,,,,,,,,,,,,0,22,22,22,518.2666629579908,,,,,,,,,,,,,,,,,,,,,,,,,,,,,,,,,,,,,,,,,,,,,,,,,,,,,,,,,,,,,,,,,,,,,,,,,518.2604449169885,518.2666629579908,519.2540715420037,520.2497827920015,520.2497827920015,520.2497827920015,521.6524824170046,right,1.400034250022145,None,,,,,,,,,,,910848,001,2024-11-28_13h21.34.608,Test,2024.2.4,None,2024-11-28 13h21.42.424664 +0100,
57,150,120,6,None,23,23,0,True,,,,right,3.1031232500099577,None,,,,,,,,,,,,,0,23,23,23,521.6673501670011,,,,,,,,,,,,,,,,,,,,,,,,,,,,,,,,,,,,,,,,,,,,,,,,,,,,,,,,,,,,,,,,,,,,,,,,,521.6611552500108,521.6673501670011,522.6663033750083,523.6497163749882,523.6497163749882,523.6497163749882,526.7577137080079,right,3.1031232500099577,None,526.6388549169933,526.6388549169933,526.6493141250103,,,,,,,,910848,001,2024-11-28_13h21.34.608,Test,2024.2.4,None,2024-11-28 13h21.42.424664 +0100,
29,150,150,11,None,24,24,0,False,,,,left,1.9665361670195125,None,,,,,,,,,,,,,0,24,24,24,526.7739918330044,,,,,,,,,,,,,,,,,,,,,,,,,,,,,,,,,,,,,,,,,,,,,,,,,,,,,,,,,,,,,,,,,,,,,,,,,526.7678357920086,526.7739918330044,527.7707880419912,528.7587590829935,528.7587590829935,528.7587590829935,530.7347414999967,left,1.9665361670195125,None,,,,,,,,,,,910848,001,2024-11-28_13h21.34.608,Test,2024.2.4,None,2024-11-28 13h21.42.424664 +0100,
63,150,150,43,None,25,25,0,True,,,,right,0.9000795420142822,None,,,,,,,,,,,,,0,25,25,25,530.750640082988,,,,,,,,,,,,,,,,,,,,,,,,,,,,,,,,,,,,,,,,,,,,,,,,,,,,,,,,,,,,,,,,,,,,,,,,,530.744664333004,530.750640082988,531.7497302079864,532.7330533750064,532.7330533750064,532.7330533750064,533.6360170420085,right,0.9000795420142822,None,,,,,,,,,,,910848,001,2024-11-28_13h21.34.608,Test,2024.2.4,None,2024-11-28 13h21.42.424664 +0100,
36,150,0,5,None,26,26,0,True,,,,left,1.5296364999958314,None,,,,,,,,,,,,,0,26,26,26,533.6514512079884,,,,,,,,,,,,,,,,,,,,,,,,,,,,,,,,,,,,,,,,,,,,,,,,,,,,,,,,,,,,,,,,,,,,,,,,,533.6446972079866,533.6514512079884,534.6496413749992,535.6330256669899,535.6330256669899,535.6330256669899,537.1681948330079,left,1.5296364999958314,None,,,,,,,,,,,910848,001,2024-11-28_13h21.34.608,Test,2024.2.4,None,2024-11-28 13h21.42.424664 +0100,
60,150,120,56,None,27,27,0,True,,,,right,1.005900207994273,None,,,,,,,,,,,,,0,27,27,27,537.1830937920022,,,,,,,,,,,,,,,,,,,,,,,,,,,,,,,,,,,,,,,,,,,,,,,,,,,,,,,,,,,,,,,,,,,,,,,,,537.1768996669853,537.1830937920022,538.1712387079897,539.1665221669828,539.1665221669828,539.1665221669828,540.1749141250039,right,1.005900207994273,None,,,,,,,,,,,910848,001,2024-11-28_13h21.34.608,Test,2024.2.4,None,2024-11-28 13h21.42.424664 +0100,
3,150,0,18,None,28,28,0,False,,,,left,2.918042000004789,None,,,,,,,,,,,,,0,28,28,28,540.1891509580018,,,,,,,,,,,,,,,,,,,,,,,,,,,,,,,,,,,,,,,,,,,,,,,,,,,,,,,,,,,,,,,,,,,,,,,,,540.1823065000062,540.1891509580018,541.183028917003,542.1734802499996,542.1734802499996,542.1734802499996,545.1005186669936,left,2.918042000004789,None,,,,,,,,,,,910848,001,2024-11-28_13h21.34.608,Test,2024.2.4,None,2024-11-28 13h21.42.424664 +0100,
35,150,180,19,None,29,29,0,False,,,,right,1.2226712080009747,None,,,,,,,,,,,,,0,29,29,29,545.1146231250023,,,,,,,,,,,,,,,,,,,,,,,,,,,,,,,,,,,,,,,,,,,,,,,,,,,,,,,,,,,,,,,,,,,,,,,,,545.1079961670039,545.1146231250023,546.1042655420024,547.090728042007,547.090728042007,547.090728042007,548.3183216670004,right,1.2226712080009747,None,,,,,,,,,,,910848,001,2024-11-28_13h21.34.608,Test,2024.2.4,None,2024-11-28 13h21.42.424664 +0100,
15,150,60,7,None,30,30,0,False,,,,right,1.0177397079824004,None,,,,,,,,,,,,,0,30,30,30,548.332879374997,,,,,,,,,,,,,,,,,,,,,,,,,,,,,,,,,,,,,,,,,,,,,,,,,,,,,,,,,,,,,,,,,,,,,,,,,548.326515541994,548.332879374997,549.3213537920092,550.3165089579998,550.3165089579998,550.3165089579998,551.3411926249973,right,1.0177397079824004,None,,,,,,,,,,,910848,001,2024-11-28_13h21.34.608,Test,2024.2.4,None,2024-11-28 13h21.42.424664 +0100,
70,150,180,26,None,31,31,0,True,,,,right,1.5352604579820763,None,,,,,,,,,,,,,0,31,31,31,551.3554915830027,,,,,,,,,,,,,,,,,,,,,,,,,,,,,,,,,,,,,,,,,,,,,,,,,,,,,,,,,,,,,,,,,,,,,,,,,551.3495756670018,551.3554915830027,552.3496301670093,553.3398807079939,553.3398807079939,553.3398807079939,554.885655207996,right,1.5352604579820763,None,,,,,,,,,,,910848,001,2024-11-28_13h21.34.608,Test,2024.2.4,None,2024-11-28 13h21.42.424664 +0100,
64,150,150,41,None,32,32,0,True,,,,right,1.6039210000017192,None,,,,,,,,,,,,,0,32,32,32,554.9001213329902,,,,,,,,,,,,,,,,,,,,,,,,,,,,,,,,,,,,,,,,,,,,,,,,,,,,,,,,,,,,,,,,,,,,,,,,,554.8939124169992,554.9001213329902,555.8886369999964,556.8833978750044,556.8833978750044,556.8833978750044,558.491399999999,right,1.6039210000017192,None,,,,,,,,,,,910848,001,2024-11-28_13h21.34.608,Test,2024.2.4,None,2024-11-28 13h21.42.424664 +0100,
44,150,30,39,None,33,33,0,True,,,,right,1.026101708994247,None,,,,,,,,,,,,,0,33,33,33,558.5066432919994,,,,,,,,,,,,,,,,,,,,,,,,,,,,,,,,,,,,,,,,,,,,,,,,,,,,,,,,,,,,,,,,,,,,,,,,,558.4996136249974,558.5066432919994,559.5058399580012,560.4906812499976,560.4906812499976,560.4906812499976,561.5192128329945,right,1.026101708994247,None,,,,,,,,,,,910848,001,2024-11-28_13h21.34.608,Test,2024.2.4,None,2024-11-28 13h21.42.424664 +0100,
68,150,180,51,None,34,34,0,True,,,,right,1.787583083001664,None,,,,,,,,,,,,,0,34,34,34,561.5340185420064,,,,,,,,,,,,,,,,,,,,,,,,,,,,,,,,,,,,,,,,,,,,,,,,,,,,,,,,,,,,,,,,,,,,,,,,,561.5272929169878,561.5340185420064,562.5219162919966,563.5165428750042,563.5165428750042,563.5165428750042,565.307854499988,right,1.787583083001664,None,,,,,,,,,,,910848,001,2024-11-28_13h21.34.608,Test,2024.2.4,None,2024-11-28 13h21.42.424664 +0100,
23,150,120,13,None,35,35,0,False,,,,left,1.1172458340006415,None,,,,,,,,,,,,,0,35,35,35,565.3215051669977,,,,,,,,,,,,,,,,,,,,,,,,,,,,,,,,,,,,,,,,,,,,,,,,,,,,,,,,,,,,,,,,,,,,,,,,,565.3150676669902,565.3215051669977,566.316277542006,567.3072533329832,567.3072533329832,567.3072533329832,568.4352868330025,left,1.1172458340006415,None,,,,,,,,,,,910848,001,2024-11-28_13h21.34.608,Test,2024.2.4,None,2024-11-28 13h21.42.424664 +0100,
32,150,180,67,None,36,36,0,False,,,,right,0.9927211250178516,None,,,,,,,,,,,,,0,36,36,36,568.4501602079836,,,,,,,,,,,,,,,,,,,,,,,,,,,,,,,,,,,,,,,,,,,,,,,,,,,,,,,,,,,,,,,,,,,,,,,,,568.443761750008,568.4501602079836,569.4378199579951,570.4330761249876,570.4330761249876,570.4330761249876,571.4341218750051,right,0.9927211250178516,None,,,,,,,,,,,910848,001,2024-11-28_13h21.34.608,Test,2024.2.4,None,2024-11-28 13h21.42.424664 +0100,
52,150,90,40,None,37,37,0,True,,,,right,0.6765545410162304,None,,,,,,,,,,,,,0,37,37,37,571.4494029170019,,,,,,,,,,,,,,,,,,,,,,,,,,,,,,,,,,,,,,,,,,,,,,,,,,,,,,,,,,,,,,,,,,,,,,,,,571.4428182920092,571.4494029170019,572.438216791983,573.4332136249868,573.4332136249868,573.4332136249868,574.1182792919863,right,0.6765545410162304,None,,,,,,,,,,,910848,001,2024-11-28_13h21.34.608,Test,2024.2.4,None,2024-11-28 13h21.42.424664 +0100,
16,150,90,46,None,38,38,0,False,,,,right,2.2237694159848616,None,,,,,,,,,,,,,0,38,38,38,574.133083416993,,,,,,,,,,,,,,,,,,,,,,,,,,,,,,,,,,,,,,,,,,,,,,,,,,,,,,,,,,,,,,,,,,,,,,,,,574.1269838750013,574.133083416993,575.1203169169894,576.1163314169971,576.1163314169971,576.1163314169971,578.3517829169868,right,2.2237694159848616,None,,,,,,,,,,,910848,001,2024-11-28_13h21.34.608,Test,2024.2.4,None,2024-11-28 13h21.42.424664 +0100,
19,150,90,37,None,39,39,0,False,,,,right,0.9795764159935061,None,,,,,,,,,,,,,0,39,39,39,578.3673310419836,,,,,,,,,,,,,,,,,,,,,,,,,,,,,,,,,,,,,,,,,,,,,,,,,,,,,,,,,,,,,,,,,,,,,,,,,578.3605327499972,578.3673310419836,579.3547280420025,580.3497329579841,580.3497329579841,580.3497329579841,581.3354867080052,right,0.9795764159935061,None,,,,,,,,,,,910848,001,2024-11-28_13h21.34.608,Test,2024.2.4,None,2024-11-28 13h21.42.424664 +0100,
6,150,30,68,None,40,40,0,False,,,,left,0.9891592919884715,None,,,,,,,,,,,,,0,40,40,40,581.3496207919961,,,,,,,,,,,,,,,,,,,,,,,,,,,,,,,,,,,,,,,,,,,,,,,,,,,,,,,,,,,,,,,,,,,,,,,,,581.3429412920086,581.3496207919961,582.3383965829853,583.3334733750089,583.3334733750089,583.3334733750089,584.3251071670093,left,0.9891592919884715,None,,,,,,,,,,,910848,001,2024-11-28_13h21.34.608,Test,2024.2.4,None,2024-11-28 13h21.42.424664 +0100,
21,150,120,58,None,41,41,0,False,,,,right,0.7491250419989228,None,,,,,,,,,,,,,0,41,41,41,584.3396898749925,,,,,,,,,,,,,,,,,,,,,,,,,,,,,,,,,,,,,,,,,,,,,,,,,,,,,,,,,,,,,,,,,,,,,,,,,584.333301125007,584.3396898749925,585.3375244580093,586.3235747499857,586.3235747499857,586.3235747499857,587.0753611249966,right,0.7491250419989228,None,,,,,,,,,,,910848,001,2024-11-28_13h21.34.608,Test,2024.2.4,None,2024-11-28 13h21.42.424664 +0100,
28,150,150,12,None,42,42,0,False,,,,right,2.192920583009254,None,,,,,,,,,,,,,0,42,42,42,587.0897335420013,,,,,,,,,,,,,,,,,,,,,,,,,,,,,,,,,,,,,,,,,,,,,,,,,,,,,,,,,,,,,,,,,,,,,,,,,587.0834642080008,587.0897335420013,588.0887384579983,589.0737099580001,589.0737099580001,589.0737099580001,591.2696077919973,right,2.192920583009254,None,,,,,,,,,,,910848,001,2024-11-28_13h21.34.608,Test,2024.2.4,None,2024-11-28 13h21.42.424664 +0100,
27,150,150,63,None,43,43,0,False,,,,right,0.7720685000240337,None,,,,,,,,,,,,,0,43,43,43,591.2840625829995,,,,,,,,,,,,,,,,,,,,,,,,,,,,,,,,,,,,,,,,,,,,,,,,,,,,,,,,,,,,,,,,,,,,,,,,,591.2772448750038,591.2840625829995,592.282902417006,593.266485708009,593.266485708009,593.266485708009,594.0412788329995,right,0.7720685000240337,None,,,,,,,,,,,910848,001,2024-11-28_13h21.34.608,Test,2024.2.4,None,2024-11-28 13h21.42.424664 +0100,
1,150,0,55,None,44,44,0,False,,,,left,1.2519612920004874,None,,,,,,,,,,,,,0,44,44,44,594.0549469169928,,,,,,,,,,,,,,,,,,,,,,,,,,,,,,,,,,,,,,,,,,,,,,,,,,,,,,,,,,,,,,,,,,,,,,,,,594.0486044999852,594.0549469169928,595.049612917006,596.0402280419949,596.0402280419949,596.0402280419949,597.301755499997,left,1.2519612920004874,None,,,,,,,,,,,910848,001,2024-11-28_13h21.34.608,Test,2024.2.4,None,2024-11-28 13h21.42.424664 +0100,
7,150,30,15,None,45,45,0,False,,,,right,0.8572596669837367,None,,,,,,,,,,,,,0,45,45,45,597.3174497080036,,,,,,,,,,,,,,,,,,,,,,,,,,,,,,,,,,,,,,,,,,,,,,,,,,,,,,,,,,,,,,,,,,,,,,,,,597.3107620420051,597.3174497080036,598.3162797499972,599.299857667007,599.299857667007,599.299857667007,600.1672635420109,right,0.8572596669837367,None,,,,,,,,,,,910848,001,2024-11-28_13h21.34.608,Test,2024.2.4,None,2024-11-28 13h21.42.424664 +0100,
24,150,120,8,None,46,46,0,False,,,,right,0.8614702080085408,None,,,,,,,,,,,,,0,46,46,46,600.1792325419956,,,,,,,,,,,,,,,,,,,,,,,,,,,,,,,,,,,,,,,,,,,,,,,,,,,,,,,,,,,,,,,,,,,,,,,,,600.1742729170073,600.1792325419956,601.1722404579923,602.1567184169835,602.1567184169835,602.1567184169835,603.0247784169915,right,0.8614702080085408,None,,,,,,,,,,,910848,001,2024-11-28_13h21.34.608,Test,2024.2.4,None,2024-11-28 13h21.42.424664 +0100,
39,150,0,17,None,47,47,0,True,,,,right,0.9799344589991961,None,,,,,,,,,,,,,0,47,47,47,603.0395361669944,,,,,,,,,,,,,,,,,,,,,,,,,,,,,,,,,,,,,,,,,,,,,,,,,,,,,,,,,,,,,,,,,,,,,,,,,603.0334521670011,603.0395361669944,604.0378610829939,605.0247521669953,605.0247521669953,605.0247521669953,606.0074466670048,right,0.9799344589991961,None,,,,,,,,,,,910848,001,2024-11-28_13h21.34.608,Test,2024.2.4,None,2024-11-28 13h21.42.424664 +0100,
2,150,0,44,None,48,48,0,False,,,,right,1.0603464579908177,None,,,,,,,,,,,,,0,48,48,48,606.0227395000111,,,,,,,,,,,,,,,,,,,,,,,,,,,,,,,,,,,,,,,,,,,,,,,,,,,,,,,,,,,,,,,,,,,,,,,,,606.016249917011,606.0227395000111,607.0163111249858,608.0073975420091,608.0073975420091,608.0073975420091,609.0746108749881,right,1.0603464579908177,None,,,,,,,,,,,910848,001,2024-11-28_13h21.34.608,Test,2024.2.4,None,2024-11-28 13h21.42.424664 +0100,
18,150,90,52,None,49,49,0,False,,,,right,2.2268085830146447,None,,,,,,,,,,,,,0,49,49,49,609.089754332992,,,,,,,,,,,,,,,,,,,,,,,,,,,,,,,,,,,,,,,,,,,,,,,,,,,,,,,,,,,,,,,,,,,,,,,,,609.0837335000106,609.089754332992,610.0877567080024,611.073251416994,611.073251416994,611.073251416994,613.3024098750029,right,2.2268085830146447,None,,,,,,,,,,,910848,001,2024-11-28_13h21.34.608,Test,2024.2.4,None,2024-11-28 13h21.42.424664 +0100,
54,150,90,38,None,50,50,0,True,,,,right,1.6944242919853423,None,,,,,,,,,,,,,0,50,50,50,613.3181769170042,,,,,,,,,,,,,,,,,,,,,,,,,,,,,,,,,,,,,,,,,,,,,,,,,,,,,,,,,,,,,,,,,,,,,,,,,613.3114455830073,613.3181769170042,614.3163615829835,615.2998112920031,615.2998112920031,615.2998112920031,617.001698542008,right,1.6944242919853423,None,,,,,,,,,,,910848,001,2024-11-28_13h21.34.608,Test,2024.2.4,None,2024-11-28 13h21.42.424664 +0100,
30,150,150,2,None,51,51,0,False,,,,left,1.2873979170108214,None,,,,,,,,,,,,,0,51,51,51,617.0169303329894,,,,,,,,,,,,,,,,,,,,,,,,,,,,,,,,,,,,,,,,,,,,,,,,,,,,,,,,,,,,,,,,,,,,,,,,,617.0104637919867,617.0169303329894,618.0050687080075,618.9999137079867,618.9999137079867,618.9999137079867,620.2909799999907,left,1.2873979170108214,None,,,,,,,,,,,910848,001,2024-11-28_13h21.34.608,Test,2024.2.4,None,2024-11-28 13h21.42.424664 +0100,
37,150,0,50,None,52,52,0,True,,,,left,1.1057557919993997,None,,,,,,,,,,,,,0,52,52,52,620.305767791986,,,,,,,,,,,,,,,,,,,,,,,,,,,,,,,,,,,,,,,,,,,,,,,,,,,,,,,,,,,,,,,,,,,,,,,,,620.2993651670113,620.305767791986,621.2996125000063,622.2910320420051,622.2910320420051,622.2910320420051,623.4018289579835,left,1.1057557919993997,None,,,,,,,,,,,910848,001,2024-11-28_13h21.34.608,Test,2024.2.4,None,2024-11-28 13h21.42.424664 +0100,
55,150,90,49,None,53,53,0,True,,,,right,0.721922665979946,None,,,,,,,,,,,,,0,53,53,53,623.4169050829951,,,,,,,,,,,,,,,,,,,,,,,,,,,,,,,,,,,,,,,,,,,,,,,,,,,,,,,,,,,,,,,,,,,,,,,,,623.4105934170075,623.4169050829951,624.4049208330107,625.3998096669966,625.3998096669966,625.3998096669966,626.1241961669875,right,0.721922665979946,None,,,,,,,,,,,910848,001,2024-11-28_13h21.34.608,Test,2024.2.4,None,2024-11-28 13h21.42.424664 +0100,
13,150,60,36,None,54,54,0,False,,,,left,1.1485303750087041,None,,,,,,,,,,,,,0,54,54,54,626.1382806249894,,,,,,,,,,,,,,,,,,,,,,,,,,,,,,,,,,,,,,,,,,,,,,,,,,,,,,,,,,,,,,,,,,,,,,,,,626.1323190419935,626.1382806249894,627.1330740829872,628.1237518329872,628.1237518329872,628.1237518329872,629.2753778749902,left,1.1485303750087041,None,,,,,,,,,,,910848,001,2024-11-28_13h21.34.608,Test,2024.2.4,None,2024-11-28 13h21.42.424664 +0100,
14,150,60,14,None,55,55,0,False,,,,left,1.205287374992622,None,,,,,,,,,,,,,0,55,55,55,629.2896448750107,,,,,,,,,,,,,,,,,,,,,,,,,,,,,,,,,,,,,,,,,,,,,,,,,,,,,,,,,,,,,,,,,,,,,,,,,629.2838023749937,629.2896448750107,630.2831900419842,631.2733816250111,631.2733816250111,631.2733816250111,632.4850485420029,left,1.205287374992622,None,,,,,,,,,,,910848,001,2024-11-28_13h21.34.608,Test,2024.2.4,None,2024-11-28 13h21.42.424664 +0100,
41,150,30,60,None,56,56,0,True,,,,right,1.0171647079987451,None,,,,,,,,,,,,,0,56,56,56,632.5002366249973,,,,,,,,,,,,,,,,,,,,,,,,,,,,,,,,,,,,,,,,,,,,,,,,,,,,,,,,,,,,,,,,,,,,,,,,,632.4938241250056,632.5002366249973,633.4882582919963,634.4831698329945,634.4831698329945,634.4831698329945,635.5033514999959,right,1.0171647079987451,None,,,,,,,,,,,910848,001,2024-11-28_13h21.34.608,Test,2024.2.4,None,2024-11-28 13h21.42.424664 +0100,
59,150,120,3,None,57,57,0,True,,,,right,1.1121892919763923,None,,,,,,,,,,,,,0,57,57,57,635.5188899170025,,,,,,,,,,,,,,,,,,,,,,,,,,,,,,,,,,,,,,,,,,,,,,,,,,,,,,,,,,,,,,,,,,,,,,,,,635.5123951249989,635.5188899170025,636.5164051250031,637.4998572919867,637.4998572919867,637.4998572919867,638.6182778330112,right,1.1121892919763923,None,,,,,,,,,,,910848,001,2024-11-28_13h21.34.608,Test,2024.2.4,None,2024-11-28 13h21.42.424664 +0100,
34,150,180,10,None,58,58,0,False,,,,right,1.0501241250021849,None,,,,,,,,,,,,,0,58,58,58,638.6331031669979,,,,,,,,,,,,,,,,,,,,,,,,,,,,,,,,,,,,,,,,,,,,,,,,,,,,,,,,,,,,,,,,,,,,,,,,,638.6259920419834,638.6331031669979,639.6215338330076,640.6164828749897,640.6164828749897,640.6164828749897,641.6689882499923,right,1.0501241250021849,None,,,,,,,,,,,910848,001,2024-11-28_13h21.34.608,Test,2024.2.4,None,2024-11-28 13h21.42.424664 +0100,
61,150,150,31,None,59,59,0,True,,,,left,1.1756856669962872,None,,,,,,,,,,,,,0,59,59,59,641.6840196249832,,,,,,,,,,,,,,,,,,,,,,,,,,,,,,,,,,,,,,,,,,,,,,,,,,,,,,,,,,,,,,,,,,,,,,,,,641.6775494999893,641.6840196249832,642.6721991249942,643.6663672919967,643.6663672919967,643.6663672919967,644.8517391250061,left,1.1756856669962872,None,,,,,,,,,,,910848,001,2024-11-28_13h21.34.608,Test,2024.2.4,None,2024-11-28 13h21.42.424664 +0100,
17,150,90,32,None,60,60,0,False,,,,left,1.3864031670091208,None,,,,,,,,,,,,,0,60,60,60,644.8676531249948,,,,,,,,,,,,,,,,,,,,,,,,,,,,,,,,,,,,,,,,,,,,,,,,,,,,,,,,,,,,,,,,,,,,,,,,,644.861097416986,644.8676531249948,645.8554900829913,646.8498695419985,646.8498695419985,646.8498695419985,648.2409544170077,left,1.3864031670091208,None,,,,,,,,,,,910848,001,2024-11-28_13h21.34.608,Test,2024.2.4,None,2024-11-28 13h21.42.424664 +0100,
8,150,30,28,None,61,61,0,False,,,,right,1.0907780000125058,None,,,,,,,,,,,,,0,61,61,61,648.2554683749913,,,,,,,,,,,,,,,,,,,,,,,,,,,,,,,,,,,,,,,,,,,,,,,,,,,,,,,,,,,,,,,,,,,,,,,,,648.2485940420011,648.2554683749913,649.2497967499949,650.2399732079939,650.2399732079939,650.2399732079939,651.335053207993,right,1.0907780000125058,None,,,,,,,,,,,910848,001,2024-11-28_13h21.34.608,Test,2024.2.4,None,2024-11-28 13h21.42.424664 +0100,
45,150,30,48,None,62,62,0,True,,,,right,0.8065085000125691,None,,,,,,,,,,,,,0,62,62,62,651.3497888330021,,,,,,,,,,,,,,,,,,,,,,,,,,,,,,,,,,,,,,,,,,,,,,,,,,,,,,,,,,,,,,,,,,,,,,,,,651.3435232079937,651.3497888330021,652.337944333005,653.3332788329863,653.3332788329863,653.3332788329863,654.15051675,right,0.8065085000125691,None,,,,,,,,,,,910848,001,2024-11-28_13h21.34.608,Test,2024.2.4,None,2024-11-28 13h21.42.424664 +0100,
9,150,30,62,None,63,63,0,False,,,,right,2.8022442500223406,None,,,,,,,,,,,,,0,63,63,63,654.1676374579838,,,,,,,,,,,,,,,,,,,,,,,,,,,,,,,,,,,,,,,,,,,,,,,,,,,,,,,,,,,,,,,,,,,,,,,,,654.1628985829884,654.1676374579838,655.1662753749988,656.1424466249882,656.1424466249882,656.1424466249882,658.9524022080004,right,2.8022442500223406,None,,,,,,,,,,,910848,001,2024-11-28_13h21.34.608,Test,2024.2.4,None,2024-11-28 13h21.42.424664 +0100,
65,150,150,16,None,64,64,0,True,,,,right,1.190604000003077,None,,,,,,,,,,,,,0,64,64,64,658.9676613330084,,,,,,,,,,,,,,,,,,,,,,,,,,,,,,,,,,,,,,,,,,,,,,,,,,,,,,,,,,,,,,,,,,,,,,,,,658.9616805420083,658.9676613330084,659.9663449169893,660.9499067919969,660.9499067919969,660.9499067919969,662.1522364999983,right,1.190604000003077,None,,,,,,,,,,,910848,001,2024-11-28_13h21.34.608,Test,2024.2.4,None,2024-11-28 13h21.42.424664 +0100,
66,150,180,54,None,65,65,0,True,,,,right,1.8834321670001373,None,,,,,,,,,,,,,0,65,65,65,662.1677392919955,,,,,,,,,,,,,,,,,,,,,,,,,,,,,,,,,,,,,,,,,,,,,,,,,,,,,,,,,,,,,,,,,,,,,,,,,662.1612107499968,662.1677392919955,663.1662023329991,664.1498530000099,664.1498530000099,664.1498530000099,666.0363074580091,right,1.8834321670001373,None,,,,,,,,,,,910848,001,2024-11-28_13h21.34.608,Test,2024.2.4,None,2024-11-28 13h21.42.424664 +0100,
62,150,150,9,None,66,66,0,True,,,,right,1.5169489169784356,None,,,,,,,,,,,,,0,66,66,66,666.0508184579958,,,,,,,,,,,,,,,,,,,,,,,,,,,,,,,,,,,,,,,,,,,,,,,,,,,,,,,,,,,,,,,,,,,,,,,,,666.0449227920035,666.0508184579958,667.0499004579906,668.0330963750021,668.0330963750021,668.0330963750021,669.5525395419972,right,1.5169489169784356,None,,,,,,,,,,,910848,001,2024-11-28_13h21.34.608,Test,2024.2.4,None,2024-11-28 13h21.42.424664 +0100,
56,150,120,70,None,67,67,0,True,,,,left,0.9527888750017155,None,,,,,,,,,,,,,0,67,67,67,669.5669405419903,,,,,,,,,,,,,,,,,,,,,,,,,,,,,,,,,,,,,,,,,,,,,,,,,,,,,,,,,,,,,,,,,,,,,,,,,669.5604348329944,669.5669405419903,670.5549332079827,671.549656416988,671.549656416988,671.549656416988,672.5079637079907,left,0.9527888750017155,None,,,,,,,,,,,910848,001,2024-11-28_13h21.34.608,Test,2024.2.4,None,2024-11-28 13h21.42.424664 +0100,
47,150,60,42,None,68,68,0,True,,,,left,1.1388085840153508,None,,,,,,,,,,,,,0,68,68,68,672.5215134169848,,,,,,,,,,,,,,,,,,,,,,,,,,,,,,,,,,,,,,,,,,,,,,,,,,,,,,,,,,,,,,,,,,,,,,,,,672.5156656249892,672.5215134169848,673.5165644999943,674.5074872080004,674.5074872080004,674.5074872080004,675.6516940000001,left,1.1388085840153508,None,,,,,,,,,,,910848,001,2024-11-28_13h21.34.608,Test,2024.2.4,None,2024-11-28 13h21.42.424664 +0100,
10,150,30,57,None,69,69,0,False,,,,left,1.510564708005404,None,,,,,,,,,,,,,0,69,69,69,675.6661697079835,,,,,,,,,,,,,,,,,,,,,,,,,,,,,,,,,,,,,,,,,,,,,,,,,,,,,,,,,,,,,,,,,,,,,,,,,675.6592544580053,675.6661697079835,676.6549114579975,677.6497956250096,677.6497956250096,677.6497956250096,679.1684775830072,left,1.510564708005404,None,,,,,,,,,,,910848,001,2024-11-28_13h21.34.608,Test,2024.2.4,None,2024-11-28 13h21.42.424664 +0100,
,,,,,,,,,,,,,,,,,,,,,,,,,,,,,,,,,,,,,,,,,,,,,,,,,,,,,,,,,,,,,,,,,,,,,,,,,,,,,,,,,,,,,,,,,,,,,,,,,,,,,,,,,,,,,,,,,,,,,679.1687868750014,679.177914208005,679.177914208005,681.6685292919865,space,2.4884303330036346,None,910848,001,2024-11-28_13h21.34.608,Test,2024.2.4,None,2024-11-28 13h21.42.424664 +0100,
