Trial_Number,Exposure_Duration,Displacement_Angle,Stimulus,Response,thisN,thisTrialN,thisRepN,Is_Distractor,key_resp_3.keys,key_resp_3.rt,key_resp_3.duration,key_resp_7.keys,key_resp_7.rt,key_resp_7.duration,trials.thisRepN,trials.thisTrialN,trials.thisN,trials.thisIndex,trials_2.thisRepN,trials_2.thisTrialN,trials_2.thisN,trials_2.thisIndex,trials_3.thisRepN,trials_3.thisTrialN,trials_3.thisN,trials_3.thisIndex,trials_4.thisRepN,trials_4.thisTrialN,trials_4.thisN,trials_4.thisIndex,thisRow.t,notes,Intro_to_experiment.started,important1_2.started,key_resp_8.started,Intro_to_experiment.stopped,key_resp_8.keys,key_resp_8.rt,key_resp_8.duration,important.started,important1.started,key_resp_4.started,important.stopped,key_resp_4.keys,key_resp_4.rt,key_resp_4.duration,training_instruction.started,key_resp_9.started,important1_3.started,training_instruction.stopped,key_resp_9.keys,key_resp_9.rt,key_resp_9.duration,training_trial.started,cross.started,image.started,aperture.started,cross.stopped,image.stopped,aperture.stopped,training_trial.stopped,New_instruction.started,text.started,key_resp_2.started,New_instruction.stopped,key_resp_2.keys,key_resp_2.rt,key_resp_2.duration,test_trial.started,cross2.started,cross2.stopped,image_2.started,key_resp_3.started,aperture_2.started,test_trial.stopped,trials_2.key_resp_3.keys,trials_2.key_resp_3.rt,trials_2.key_resp_3.duration,image_2.stopped,aperture_2.stopped,text_3.started,start_blok_2.started,key_resp_5.started,text_4.started,start_blok_2.stopped,key_resp_5.keys,key_resp_5.rt,key_resp_5.duration,training_2.started,cross_2.started,image_3.started,aperture_3.started,cross_2.stopped,image_3.stopped,aperture_3.stopped,training_2.stopped,nyeste_instruks.started,text_5.started,key_resp_6.started,nyeste_instruks.stopped,key_resp_6.keys,key_resp_6.rt,key_resp_6.duration,test_2.started,cross2_2.started,cross2_2.stopped,image_4.started,key_resp_7.started,aperture_4.started,test_2.stopped,trials_4.key_resp_7.keys,trials_4.key_resp_7.rt,trials_4.key_resp_7.duration,image_4.stopped,aperture_4.stopped,text_6.started,Instruction.started,Instruktion.started,key_resp.started,Instruction.stopped,key_resp.keys,key_resp.rt,key_resp.duration,participant,session,date,expName,psychopyVersion,frameRate,expStart,
,,,,,,,,,,,,,,,,,,,,,,,,,,,,,,,,,0.005928124999627471,0.012416374986059964,0.012416374986059964,133.19429645797936,space,133.17464154196205,None,,,,,,,,,,,,,,,,,,,,,,,,,,,,,,,,,,,,,,,,,,,,,,,,,,,,,,,,,,,,,,,,,,,,,,,,,,,,,,,,,,,,,966749,001,2024-12-05_12h55.11.345,Test,2024.2.4,None,2024-12-05 12h55.22.535273 +0100,
,,,,,,,,,,,,,,,,,,,,,,,,,,,,,,,,,,,,,,,,133.19468824996147,133.22908358299173,133.22908358299173,139.5528100419906,space,6.313397708989214,None,,,,,,,,,,,,,,,,,,,,,,,,,,,,,,,,,,,,,,,,,,,,,,,,,,,,,,,,,,,,,,,,,,,,,,,,,,,,,,966749,001,2024-12-05_12h55.11.345,Test,2024.2.4,None,2024-12-05 12h55.22.535273 +0100,
,,,,,,,,,,,,,,,,,,,,,,,,,,,,,,,,,,,,,,,,,,,,,,,139.55289754195837,139.56339354196098,139.56339354196098,142.02582999999868,space,2.455946457979735,None,,,,,,,,,,,,,,,,,,,,,,,,,,,,,,,,,,,,,,,,,,,,,,,,,,,,,,,,,,,,,,,,,,,,,,,966749,001,2024-12-05_12h55.11.345,Test,2024.2.4,None,2024-12-05 12h55.22.535273 +0100,
27,150,150,60,None,0,0,0,,,,,,,,0,0,0,26,,,,,,,,,,,,,142.1177198329824,,,,,,,,,,,,,,,,,,,,,,,142.09996279195184,142.1177198329824,142.22730483295163,142.22730483295163,142.30478637496708,143.9348445829819,143.9348445829819,143.91913774999557,,,,,,,,,,,,,,,,,,,,,,,,,,,,,,,,,,,,,,,,,,,,,,,,,,,,,,,,,,,,,,,966749,001,2024-12-05_12h55.11.345,Test,2024.2.4,None,2024-12-05 12h55.22.535273 +0100,
14,150,60,47,None,1,1,0,,,,,,,,0,1,1,13,,,,,,,,,,,,,143.9348445829819,,,,,,,,,,,,,,,,,,,,,,,143.92928458296228,143.9348445829819,144.1246882499545,144.1246882499545,144.1246882499545,145.8239140829537,145.8239140829537,145.80827320797835,,,,,,,,,,,,,,,,,,,,,,,,,,,,,,,,,,,,,,,,,,,,,,,,,,,,,,,,,,,,,,,966749,001,2024-12-05_12h55.11.345,Test,2024.2.4,None,2024-12-05 12h55.22.535273 +0100,
24,150,120,45,None,2,2,0,,,,,,,,0,2,2,23,,,,,,,,,,,,,145.8239140829537,,,,,,,,,,,,,,,,,,,,,,,145.8186389579787,145.83461466699373,146.02479316695826,146.02479316695826,146.02479316695826,147.734226999979,147.734226999979,147.71900374995312,,,,,,,,,,,,,,,,,,,,,,,,,,,,,,,,,,,,,,,,,,,,,,,,,,,,,,,,,,,,,,,966749,001,2024-12-05_12h55.11.345,Test,2024.2.4,None,2024-12-05 12h55.22.535273 +0100,
29,150,150,18,None,3,3,0,,,,,,,,0,3,3,28,,,,,,,,,,,,,147.734226999979,,,,,,,,,,,,,,,,,,,,,,,147.72933649999322,147.734226999979,147.92526558297686,147.92526558297686,147.92526558297686,149.62236670800485,149.62236670800485,149.60839041695,,,,,,,,,,,,,,,,,,,,,,,,,,,,,,,,,,,,,,,,,,,,,,,,,,,,,,,,,,,,,,,966749,001,2024-12-05_12h55.11.345,Test,2024.2.4,None,2024-12-05 12h55.22.535273 +0100,
3,150,0,13,None,4,4,0,,,,,,,,0,4,4,2,,,,,,,,,,,,,149.62236670800485,,,,,,,,,,,,,,,,,,,,,,,149.6174441250041,149.6347342079971,149.8244538329891,149.8244538329891,149.8244538329891,151.52266199997393,151.52266199997393,151.5081904999679,,,,,,,,,,,,,,,,,,,,,,,,,,,,,,,,,,,,,,,,,,,,,,,,,,,,,,,,,,,,,,,966749,001,2024-12-05_12h55.11.345,Test,2024.2.4,None,2024-12-05 12h55.22.535273 +0100,
20,150,90,27,None,5,5,0,,,,,,,,0,5,5,19,,,,,,,,,,,,,151.52266199997393,,,,,,,,,,,,,,,,,,,,,,,151.51804245798849,151.53461208299268,151.7250292499666,151.7250292499666,151.7250292499666,153.4225359580014,153.4225359580014,153.40863295795862,,,,,,,,,,,,,,,,,,,,,,,,,,,,,,,,,,,,,,,,,,,,,,,,,,,,,,,,,,,,,,,966749,001,2024-12-05_12h55.11.345,Test,2024.2.4,None,2024-12-05 12h55.22.535273 +0100,
8,150,30,11,None,6,6,0,,,,,,,,0,6,6,7,,,,,,,,,,,,,153.4225359580014,,,,,,,,,,,,,,,,,,,,,,,153.41764025000157,153.43470658297883,153.62469970795792,153.62469970795792,153.62469970795792,155.33376566699008,155.33376566699008,155.3190210419707,,,,,,,,,,,,,,,,,,,,,,,,,,,,,,,,,,,,,,,,,,,,,,,,,,,,,,,,,,,,,,,966749,001,2024-12-05_12h55.11.345,Test,2024.2.4,None,2024-12-05 12h55.22.535273 +0100,
19,150,90,48,None,7,7,0,,,,,,,,0,7,7,18,,,,,,,,,,,,,155.33376566699008,,,,,,,,,,,,,,,,,,,,,,,155.3283504169667,155.33376566699008,155.52505408297293,155.52505408297293,155.52505408297293,157.23410287499428,157.23410287499428,157.21903883299092,,,,,,,,,,,,,,,,,,,,,,,,,,,,,,,,,,,,,,,,,,,,,,,,,,,,,,,,,,,,,,,966749,001,2024-12-05_12h55.11.345,Test,2024.2.4,None,2024-12-05 12h55.22.535273 +0100,
17,150,90,41,None,8,8,0,,,,,,,,0,8,8,16,,,,,,,,,,,,,157.23410287499428,,,,,,,,,,,,,,,,,,,,,,,157.22874854196562,157.23410287499428,157.42505991697544,157.42505991697544,157.42505991697544,159.13571999996202,159.13571999996202,159.1191283329972,,,,,,,,,,,,,,,,,,,,,,,,,,,,,,,,,,,,,,,,,,,,,,,,,,,,,,,,,,,,,,,966749,001,2024-12-05_12h55.11.345,Test,2024.2.4,None,2024-12-05 12h55.22.535273 +0100,
22,150,120,22,None,9,9,0,,,,,,,,0,9,9,21,,,,,,,,,,,,,159.13571999996202,,,,,,,,,,,,,,,,,,,,,,,159.13027833297383,159.13571999996202,159.32582466700114,159.32582466700114,159.3346567080007,161.03521391696995,161.03521391696995,161.01920629199594,,,,,,,,,,,,,,,,,,,,,,,,,,,,,,,,,,,,,,,,,,,,,,,,,,,,,,,,,,,,,,,966749,001,2024-12-05_12h55.11.345,Test,2024.2.4,None,2024-12-05 12h55.22.535273 +0100,
6,150,30,43,None,10,10,0,,,,,,,,0,10,10,5,,,,,,,,,,,,,161.03521391696995,,,,,,,,,,,,,,,,,,,,,,,161.029684041976,161.03521391696995,161.22478266694816,161.22478266694816,161.22478266694816,162.9201751249493,162.9201751249493,162.90809558297042,,,,,,,,,,,,,,,,,,,,,,,,,,,,,,,,,,,,,,,,,,,,,,,,,,,,,,,,,,,,,,,966749,001,2024-12-05_12h55.11.345,Test,2024.2.4,None,2024-12-05 12h55.22.535273 +0100,
1,150,0,4,None,11,11,0,,,,,,,,0,11,11,0,,,,,,,,,,,,,162.9201751249493,,,,,,,,,,,,,,,,,,,,,,,162.91566887497902,162.93467670795508,163.12490791699383,163.12490791699383,163.12490791699383,164.8225306669483,164.8225306669483,164.80825699999696,,,,,,,,,,,,,,,,,,,,,,,,,,,,,,,,,,,,,,,,,,,,,,,,,,,,,,,,,,,,,,,966749,001,2024-12-05_12h55.11.345,Test,2024.2.4,None,2024-12-05 12h55.22.535273 +0100,
10,150,30,65,None,12,12,0,,,,,,,,0,12,12,9,,,,,,,,,,,,,164.8225306669483,,,,,,,,,,,,,,,,,,,,,,,164.81769274995895,164.83456233295146,165.02543183299713,165.02543183299713,165.02543183299713,166.73519137495896,166.73519137495896,166.7191212499747,,,,,,,,,,,,,,,,,,,,,,,,,,,,,,,,,,,,,,,,,,,,,,,,,,,,,,,,,,,,,,,966749,001,2024-12-05_12h55.11.345,Test,2024.2.4,None,2024-12-05 12h55.22.535273 +0100,
5,150,0,17,None,13,13,0,,,,,,,,0,13,13,4,,,,,,,,,,,,,166.73519137495896,,,,,,,,,,,,,,,,,,,,,,,166.72953504195902,166.73519137495896,166.92438287497498,166.92438287497498,166.92438287497498,168.62180845800322,168.62180845800322,168.60839270800352,,,,,,,,,,,,,,,,,,,,,,,,,,,,,,,,,,,,,,,,,,,,,,,,,,,,,,,,,,,,,,,966749,001,2024-12-05_12h55.11.345,Test,2024.2.4,None,2024-12-05 12h55.22.535273 +0100,
23,150,120,36,None,14,14,0,,,,,,,,0,14,14,22,,,,,,,,,,,,,168.62180845800322,,,,,,,,,,,,,,,,,,,,,,,168.61702324997168,168.6347494169604,168.82489437499316,168.82489437499316,168.82489437499316,170.53467799996724,170.53467799996724,170.51900699996622,,,,,,,,,,,,,,,,,,,,,,,,,,,,,,,,,,,,,,,,,,,,,,,,,,,,,,,,,,,,,,,966749,001,2024-12-05_12h55.11.345,Test,2024.2.4,None,2024-12-05 12h55.22.535273 +0100,
35,150,180,24,None,15,15,0,,,,,,,,0,15,15,34,,,,,,,,,,,,,170.53467799996724,,,,,,,,,,,,,,,,,,,,,,,170.52934704197105,170.53467799996724,170.72531591699226,170.72531591699226,170.72531591699226,172.42144312500022,172.42144312500022,172.4089272079873,,,,,,,,,,,,,,,,,,,,,,,,,,,,,,,,,,,,,,,,,,,,,,,,,,,,,,,,,,,,,,,966749,001,2024-12-05_12h55.11.345,Test,2024.2.4,None,2024-12-05 12h55.22.535273 +0100,
34,150,180,61,None,16,16,0,,,,,,,,0,16,16,33,,,,,,,,,,,,,172.42144312500022,,,,,,,,,,,,,,,,,,,,,,,172.41685062495526,172.43466499994975,172.62469324999256,172.62469324999256,172.62469324999256,174.3210476669483,174.3210476669483,174.3084150829818,,,,,,,,,,,,,,,,,,,,,,,,,,,,,,,,,,,,,,,,,,,,,,,,,,,,,,,,,,,,,,,966749,001,2024-12-05_12h55.11.345,Test,2024.2.4,None,2024-12-05 12h55.22.535273 +0100,
21,150,120,29,None,17,17,0,,,,,,,,0,17,17,20,,,,,,,,,,,,,174.3210476669483,,,,,,,,,,,,,,,,,,,,,,,174.316716041998,174.3348424579599,174.52491279196693,174.52491279196693,174.52491279196693,176.22380587499356,176.22380587499356,176.2085098749958,,,,,,,,,,,,,,,,,,,,,,,,,,,,,,,,,,,,,,,,,,,,,,,,,,,,,,,,,,,,,,,966749,001,2024-12-05_12h55.11.345,Test,2024.2.4,None,2024-12-05 12h55.22.535273 +0100,
15,150,60,53,None,18,18,0,,,,,,,,0,18,18,14,,,,,,,,,,,,,176.22380587499356,,,,,,,,,,,,,,,,,,,,,,,176.21877333294833,176.2346506670001,176.42529820796335,176.42529820796335,176.42529820796335,178.12254199996823,178.12254199996823,178.10888895799872,,,,,,,,,,,,,,,,,,,,,,,,,,,,,,,,,,,,,,,,,,,,,,,,,,,,,,,,,,,,,,,966749,001,2024-12-05_12h55.11.345,Test,2024.2.4,None,2024-12-05 12h55.22.535273 +0100,
9,150,30,15,None,19,19,0,,,,,,,,0,19,19,8,,,,,,,,,,,,,178.12254199996823,,,,,,,,,,,,,,,,,,,,,,,178.11774245795095,178.13448499998776,178.32446366699878,178.32446366699878,178.32446366699878,180.02104454196524,180.02104454196524,180.00851233297726,,,,,,,,,,,,,,,,,,,,,,,,,,,,,,,,,,,,,,,,,,,,,,,,,,,,,,,,,,,,,,,966749,001,2024-12-05_12h55.11.345,Test,2024.2.4,None,2024-12-05 12h55.22.535273 +0100,
13,150,60,46,None,20,20,0,,,,,,,,0,20,20,12,,,,,,,,,,,,,180.02104454196524,,,,,,,,,,,,,,,,,,,,,,,180.01668066700222,180.03480449999915,180.22476795798866,180.22476795798866,180.22476795798866,181.92103620799026,181.92103620799026,181.9085269169882,,,,,,,,,,,,,,,,,,,,,,,,,,,,,,,,,,,,,,,,,,,,,,,,,,,,,,,,,,,,,,,966749,001,2024-12-05_12h55.11.345,Test,2024.2.4,None,2024-12-05 12h55.22.535273 +0100,
28,150,150,7,None,21,21,0,,,,,,,,0,21,21,27,,,,,,,,,,,,,181.92103620799026,,,,,,,,,,,,,,,,,,,,,,,181.9169220419717,181.934664624976,182.12465408298885,182.12465408298885,182.12465408298885,183.83440499997232,183.83440499997232,183.81912591698347,,,,,,,,,,,,,,,,,,,,,,,,,,,,,,,,,,,,,,,,,,,,,,,,,,,,,,,,,,,,,,,966749,001,2024-12-05_12h55.11.345,Test,2024.2.4,None,2024-12-05 12h55.22.535273 +0100,
2,150,0,38,None,22,22,0,,,,,,,,0,22,22,1,,,,,,,,,,,,,183.83440499997232,,,,,,,,,,,,,,,,,,,,,,,183.82908166700508,183.83440499997232,184.0252300829743,184.0252300829743,184.0252300829743,185.73295066697756,185.73295066697756,185.7190152919502,,,,,,,,,,,,,,,,,,,,,,,,,,,,,,,,,,,,,,,,,,,,,,,,,,,,,,,,,,,,,,,966749,001,2024-12-05_12h55.11.345,Test,2024.2.4,None,2024-12-05 12h55.22.535273 +0100,
4,150,0,58,None,23,23,0,,,,,,,,0,23,23,3,,,,,,,,,,,,,185.73295066697756,,,,,,,,,,,,,,,,,,,,,,,185.72751674999017,185.73295066697756,185.9252300829976,185.9252300829976,185.9252300829976,187.63349149998976,187.63349149998976,187.619227416988,,,,,,,,,,,,,,,,,,,,,,,,,,,,,,,,,,,,,,,,,,,,,,,,,,,,,,,,,,,,,,,966749,001,2024-12-05_12h55.11.345,Test,2024.2.4,None,2024-12-05 12h55.22.535273 +0100,
33,150,180,23,None,24,24,0,,,,,,,,0,24,24,32,,,,,,,,,,,,,187.63349149998976,,,,,,,,,,,,,,,,,,,,,,,187.62801720795687,187.63349149998976,187.82494016696,187.82494016696,187.82494016696,189.53344624995952,189.53344624995952,189.51897512498545,,,,,,,,,,,,,,,,,,,,,,,,,,,,,,,,,,,,,,,,,,,,,,,,,,,,,,,,,,,,,,,966749,001,2024-12-05_12h55.11.345,Test,2024.2.4,None,2024-12-05 12h55.22.535273 +0100,
26,150,150,25,None,25,25,0,,,,,,,,0,25,25,25,,,,,,,,,,,,,189.53344624995952,,,,,,,,,,,,,,,,,,,,,,,189.52725124999415,189.53344624995952,189.72532158298418,189.72532158298418,189.72532158298418,191.42124941694783,191.42124941694783,191.40855587495025,,,,,,,,,,,,,,,,,,,,,,,,,,,,,,,,,,,,,,,,,,,,,,,,,,,,,,,,,,,,,,,966749,001,2024-12-05_12h55.11.345,Test,2024.2.4,None,2024-12-05 12h55.22.535273 +0100,
12,150,60,33,None,26,26,0,,,,,,,,0,26,26,11,,,,,,,,,,,,,191.42124941694783,,,,,,,,,,,,,,,,,,,,,,,191.41697362496052,191.43463308300124,191.62533608300146,191.62533608300146,191.62533608300146,193.3335374579765,193.3335374579765,193.31914183299523,,,,,,,,,,,,,,,,,,,,,,,,,,,,,,,,,,,,,,,,,,,,,,,,,,,,,,,,,,,,,,,966749,001,2024-12-05_12h55.11.345,Test,2024.2.4,None,2024-12-05 12h55.22.535273 +0100,
31,150,180,16,None,27,27,0,,,,,,,,0,27,27,30,,,,,,,,,,,,,193.3335374579765,,,,,,,,,,,,,,,,,,,,,,,193.3280207499629,193.3335374579765,193.5244430419989,193.5244430419989,193.5244430419989,195.2212040000013,195.2212040000013,195.2082308329991,,,,,,,,,,,,,,,,,,,,,,,,,,,,,,,,,,,,,,,,,,,,,,,,,,,,,,,,,,,,,,,966749,001,2024-12-05_12h55.11.345,Test,2024.2.4,None,2024-12-05 12h55.22.535273 +0100,
25,150,120,39,None,28,28,0,,,,,,,,0,28,28,24,,,,,,,,,,,,,195.2212040000013,,,,,,,,,,,,,,,,,,,,,,,195.21715229196707,195.2347951249685,195.42468041699613,195.42468041699613,195.42468041699613,197.1252164579928,197.1252164579928,197.1094912919798,,,,,,,,,,,,,,,,,,,,,,,,,,,,,,,,,,,,,,,,,,,,,,,,,,,,,,,,,,,,,,,966749,001,2024-12-05_12h55.11.345,Test,2024.2.4,None,2024-12-05 12h55.22.535273 +0100,
30,150,150,37,None,29,29,0,,,,,,,,0,29,29,29,,,,,,,,,,,,,197.1252164579928,,,,,,,,,,,,,,,,,,,,,,,197.11944158299593,197.1252164579928,197.3252871669829,197.3252871669829,197.3252871669829,199.02135016699322,199.02135016699322,199.0083566249814,,,,,,,,,,,,,,,,,,,,,,,,,,,,,,,,,,,,,,,,,,,,,,,,,,,,,,,,,,,,,,,966749,001,2024-12-05_12h55.11.345,Test,2024.2.4,None,2024-12-05 12h55.22.535273 +0100,
16,150,90,14,None,30,30,0,,,,,,,,0,30,30,15,,,,,,,,,,,,,199.02135016699322,,,,,,,,,,,,,,,,,,,,,,,199.01660837495,199.03476833296008,199.22449766698992,199.22449766698992,199.22449766698992,200.9209698329796,200.9209698329796,200.9082432919531,,,,,,,,,,,,,,,,,,,,,,,,,,,,,,,,,,,,,,,,,,,,,,,,,,,,,,,,,,,,,,,966749,001,2024-12-05_12h55.11.345,Test,2024.2.4,None,2024-12-05 12h55.22.535273 +0100,
7,150,30,44,None,31,31,0,,,,,,,,0,31,31,6,,,,,,,,,,,,,200.9209698329796,,,,,,,,,,,,,,,,,,,,,,,200.91691191698192,200.93483912496595,201.1251250829664,201.1251250829664,201.1251250829664,202.821155832964,202.821155832964,202.80852449999657,,,,,,,,,,,,,,,,,,,,,,,,,,,,,,,,,,,,,,,,,,,,,,,,,,,,,,,,,,,,,,,966749,001,2024-12-05_12h55.11.345,Test,2024.2.4,None,2024-12-05 12h55.22.535273 +0100,
18,150,90,5,None,32,32,0,,,,,,,,0,32,32,17,,,,,,,,,,,,,202.821155832964,,,,,,,,,,,,,,,,,,,,,,,202.81669983296888,202.8346748329932,203.02476833295077,203.02476833295077,203.02476833295077,204.72176716697868,204.72176716697868,204.708053749986,,,,,,,,,,,,,,,,,,,,,,,,,,,,,,,,,,,,,,,,,,,,,,,,,,,,,,,,,,,,,,,966749,001,2024-12-05_12h55.11.345,Test,2024.2.4,None,2024-12-05 12h55.22.535273 +0100,
32,150,180,35,None,33,33,0,,,,,,,,0,33,33,31,,,,,,,,,,,,,204.72176716697868,,,,,,,,,,,,,,,,,,,,,,,204.7168469169992,204.7345899999491,204.92457770794863,204.92457770794863,204.92457770794863,206.63603320799302,206.63603320799302,206.61793758295244,,,,,,,,,,,,,,,,,,,,,,,,,,,,,,,,,,,,,,,,,,,,,,,,,,,,,,,,,,,,,,,966749,001,2024-12-05_12h55.11.345,Test,2024.2.4,None,2024-12-05 12h55.22.535273 +0100,
11,150,60,34,None,34,34,0,,,,,,,,0,34,34,10,,,,,,,,,,,,,206.63603320799302,,,,,,,,,,,,,,,,,,,,,,,206.6325177079998,206.63603320799302,206.8276077079936,206.8276077079936,206.83325145795243,208.52886408299673,208.52886408299673,208.5188906249823,,,,,,,,,,,,,,,,,,,,,,,,,,,,,,,,,,,,,,,,,,,,,,,,,,,,,,,,,,,,,,,966749,001,2024-12-05_12h55.11.345,Test,2024.2.4,None,2024-12-05 12h55.22.535273 +0100,
,,,,,,,,,,,,,,,,,,,,,,,,,,,,,,,,,,,,,,,,,,,,,,,,,,,,,,,,,,,,,,208.51915899995947,208.52886408299673,208.52886408299673,216.89397412497783,space,8.357098417007364,None,,,,,,,,,,,,,,,,,,,,,,,,,,,,,,,,,,,,,,,,,,,,,,,,,,,,,,,,966749,001,2024-12-05_12h55.11.345,Test,2024.2.4,None,2024-12-05 12h55.22.535273 +0100,
6,150,30,43,None,0,0,0,False,right,2.3942305840319023,None,,,,,,,,0,0,0,0,,,,,,,,,216.9302957499749,,,,,,,,,,,,,,,,,,,,,,,,,,,,,,,,,,,,,,216.91948483296437,216.9302957499749,217.92354579200037,218.89123508299235,218.89123508299235,218.89123508299235,221.28853033296764,right,2.3942305840319023,None,,,,,,,,,,,,,,,,,,,,,,,,,,,,,,,,,,,,,,,,,,,,,,966749,001,2024-12-05_12h55.11.345,Test,2024.2.4,None,2024-12-05 12h55.22.535273 +0100,
70,150,180,67,None,1,1,0,True,left,3.116636458027642,None,,,,,,,,0,1,1,1,,,,,,,,,221.30984333297238,,,,,,,,,,,,,,,,,,,,,,,,,,,,,,,,,,,,,,221.30299112497596,221.30984333297238,222.30637949996162,223.28499962500064,223.28499962500064,223.28499962500064,226.40374516695738,left,3.116636458027642,None,226.2735838329536,226.2735838329536,226.28750033298275,,,,,,,,,,,,,,,,,,,,,,,,,,,,,,,,,,,,,,,,,,,966749,001,2024-12-05_12h55.11.345,Test,2024.2.4,None,2024-12-05 12h55.22.535273 +0100,
53,150,90,8,None,2,2,0,True,left,1.6680945000262,None,,,,,,,,0,2,2,2,,,,,,,,,226.4176454579574,,,,,,,,,,,,,,,,,,,,,,,,,,,,,,,,,,,,,,226.4110128749744,226.4176454579574,227.40697666699998,228.40136737498688,228.40136737498688,228.40136737498688,230.07667195796967,left,1.6680945000262,None,,,,,,,,,,,,,,,,,,,,,,,,,,,,,,,,,,,,,,,,,,,,,,966749,001,2024-12-05_12h55.11.345,Test,2024.2.4,None,2024-12-05 12h55.22.535273 +0100,
17,150,90,41,None,3,3,0,False,right,0.8596553330426104,None,,,,,,,,0,3,3,3,,,,,,,,,230.09442587499507,,,,,,,,,,,,,,,,,,,,,,,,,,,,,,,,,,,,,,230.0875637079589,230.09442587499507,231.09022933297092,232.07533329195576,232.07533329195576,232.07533329195576,232.93768637499306,right,0.8596553330426104,None,,,,,,,,,,,,,,,,,,,,,,,,,,,,,,,,,,,,,,,,,,,,,,966749,001,2024-12-05_12h55.11.345,Test,2024.2.4,None,2024-12-05 12h55.22.535273 +0100,
39,150,0,49,None,4,4,0,True,left,0.7755973330349661,None,,,,,,,,0,4,4,4,,,,,,,,,232.95389449998038,,,,,,,,,,,,,,,,,,,,,,,,,,,,,,,,,,,,,,232.94771270797355,232.95389449998038,233.9514018750051,234.93471791699994,234.93471791699994,234.93471791699994,235.72059733298374,left,0.7755973330349661,None,,,,,,,,,,,,,,,,,,,,,,,,,,,,,,,,,,,,,,,,,,,,,,966749,001,2024-12-05_12h55.11.345,Test,2024.2.4,None,2024-12-05 12h55.22.535273 +0100,
12,150,60,33,None,5,5,0,False,left,0.9055568340118043,None,,,,,,,,0,5,5,5,,,,,,,,,235.73594441695604,,,,,,,,,,,,,,,,,,,,,,,,,,,,,,,,,,,,,,235.72911262494745,235.73594441695604,236.73475616698852,237.7181814579526,237.7181814579526,237.7181814579526,238.62644033296965,left,0.9055568340118043,None,,,,,,,,,,,,,,,,,,,,,,,,,,,,,,,,,,,,,,,,,,,,,,966749,001,2024-12-05_12h55.11.345,Test,2024.2.4,None,2024-12-05 12h55.22.535273 +0100,
45,150,30,50,None,6,6,0,True,right,0.8309008750366047,None,,,,,,,,0,6,6,6,,,,,,,,,238.642519624962,,,,,,,,,,,,,,,,,,,,,,,,,,,,,,,,,,,,,,238.63636429200415,238.642519624962,239.63953758298885,240.6253388329642,240.6253388329642,240.6253388329642,241.46013624995248,right,0.8309008750366047,None,,,,,,,,,,,,,,,,,,,,,,,,,,,,,,,,,,,,,,,,,,,,,,966749,001,2024-12-05_12h55.11.345,Test,2024.2.4,None,2024-12-05 12h55.22.535273 +0100,
60,150,120,28,None,7,7,0,True,left,0.9613070000195876,None,,,,,,,,0,7,7,7,,,,,,,,,241.47609504195862,,,,,,,,,,,,,,,,,,,,,,,,,,,,,,,,,,,,,,241.4695802499773,241.47609504195862,242.47387449996313,243.45864829199854,243.45864829199854,243.45864829199854,244.42639704199973,left,0.9613070000195876,None,,,,,,,,,,,,,,,,,,,,,,,,,,,,,,,,,,,,,,,,,,,,,,966749,001,2024-12-05_12h55.11.345,Test,2024.2.4,None,2024-12-05 12h55.22.535273 +0100,
67,150,180,63,None,8,8,0,True,right,1.0098774589714594,None,,,,,,,,0,8,8,8,,,,,,,,,244.44195754197426,,,,,,,,,,,,,,,,,,,,,,,,,,,,,,,,,,,,,,244.43524054199224,244.44195754197426,245.44000775000313,246.4261701249634,246.4261701249634,246.4261701249634,247.44323933299165,right,1.0098774589714594,None,,,,,,,,,,,,,,,,,,,,,,,,,,,,,,,,,,,,,,,,,,,,,,966749,001,2024-12-05_12h55.11.345,Test,2024.2.4,None,2024-12-05 12h55.22.535273 +0100,
51,150,90,2,None,9,9,0,True,right,0.7303439579554833,None,,,,,,,,0,9,9,9,,,,,,,,,247.45891429198673,,,,,,,,,,,,,,,,,,,,,,,,,,,,,,,,,,,,,,247.45277299999725,247.45891429198673,248.45454904198414,249.44200708298013,249.44200708298013,249.44200708298013,250.1764051669743,right,0.7303439579554833,None,,,,,,,,,,,,,,,,,,,,,,,,,,,,,,,,,,,,,,,,,,,,,,966749,001,2024-12-05_12h55.11.345,Test,2024.2.4,None,2024-12-05 12h55.22.535273 +0100,
56,150,120,70,None,10,10,0,True,right,1.0602152919746004,None,,,,,,,,0,10,10,10,,,,,,,,,250.19596566696418,,,,,,,,,,,,,,,,,,,,,,,,,,,,,,,,,,,,,,250.1885104579851,250.19596566696418,251.18930749996798,252.17520924995188,252.17520924995188,252.17520924995188,253.24671683297493,right,1.0602152919746004,None,,,,,,,,,,,,,,,,,,,,,,,,,,,,,,,,,,,,,,,,,,,,,,966749,001,2024-12-05_12h55.11.345,Test,2024.2.4,None,2024-12-05 12h55.22.535273 +0100,
20,150,90,27,None,11,11,0,False,right,1.284386541985441,None,,,,,,,,0,11,11,11,,,,,,,,,253.25890620797873,,,,,,,,,,,,,,,,,,,,,,,,,,,,,,,,,,,,,,253.25405366695486,253.25890620797873,254.25693954195594,255.24185674998444,255.24185674998444,255.24185674998444,256.5368467079825,right,1.284386541985441,None,,,,,,,,,,,,,,,,,,,,,,,,,,,,,,,,,,,,,,,,,,,,,,966749,001,2024-12-05_12h55.11.345,Test,2024.2.4,None,2024-12-05 12h55.22.535273 +0100,
8,150,30,11,None,12,12,0,False,left,1.456675458990503,None,,,,,,,,0,12,12,12,,,,,,,,,256.5529249579995,,,,,,,,,,,,,,,,,,,,,,,,,,,,,,,,,,,,,,256.54623408295447,256.5529249579995,257.5513948329608,258.5347569999867,258.5347569999867,258.5347569999867,259.9943126249709,left,1.456675458990503,None,,,,,,,,,,,,,,,,,,,,,,,,,,,,,,,,,,,,,,,,,,,,,,966749,001,2024-12-05_12h55.11.345,Test,2024.2.4,None,2024-12-05 12h55.22.535273 +0100,
3,150,0,13,None,13,13,0,False,left,1.2068119159666821,None,,,,,,,,0,13,13,13,,,,,,,,,260.0099308749777,,,,,,,,,,,,,,,,,,,,,,,,,,,,,,,,,,,,,,260.0039050419582,260.0099308749777,261.0062519169878,261.99211995798396,261.99211995798396,261.99211995798396,263.20348933298374,left,1.2068119159666821,None,,,,,,,,,,,,,,,,,,,,,,,,,,,,,,,,,,,,,,,,,,,,,,966749,001,2024-12-05_12h55.11.345,Test,2024.2.4,None,2024-12-05 12h55.22.535273 +0100,
19,150,90,48,None,14,14,0,False,right,0.7023923749802634,None,,,,,,,,0,14,14,14,,,,,,,,,263.2191311669885,,,,,,,,,,,,,,,,,,,,,,,,,,,,,,,,,,,,,,263.2131226249621,263.2191311669885,264.21807370800525,265.201494332985,265.201494332985,265.201494332985,265.91023541695904,right,0.7023923749802634,None,,,,,,,,,,,,,,,,,,,,,,,,,,,,,,,,,,,,,,,,,,,,,,966749,001,2024-12-05_12h55.11.345,Test,2024.2.4,None,2024-12-05 12h55.22.535273 +0100,
62,150,150,66,None,15,15,0,True,right,2.1483967499807477,None,,,,,,,,0,15,15,15,,,,,,,,,265.92606579198036,,,,,,,,,,,,,,,,,,,,,,,,,,,,,,,,,,,,,,265.919473499991,265.92606579198036,266.92337024997687,267.90861366695026,267.90861366695026,267.90861366695026,270.0600967499777,right,2.1483967499807477,None,,,,,,,,,,,,,,,,,,,,,,,,,,,,,,,,,,,,,,,,,,,,,,966749,001,2024-12-05_12h55.11.345,Test,2024.2.4,None,2024-12-05 12h55.22.535273 +0100,
63,150,150,52,None,16,16,0,True,right,1.060622166027315,None,,,,,,,,0,16,16,16,,,,,,,,,270.0754171249573,,,,,,,,,,,,,,,,,,,,,,,,,,,,,,,,,,,,,,270.0688912500045,270.0754171249573,271.0733819169691,272.0585874579847,272.0585874579847,272.0585874579847,273.1268159169704,right,1.060622166027315,None,,,,,,,,,,,,,,,,,,,,,,,,,,,,,,,,,,,,,,,,,,,,,,966749,001,2024-12-05_12h55.11.345,Test,2024.2.4,None,2024-12-05 12h55.22.535273 +0100,
68,150,180,31,None,17,17,0,True,left,0.7764305000309832,None,,,,,,,,0,17,17,17,,,,,,,,,273.1409763749689,,,,,,,,,,,,,,,,,,,,,,,,,,,,,,,,,,,,,,273.134937041963,273.1409763749689,274.1349936669576,275.12521629198454,275.12521629198454,275.12521629198454,275.9044736249489,left,0.7764305000309832,None,,,,,,,,,,,,,,,,,,,,,,,,,,,,,,,,,,,,,,,,,,,,,,966749,001,2024-12-05_12h55.11.345,Test,2024.2.4,None,2024-12-05 12h55.22.535273 +0100,
48,150,60,30,None,18,18,0,True,left,1.438644167035818,None,,,,,,,,0,18,18,18,,,,,,,,,275.919923874957,,,,,,,,,,,,,,,,,,,,,,,,,,,,,,,,,,,,,,275.9140972919995,275.919923874957,276.91796454199357,277.90156908298377,277.90156908298377,277.90156908298377,279.3460968330037,left,1.438644167035818,None,,,,,,,,,,,,,,,,,,,,,,,,,,,,,,,,,,,,,,,,,,,,,,966749,001,2024-12-05_12h55.11.345,Test,2024.2.4,None,2024-12-05 12h55.22.535273 +0100,
55,150,90,62,None,19,19,0,True,left,1.00348362501245,None,,,,,,,,0,19,19,19,,,,,,,,,279.36544604197843,,,,,,,,,,,,,,,,,,,,,,,,,,,,,,,,,,,,,,279.3576802079915,279.36544604197843,280.3561342500034,281.34224924998125,281.34224924998125,281.34224924998125,282.3535253329901,left,1.00348362501245,None,,,,,,,,,,,,,,,,,,,,,,,,,,,,,,,,,,,,,,,,,,,,,,966749,001,2024-12-05_12h55.11.345,Test,2024.2.4,None,2024-12-05 12h55.22.535273 +0100,
59,150,120,69,None,20,20,0,True,right,1.0641195410280488,None,,,,,,,,0,20,20,20,,,,,,,,,282.37019645795226,,,,,,,,,,,,,,,,,,,,,,,,,,,,,,,,,,,,,,282.3640259579988,282.37019645795226,283.36800774995936,284.351431374962,284.351431374962,284.351431374962,285.42032520798966,right,1.0641195410280488,None,,,,,,,,,,,,,,,,,,,,,,,,,,,,,,,,,,,,,,,,,,,,,,966749,001,2024-12-05_12h55.11.345,Test,2024.2.4,None,2024-12-05 12h55.22.535273 +0100,
25,150,120,39,None,21,21,0,False,right,0.8861075000022538,None,,,,,,,,0,21,21,21,,,,,,,,,285.4359558330034,,,,,,,,,,,,,,,,,,,,,,,,,,,,,,,,,,,,,,285.42969970795093,285.4359558330034,286.422555291967,287.4181429169839,287.4181429169839,287.4181429169839,288.31100429198705,right,0.8861075000022538,None,,,,,,,,,,,,,,,,,,,,,,,,,,,,,,,,,,,,,,,,,,,,,,966749,001,2024-12-05_12h55.11.345,Test,2024.2.4,None,2024-12-05 12h55.22.535273 +0100,
10,150,30,65,None,22,22,0,False,left,1.8447266250150278,None,,,,,,,,0,22,22,22,,,,,,,,,288.3274764579837,,,,,,,,,,,,,,,,,,,,,,,,,,,,,,,,,,,,,,288.32057483296376,288.3274764579837,289.32262029196136,290.3081714999862,290.3081714999862,290.3081714999862,292.15969662496354,left,1.8447266250150278,None,,,,,,,,,,,,,,,,,,,,,,,,,,,,,,,,,,,,,,,,,,,,,,966749,001,2024-12-05_12h55.11.345,Test,2024.2.4,None,2024-12-05 12h55.22.535273 +0100,
36,150,0,10,None,23,23,0,True,left,0.7060414580046199,None,,,,,,,,0,23,23,23,,,,,,,,,292.17563074995996,,,,,,,,,,,,,,,,,,,,,,,,,,,,,,,,,,,,,,292.16938874998596,292.17563074995996,293.1737865000032,294.1589399999939,294.1589399999939,294.1589399999939,294.8706663749763,left,0.7060414580046199,None,,,,,,,,,,,,,,,,,,,,,,,,,,,,,,,,,,,,,,,,,,,,,,966749,001,2024-12-05_12h55.11.345,Test,2024.2.4,None,2024-12-05 12h55.22.535273 +0100,
57,150,120,40,None,24,24,0,True,right,1.3427767909597605,None,,,,,,,,0,24,24,24,,,,,,,,,294.8869467919576,,,,,,,,,,,,,,,,,,,,,,,,,,,,,,,,,,,,,,294.88026891695336,294.8869467919576,295.8847697079764,296.8731257079635,296.8731257079635,296.8731257079635,298.22025149996625,right,1.3427767909597605,None,,,,,,,,,,,,,,,,,,,,,,,,,,,,,,,,,,,,,,,,,,,,,,966749,001,2024-12-05_12h55.11.345,Test,2024.2.4,None,2024-12-05 12h55.22.535273 +0100,
47,150,60,12,None,25,25,0,True,left,0.9837249999982305,None,,,,,,,,0,25,25,25,,,,,,,,,298.23723637498915,,,,,,,,,,,,,,,,,,,,,,,,,,,,,,,,,,,,,,298.2300458329846,298.23723637498915,299.2348122919793,300.218117582961,300.218117582961,300.218117582961,301.2053452079999,left,0.9837249999982305,None,,,,,,,,,,,,,,,,,,,,,,,,,,,,,,,,,,,,,,,,,,,,,,966749,001,2024-12-05_12h55.11.345,Test,2024.2.4,None,2024-12-05 12h55.22.535273 +0100,
29,150,150,18,None,26,26,0,False,right,1.3905207079951651,None,,,,,,,,0,26,26,26,,,,,,,,,301.2211831249879,,,,,,,,,,,,,,,,,,,,,,,,,,,,,,,,,,,,,,301.21495362499263,301.2211831249879,302.21806379198097,303.20170866698027,303.20170866698027,303.20170866698027,304.60345287498785,right,1.3905207079951651,None,,,,,,,,,,,,,,,,,,,,,,,,,,,,,,,,,,,,,,,,,,,,,,966749,001,2024-12-05_12h55.11.345,Test,2024.2.4,None,2024-12-05 12h55.22.535273 +0100,
54,150,90,3,None,27,27,0,True,left,1.2347277909866534,None,,,,,,,,0,27,27,27,,,,,,,,,304.6199391669943,,,,,,,,,,,,,,,,,,,,,,,,,,,,,,,,,,,,,,304.6132585000014,304.6199391669943,305.6179422499845,306.60154183296254,306.60154183296254,306.60154183296254,307.84390216699103,left,1.2347277909866534,None,,,,,,,,,,,,,,,,,,,,,,,,,,,,,,,,,,,,,,,,,,,,,,966749,001,2024-12-05_12h55.11.345,Test,2024.2.4,None,2024-12-05 12h55.22.535273 +0100,
23,150,120,36,None,28,28,0,False,right,0.8111737089930102,None,,,,,,,,0,28,28,28,,,,,,,,,307.8598737079883,,,,,,,,,,,,,,,,,,,,,,,,,,,,,,,,,,,,,,307.85366545798024,307.8598737079883,308.855022374948,309.8427318329923,309.8427318329923,309.8427318329923,310.660931832972,right,0.8111737089930102,None,,,,,,,,,,,,,,,,,,,,,,,,,,,,,,,,,,,,,,,,,,,,,,966749,001,2024-12-05_12h55.11.345,Test,2024.2.4,None,2024-12-05 12h55.22.535273 +0100,
4,150,0,58,None,29,29,0,False,left,0.8344623339944519,None,,,,,,,,0,29,29,29,,,,,,,,,310.679779166996,,,,,,,,,,,,,,,,,,,,,,,,,,,,,,,,,,,,,,310.6723340000026,310.679779166996,311.67267199995695,312.658448082977,312.658448082977,312.658448082977,313.50387495796895,left,0.8344623339944519,None,,,,,,,,,,,,,,,,,,,,,,,,,,,,,,,,,,,,,,,,,,,,,,966749,001,2024-12-05_12h55.11.345,Test,2024.2.4,None,2024-12-05 12h55.22.535273 +0100,
27,150,150,60,None,30,30,0,False,right,1.4573589579667896,None,,,,,,,,0,30,30,30,,,,,,,,,313.51852320798207,,,,,,,,,,,,,,,,,,,,,,,,,,,,,,,,,,,,,,313.51240449998295,313.51852320798207,314.50664887495805,315.50113366695587,315.50113366695587,315.50113366695587,316.96906012500403,right,1.4573589579667896,None,,,,,,,,,,,,,,,,,,,,,,,,,,,,,,,,,,,,,,,,,,,,,,966749,001,2024-12-05_12h55.11.345,Test,2024.2.4,None,2024-12-05 12h55.22.535273 +0100,
24,150,120,45,None,31,31,0,False,right,0.692849958955776,None,,,,,,,,0,31,31,31,,,,,,,,,316.9810250829905,,,,,,,,,,,,,,,,,,,,,,,,,,,,,,,,,,,,,,316.9763712499989,316.9810250829905,317.9735049579758,318.9587850829703,318.9587850829703,318.9587850829703,319.6544441249571,right,0.692849958955776,None,,,,,,,,,,,,,,,,,,,,,,,,,,,,,,,,,,,,,,,,,,,,,,966749,001,2024-12-05_12h55.11.345,Test,2024.2.4,None,2024-12-05 12h55.22.535273 +0100,
7,150,30,44,None,32,32,0,False,right,0.8171347080497071,None,,,,,,,,0,32,32,32,,,,,,,,,319.671126250003,,,,,,,,,,,,,,,,,,,,,,,,,,,,,,,,,,,,,,319.66494779195637,319.671126250003,320.6680432079593,321.65154320799047,321.65154320799047,321.65154320799047,322.47208420798415,right,0.8171347080497071,None,,,,,,,,,,,,,,,,,,,,,,,,,,,,,,,,,,,,,,,,,,,,,,966749,001,2024-12-05_12h55.11.345,Test,2024.2.4,None,2024-12-05 12h55.22.535273 +0100,
31,150,180,16,None,33,33,0,False,left,0.8563720409874804,None,,,,,,,,0,33,33,33,,,,,,,,,322.4878056249581,,,,,,,,,,,,,,,,,,,,,,,,,,,,,,,,,,,,,,322.4815459579695,322.4878056249581,323.484735874983,324.4681158749736,324.4681158749736,324.4681158749736,325.32690087496303,left,0.8563720409874804,None,,,,,,,,,,,,,,,,,,,,,,,,,,,,,,,,,,,,,,,,,,,,,,966749,001,2024-12-05_12h55.11.345,Test,2024.2.4,None,2024-12-05 12h55.22.535273 +0100,
2,150,0,38,None,34,34,0,False,right,1.6485447920276783,None,,,,,,,,0,34,34,34,,,,,,,,,325.3437534580007,,,,,,,,,,,,,,,,,,,,,,,,,,,,,,,,,,,,,,325.33693349995883,325.3437534580007,326.34020229196176,327.32670195796527,327.32670195796527,327.32670195796527,328.986630874977,right,1.6485447920276783,None,,,,,,,,,,,,,,,,,,,,,,,,,,,,,,,,,,,,,,,,,,,,,,966749,001,2024-12-05_12h55.11.345,Test,2024.2.4,None,2024-12-05 12h55.22.535273 +0100,
33,150,180,23,None,35,35,0,False,left,0.7734623749856837,None,,,,,,,,0,35,35,35,,,,,,,,,329.0071419169544,,,,,,,,,,,,,,,,,,,,,,,,,,,,,,,,,,,,,,329.0008389999857,329.0071419169544,330.00147416698746,330.9848245419562,330.9848245419562,330.9848245419562,331.7605904999655,left,0.7734623749856837,None,,,,,,,,,,,,,,,,,,,,,,,,,,,,,,,,,,,,,,,,,,,,,,966749,001,2024-12-05_12h55.11.345,Test,2024.2.4,None,2024-12-05 12h55.22.535273 +0100,
43,150,30,54,None,36,36,0,True,left,0.6285559999523684,None,,,,,,,,0,36,36,36,,,,,,,,,331.7771507499856,,,,,,,,,,,,,,,,,,,,,,,,,,,,,,,,,,,,,,331.7709422079497,331.7771507499856,332.772550166992,333.7588521249709,333.7588521249709,333.7588521249709,334.39295604196377,left,0.6285559999523684,None,,,,,,,,,,,,,,,,,,,,,,,,,,,,,,,,,,,,,,,,,,,,,,966749,001,2024-12-05_12h55.11.345,Test,2024.2.4,None,2024-12-05 12h55.22.535273 +0100,
22,150,120,22,None,37,37,0,False,right,0.8828637500409968,None,,,,,,,,0,37,37,37,,,,,,,,,334.4084484579507,,,,,,,,,,,,,,,,,,,,,,,,,,,,,,,,,,,,,,334.4023306669551,334.4084484579507,335.4062412499916,336.3921272919979,336.3921272919979,336.3921272919979,337.27723920799326,right,0.8828637500409968,None,,,,,,,,,,,,,,,,,,,,,,,,,,,,,,,,,,,,,,,,,,,,,,966749,001,2024-12-05_12h55.11.345,Test,2024.2.4,None,2024-12-05 12h55.22.535273 +0100,
26,150,150,25,None,38,38,0,False,left,0.6582108330330811,None,,,,,,,,0,38,38,38,,,,,,,,,337.29240241699154,,,,,,,,,,,,,,,,,,,,,,,,,,,,,,,,,,,,,,337.28622479195474,337.29240241699154,338.2909731249674,339.27704499999527,339.27704499999527,339.27704499999527,339.93948366696713,left,0.6582108330330811,None,,,,,,,,,,,,,,,,,,,,,,,,,,,,,,,,,,,,,,,,,,,,,,966749,001,2024-12-05_12h55.11.345,Test,2024.2.4,None,2024-12-05 12h55.22.535273 +0100,
69,150,180,1,None,39,39,0,True,left,0.7671624580398202,None,,,,,,,,0,39,39,39,,,,,,,,,339.9580247079721,,,,,,,,,,,,,,,,,,,,,,,,,,,,,,,,,,,,,,339.9500301249791,339.9580247079721,340.95681974996114,341.93479779199697,341.93479779199697,341.93479779199697,342.70502429199405,left,0.7671624580398202,None,,,,,,,,,,,,,,,,,,,,,,,,,,,,,,,,,,,,,,,,,,,,,,966749,001,2024-12-05_12h55.11.345,Test,2024.2.4,None,2024-12-05 12h55.22.535273 +0100,
28,150,150,7,None,40,40,0,False,left,1.4507017079740763,None,,,,,,,,0,40,40,40,,,,,,,,,342.7205102079897,,,,,,,,,,,,,,,,,,,,,,,,,,,,,,,,,,,,,,342.7143329169485,342.7205102079897,343.71810825000284,344.70143033296335,344.70143033296335,344.70143033296335,346.1628178329556,left,1.4507017079740763,None,,,,,,,,,,,,,,,,,,,,,,,,,,,,,,,,,,,,,,,,,,,,,,966749,001,2024-12-05_12h55.11.345,Test,2024.2.4,None,2024-12-05 12h55.22.535273 +0100,
66,150,180,6,None,41,41,0,True,left,1.1441377910086885,None,,,,,,,,0,41,41,41,,,,,,,,,346.1764032919891,,,,,,,,,,,,,,,,,,,,,,,,,,,,,,,,,,,,,,346.17170895799063,346.1764032919891,347.17336295795394,348.15834491699934,348.15834491699934,348.15834491699934,349.3095870419638,left,1.1441377910086885,None,,,,,,,,,,,,,,,,,,,,,,,,,,,,,,,,,,,,,,,,,,,,,,966749,001,2024-12-05_12h55.11.345,Test,2024.2.4,None,2024-12-05 12h55.22.535273 +0100,
46,150,60,42,None,42,42,0,True,right,1.1264610000071116,None,,,,,,,,0,42,42,42,,,,,,,,,349.324817124987,,,,,,,,,,,,,,,,,,,,,,,,,,,,,,,,,,,,,,349.3184450419503,349.324817124987,350.3228385829716,351.308986332966,351.308986332966,351.308986332966,352.44644400000107,right,1.1264610000071116,None,,,,,,,,,,,,,,,,,,,,,,,,,,,,,,,,,,,,,,,,,,,,,,966749,001,2024-12-05_12h55.11.345,Test,2024.2.4,None,2024-12-05 12h55.22.535273 +0100,
49,150,60,9,None,43,43,0,True,left,1.9177242500009015,None,,,,,,,,0,43,43,43,,,,,,,,,352.45851824997226,,,,,,,,,,,,,,,,,,,,,,,,,,,,,,,,,,,,,,352.453829749953,352.45851824997226,353.45603712496813,354.44224091694923,354.44224091694923,354.44224091694923,356.3702294169925,left,1.9177242500009015,None,,,,,,,,,,,,,,,,,,,,,,,,,,,,,,,,,,,,,,,,,,,,,,966749,001,2024-12-05_12h55.11.345,Test,2024.2.4,None,2024-12-05 12h55.22.535273 +0100,
5,150,0,17,None,44,44,0,False,right,1.0291143329814076,None,,,,,,,,0,44,44,44,,,,,,,,,356.38635654200334,,,,,,,,,,,,,,,,,,,,,,,,,,,,,,,,,,,,,,356.38016949995654,356.38635654200334,357.38476716697915,358.3681333749555,358.3681333749555,358.3681333749555,359.40312220796477,right,1.0291143329814076,None,,,,,,,,,,,,,,,,,,,,,,,,,,,,,,,,,,,,,,,,,,,,,,966749,001,2024-12-05_12h55.11.345,Test,2024.2.4,None,2024-12-05 12h55.22.535273 +0100,
37,150,0,32,None,45,45,0,True,left,0.7339710840024054,None,,,,,,,,0,45,45,45,,,,,,,,,359.4196531249909,,,,,,,,,,,,,,,,,,,,,,,,,,,,,,,,,,,,,,359.41323862498393,359.4196531249909,360.41806687496137,361.40109741699416,361.40109741699416,361.40109741699416,362.1384002919658,left,0.7339710840024054,None,,,,,,,,,,,,,,,,,,,,,,,,,,,,,,,,,,,,,,,,,,,,,,966749,001,2024-12-05_12h55.11.345,Test,2024.2.4,None,2024-12-05 12h55.22.535273 +0100,
14,150,60,47,None,46,46,0,False,left,1.3597509159590118,None,,,,,,,,0,46,46,46,,,,,,,,,362.1530230829958,,,,,,,,,,,,,,,,,,,,,,,,,,,,,,,,,,,,,,362.1471618329524,362.1530230829958,363.151427417004,364.134819082974,364.134819082974,364.134819082974,365.5035915419576,left,1.3597509159590118,None,,,,,,,,,,,,,,,,,,,,,,,,,,,,,,,,,,,,,,,,,,,,,,966749,001,2024-12-05_12h55.11.345,Test,2024.2.4,None,2024-12-05 12h55.22.535273 +0100,
52,150,90,19,None,47,47,0,True,right,0.8613832499831915,None,,,,,,,,0,47,47,47,,,,,,,,,365.5193274169578,,,,,,,,,,,,,,,,,,,,,,,,,,,,,,,,,,,,,,365.51319116697414,365.5193274169578,366.5180497499532,367.5014606670011,367.5014606670011,367.5014606670011,368.3706185829942,right,0.8613832499831915,None,,,,,,,,,,,,,,,,,,,,,,,,,,,,,,,,,,,,,,,,,,,,,,966749,001,2024-12-05_12h55.11.345,Test,2024.2.4,None,2024-12-05 12h55.22.535273 +0100,
30,150,150,37,None,48,48,0,False,right,1.2051193749648519,None,,,,,,,,0,48,48,48,,,,,,,,,368.38537449995056,,,,,,,,,,,,,,,,,,,,,,,,,,,,,,,,,,,,,,368.379904832982,368.38537449995056,369.3728398329695,370.3681260419544,370.3681260419544,370.3681260419544,371.5763315829681,right,1.2051193749648519,None,,,,,,,,,,,,,,,,,,,,,,,,,,,,,,,,,,,,,,,,,,,,,,966749,001,2024-12-05_12h55.11.345,Test,2024.2.4,None,2024-12-05 12h55.22.535273 +0100,
21,150,120,29,None,49,49,0,False,right,1.4771143749821931,None,,,,,,,,0,49,49,49,,,,,,,,,371.5929882499622,,,,,,,,,,,,,,,,,,,,,,,,,,,,,,,,,,,,,,371.5860160829616,371.5929882499622,372.5899409999838,373.5761675829999,373.5761675829999,373.5761675829999,375.05973129195627,right,1.4771143749821931,None,,,,,,,,,,,,,,,,,,,,,,,,,,,,,,,,,,,,,,,,,,,,,,966749,001,2024-12-05_12h55.11.345,Test,2024.2.4,None,2024-12-05 12h55.22.535273 +0100,
42,150,30,55,None,50,50,0,True,left,1.0024260409991257,None,,,,,,,,0,50,50,50,,,,,,,,,375.07590695796534,,,,,,,,,,,,,,,,,,,,,,,,,,,,,,,,,,,,,,375.0695975419949,375.07590695796534,376.07268579199445,377.05895662499825,377.05895662499825,377.05895662499825,378.07018308294937,left,1.0024260409991257,None,,,,,,,,,,,,,,,,,,,,,,,,,,,,,,,,,,,,,,,,,,,,,,966749,001,2024-12-05_12h55.11.345,Test,2024.2.4,None,2024-12-05 12h55.22.535273 +0100,
9,150,30,15,None,51,51,0,False,left,1.0011583750019781,None,,,,,,,,0,51,51,51,,,,,,,,,378.0854011249612,,,,,,,,,,,,,,,,,,,,,,,,,,,,,,,,,,,,,,378.0791901249904,378.0854011249612,379.07361349998973,380.0681015829905,380.0681015829905,380.0681015829905,381.07646199996816,left,1.0011583750019781,None,,,,,,,,,,,,,,,,,,,,,,,,,,,,,,,,,,,,,,,,,,,,,,966749,001,2024-12-05_12h55.11.345,Test,2024.2.4,None,2024-12-05 12h55.22.535273 +0100,
64,150,150,51,None,52,52,0,True,left,0.8305566249764524,None,,,,,,,,0,52,52,52,,,,,,,,,381.0915835829801,,,,,,,,,,,,,,,,,,,,,,,,,,,,,,,,,,,,,,381.08555145800347,381.0915835829801,382.08484858297743,383.0762292079744,383.0762292079744,383.0762292079744,383.909693582973,left,0.8305566249764524,None,,,,,,,,,,,,,,,,,,,,,,,,,,,,,,,,,,,,,,,,,,,,,,966749,001,2024-12-05_12h55.11.345,Test,2024.2.4,None,2024-12-05 12h55.22.535273 +0100,
44,150,30,26,None,53,53,0,True,left,1.4170408339705318,None,,,,,,,,0,53,53,53,,,,,,,,,383.9251556249801,,,,,,,,,,,,,,,,,,,,,,,,,,,,,,,,,,,,,,383.918295041949,383.9251556249801,384.9235014169826,385.9090121249901,385.9090121249901,385.9090121249901,387.33694999996806,left,1.4170408339705318,None,,,,,,,,,,,,,,,,,,,,,,,,,,,,,,,,,,,,,,,,,,,,,,966749,001,2024-12-05_12h55.11.345,Test,2024.2.4,None,2024-12-05 12h55.22.535273 +0100,
35,150,180,24,None,54,54,0,False,right,1.5462121659656987,None,,,,,,,,0,54,54,54,,,,,,,,,387.35353341698647,,,,,,,,,,,,,,,,,,,,,,,,,,,,,,,,,,,,,,387.3469130829908,387.35353341698647,388.3513002919499,389.334853999957,389.334853999957,389.334853999957,390.8868256249698,right,1.5462121659656987,None,,,,,,,,,,,,,,,,,,,,,,,,,,,,,,,,,,,,,,,,,,,,,,966749,001,2024-12-05_12h55.11.345,Test,2024.2.4,None,2024-12-05 12h55.22.535273 +0100,
34,150,180,61,None,55,55,0,False,left,0.7724936659797095,None,,,,,,,,0,55,55,55,,,,,,,,,390.90220937499544,,,,,,,,,,,,,,,,,,,,,,,,,,,,,,,,,,,,,,390.8958197499742,390.90220937499544,391.8895338329603,392.88487770798383,392.88487770798383,392.88487770798383,393.66073166695423,left,0.7724936659797095,None,,,,,,,,,,,,,,,,,,,,,,,,,,,,,,,,,,,,,,,,,,,,,,966749,001,2024-12-05_12h55.11.345,Test,2024.2.4,None,2024-12-05 12h55.22.535273 +0100,
41,150,30,64,None,56,56,0,True,left,0.6867768329684623,None,,,,,,,,0,56,56,56,,,,,,,,,393.6776087919716,,,,,,,,,,,,,,,,,,,,,,,,,,,,,,,,,,,,,,393.6705262499745,393.6776087919716,394.67327679198934,395.6586759169586,395.6586759169586,395.6586759169586,396.3537108329474,left,0.6867768329684623,None,,,,,,,,,,,,,,,,,,,,,,,,,,,,,,,,,,,,,,,,,,,,,,966749,001,2024-12-05_12h55.11.345,Test,2024.2.4,None,2024-12-05 12h55.22.535273 +0100,
16,150,90,14,None,57,57,0,False,left,0.6664489160175435,None,,,,,,,,0,57,57,57,,,,,,,,,396.3697304579546,,,,,,,,,,,,,,,,,,,,,,,,,,,,,,,,,,,,,,396.3629058749648,396.3697304579546,397.3682042500004,398.3514575829613,398.3514575829613,398.3514575829613,399.0202567499946,left,0.6664489160175435,None,,,,,,,,,,,,,,,,,,,,,,,,,,,,,,,,,,,,,,,,,,,,,,966749,001,2024-12-05_12h55.11.345,Test,2024.2.4,None,2024-12-05 12h55.22.535273 +0100,
40,150,0,59,None,58,58,0,True,left,0.8074193749926053,None,,,,,,,,0,58,58,58,,,,,,,,,399.0345842919778,,,,,,,,,,,,,,,,,,,,,,,,,,,,,,,,,,,,,,399.02787083300063,399.0345842919778,400.0241804169491,401.01821333297994,401.01821333297994,401.01821333297994,401.8371915000025,left,0.8074193749926053,None,,,,,,,,,,,,,,,,,,,,,,,,,,,,,,,,,,,,,,,,,,,,,,966749,001,2024-12-05_12h55.11.345,Test,2024.2.4,None,2024-12-05 12h55.22.535273 +0100,
11,150,60,34,None,59,59,0,False,left,0.7854035000200383,None,,,,,,,,0,59,59,59,,,,,,,,,401.8596106249606,,,,,,,,,,,,,,,,,,,,,,,,,,,,,,,,,,,,,,401.8535175419529,401.8596106249606,402.8560608329717,403.83328320796136,403.83328320796136,403.83328320796136,404.62131595797837,left,0.7854035000200383,None,,,,,,,,,,,,,,,,,,,,,,,,,,,,,,,,,,,,,,,,,,,,,,966749,001,2024-12-05_12h55.11.345,Test,2024.2.4,None,2024-12-05 12h55.22.535273 +0100,
50,150,60,56,None,60,60,0,True,left,0.6504226250108331,None,,,,,,,,0,60,60,60,,,,,,,,,404.6390022079577,,,,,,,,,,,,,,,,,,,,,,,,,,,,,,,,,,,,,,404.63272429199424,404.6390022079577,405.63487599999644,406.61811816698173,406.61811816698173,406.61811816698173,407.2712701249984,left,0.6504226250108331,None,,,,,,,,,,,,,,,,,,,,,,,,,,,,,,,,,,,,,,,,,,,,,,966749,001,2024-12-05_12h55.11.345,Test,2024.2.4,None,2024-12-05 12h55.22.535273 +0100,
65,150,150,57,None,61,61,0,True,left,0.9221398329827935,None,,,,,,,,0,61,61,61,,,,,,,,,407.2876009999891,,,,,,,,,,,,,,,,,,,,,,,,,,,,,,,,,,,,,,407.2813048749813,407.2876009999891,408.2848298329627,409.268264207989,409.268264207989,409.268264207989,410.1930665829568,left,0.9221398329827935,None,,,,,,,,,,,,,,,,,,,,,,,,,,,,,,,,,,,,,,,,,,,,,,966749,001,2024-12-05_12h55.11.345,Test,2024.2.4,None,2024-12-05 12h55.22.535273 +0100,
1,150,0,4,None,62,62,0,False,left,1.5566833749762736,None,,,,,,,,0,62,62,62,,,,,,,,,410.2086844169535,,,,,,,,,,,,,,,,,,,,,,,,,,,,,,,,,,,,,,410.2023317499552,410.2086844169535,411.2068489170051,412.1917585419724,412.1917585419724,412.1917585419724,413.75344908295665,left,1.5566833749762736,None,,,,,,,,,,,,,,,,,,,,,,,,,,,,,,,,,,,,,,,,,,,,,,966749,001,2024-12-05_12h55.11.345,Test,2024.2.4,None,2024-12-05 12h55.22.535273 +0100,
15,150,60,53,None,63,63,0,False,right,0.7723771670134738,None,,,,,,,,0,63,63,63,,,,,,,,,413.7706037919852,,,,,,,,,,,,,,,,,,,,,,,,,,,,,,,,,,,,,,413.7643920419505,413.7706037919852,414.76808320794953,415.75133345799986,415.75133345799986,415.75133345799986,416.5267952919821,right,0.7723771670134738,None,,,,,,,,,,,,,,,,,,,,,,,,,,,,,,,,,,,,,,,,,,,,,,966749,001,2024-12-05_12h55.11.345,Test,2024.2.4,None,2024-12-05 12h55.22.535273 +0100,
38,150,0,68,None,64,64,0,True,left,1.3178572920151055,None,,,,,,,,0,64,64,64,,,,,,,,,416.54495462495834,,,,,,,,,,,,,,,,,,,,,,,,,,,,,,,,,,,,,,416.5380080000032,416.54495462495834,417.5397077079979,418.5255297079566,418.5255297079566,418.5255297079566,419.8528783749789,left,1.3178572920151055,None,,,,,,,,,,,,,,,,,,,,,,,,,,,,,,,,,,,,,,,,,,,,,,966749,001,2024-12-05_12h55.11.345,Test,2024.2.4,None,2024-12-05 12h55.22.535273 +0100,
58,150,120,20,None,65,65,0,True,right,1.228843999968376,None,,,,,,,,0,65,65,65,,,,,,,,,419.868406374997,,,,,,,,,,,,,,,,,,,,,,,,,,,,,,,,,,,,,,419.86306129198056,419.868406374997,420.8567084999522,421.85122787498403,421.85122787498403,421.85122787498403,423.0890659579891,right,1.228843999968376,None,,,,,,,,,,,,,,,,,,,,,,,,,,,,,,,,,,,,,,,,,,,,,,966749,001,2024-12-05_12h55.11.345,Test,2024.2.4,None,2024-12-05 12h55.22.535273 +0100,
32,150,180,35,None,66,66,0,False,right,1.3894595419988036,None,,,,,,,,0,66,66,66,,,,,,,,,423.1111075829831,,,,,,,,,,,,,,,,,,,,,,,,,,,,,,,,,,,,,,423.1034034169861,423.1111075829831,424.1174173329491,425.0846261669649,425.0846261669649,425.0846261669649,426.48516016697977,right,1.3894595419988036,None,,,,,,,,,,,,,,,,,,,,,,,,,,,,,,,,,,,,,,,,,,,,,,966749,001,2024-12-05_12h55.11.345,Test,2024.2.4,None,2024-12-05 12h55.22.535273 +0100,
61,150,150,21,None,67,67,0,True,left,0.9632893340312876,None,,,,,,,,0,67,67,67,,,,,,,,,426.5036892920034,,,,,,,,,,,,,,,,,,,,,,,,,,,,,,,,,,,,,,426.493246582977,426.5036892920034,427.50124008295825,428.48392599995714,428.48392599995714,428.48392599995714,429.4533584579476,left,0.9632893340312876,None,,,,,,,,,,,,,,,,,,,,,,,,,,,,,,,,,,,,,,,,,,,,,,966749,001,2024-12-05_12h55.11.345,Test,2024.2.4,None,2024-12-05 12h55.22.535273 +0100,
18,150,90,5,None,68,68,0,False,left,1.1740955829736777,None,,,,,,,,0,68,68,68,,,,,,,,,429.4682167499559,,,,,,,,,,,,,,,,,,,,,,,,,,,,,,,,,,,,,,429.4613817919744,429.4682167499559,430.45584295794833,431.45112487499136,431.45112487499136,431.45112487499136,432.64086641697213,left,1.1740955829736777,None,,,,,,,,,,,,,,,,,,,,,,,,,,,,,,,,,,,,,,,,,,,,,,966749,001,2024-12-05_12h55.11.345,Test,2024.2.4,None,2024-12-05 12h55.22.535273 +0100,
13,150,60,46,None,69,69,0,False,left,1.3477848750189878,None,,,,,,,,0,69,69,69,,,,,,,,,432.6613030419685,,,,,,,,,,,,,,,,,,,,,,,,,,,,,,,,,,,,,,432.65336062497227,432.6613030419685,433.6562483329908,434.64219399995636,434.64219399995636,434.64219399995636,435.9928306249785,left,1.3477848750189878,None,,,,,,,,,,,,,,,,,,,,,,,,,,,,,,,,,,,,,,,,,,,,,,966749,001,2024-12-05_12h55.11.345,Test,2024.2.4,None,2024-12-05 12h55.22.535273 +0100,
,,,,,,,,,,,,,,,,,,,,,,,,,,,,,,,,,,,,,,,,,,,,,,,,,,,,,,,,,,,,,,,,,,,,,,,,,,,,,,,,,,435.9932159999735,436.0052977500018,436.0052977500018,440.20354149997,space,4.19257870898582,None,,,,,,,,,,,,,,,,,,,,,,,,,,,,,,,,,,,,966749,001,2024-12-05_12h55.11.345,Test,2024.2.4,None,2024-12-05 12h55.22.535273 +0100,
33,150,180,23,None,0,0,0,,,,,,,,,,,,,,,,0,0,0,32,,,,,440.23643595795147,,,,,,,,,,,,,,,,,,,,,,,,,,,,,,,,,,,,,,,,,,,,,,,,,,,,,,,,,,440.22558091697283,440.23643595795147,440.40152745798696,440.40152745798696,440.43491016695043,442.1017046669731,442.1017046669731,442.08564333297545,,,,,,,,,,,,,,,,,,,,,,,,,,,,966749,001,2024-12-05_12h55.11.345,Test,2024.2.4,None,2024-12-05 12h55.22.535273 +0100,
12,150,60,33,None,1,1,0,,,,,,,,,,,,,,,,0,1,1,11,,,,,442.1017046669731,,,,,,,,,,,,,,,,,,,,,,,,,,,,,,,,,,,,,,,,,,,,,,,,,,,,,,,,,,442.09726337494794,442.11803379195044,442.3015478749876,442.3015478749876,442.30756479199044,444.0002495420049,444.0002495420049,443.9860964169493,,,,,,,,,,,,,,,,,,,,,,,,,,,,966749,001,2024-12-05_12h55.11.345,Test,2024.2.4,None,2024-12-05 12h55.22.535273 +0100,
23,150,120,36,None,2,2,0,,,,,,,,,,,,,,,,0,2,2,22,,,,,444.0002495420049,,,,,,,,,,,,,,,,,,,,,,,,,,,,,,,,,,,,,,,,,,,,,,,,,,,,,,,,,,443.9957945829956,444.00388412497705,444.2015472079511,444.2015472079511,444.2015472079511,445.8982658329769,445.8982658329769,445.8855322499876,,,,,,,,,,,,,,,,,,,,,,,,,,,,966749,001,2024-12-05_12h55.11.345,Test,2024.2.4,None,2024-12-05 12h55.22.535273 +0100,
4,150,0,58,None,3,3,0,,,,,,,,,,,,,,,,0,3,3,3,,,,,445.8982658329769,,,,,,,,,,,,,,,,,,,,,,,,,,,,,,,,,,,,,,,,,,,,,,,,,,,,,,,,,,445.89415379200364,445.9022179999738,446.1016147499904,446.1016147499904,446.08976745797554,447.80138162500225,447.80138162500225,447.78566745796707,,,,,,,,,,,,,,,,,,,,,,,,,,,,966749,001,2024-12-05_12h55.11.345,Test,2024.2.4,None,2024-12-05 12h55.22.535273 +0100,
16,150,90,14,None,4,4,0,,,,,,,,,,,,,,,,0,4,4,15,,,,,447.80138162500225,,,,,,,,,,,,,,,,,,,,,,,,,,,,,,,,,,,,,,,,,,,,,,,,,,,,,,,,,,447.7967889169813,447.80536279198714,448.00133629195625,448.00133629195625,448.00133629195625,449.69943262496963,449.69943262496963,449.68574320798507,,,,,,,,,,,,,,,,,,,,,,,,,,,,966749,001,2024-12-05_12h55.11.345,Test,2024.2.4,None,2024-12-05 12h55.22.535273 +0100,
28,150,150,7,None,5,5,0,,,,,,,,,,,,,,,,0,5,5,27,,,,,449.69943262496963,,,,,,,,,,,,,,,,,,,,,,,,,,,,,,,,,,,,,,,,,,,,,,,,,,,,,,,,,,449.69443933299044,449.70304120797664,449.90146500000264,449.90146500000264,449.90146500000264,451.59999449999304,451.59999449999304,451.58578037499683,,,,,,,,,,,,,,,,,,,,,,,,,,,,966749,001,2024-12-05_12h55.11.345,Test,2024.2.4,None,2024-12-05 12h55.22.535273 +0100,
24,150,120,45,None,6,6,0,,,,,,,,,,,,,,,,0,6,6,23,,,,,451.59999449999304,,,,,,,,,,,,,,,,,,,,,,,,,,,,,,,,,,,,,,,,,,,,,,,,,,,,,,,,,,451.59519266698044,451.60380016698036,451.80158641695743,451.80158641695743,451.80158641695743,453.50149595795665,453.50149595795665,453.48591758299153,,,,,,,,,,,,,,,,,,,,,,,,,,,,966749,001,2024-12-05_12h55.11.345,Test,2024.2.4,None,2024-12-05 12h55.22.535273 +0100,
21,150,120,29,None,7,7,0,,,,,,,,,,,,,,,,0,7,7,20,,,,,453.50149595795665,,,,,,,,,,,,,,,,,,,,,,,,,,,,,,,,,,,,,,,,,,,,,,,,,,,,,,,,,,453.4958245829912,453.518006416969,453.7016946669901,453.7016946669901,453.708041624981,455.401017666969,455.401017666969,455.38564100000076,,,,,,,,,,,,,,,,,,,,,,,,,,,,966749,001,2024-12-05_12h55.11.345,Test,2024.2.4,None,2024-12-05 12h55.22.535273 +0100,
30,150,150,37,None,8,8,0,,,,,,,,,,,,,,,,0,8,8,29,,,,,455.401017666969,,,,,,,,,,,,,,,,,,,,,,,,,,,,,,,,,,,,,,,,,,,,,,,,,,,,,,,,,,455.39608449995285,455.4051097499905,455.601506166975,455.601506166975,455.601506166975,457.2987147079548,457.2987147079548,457.2854948329623,,,,,,,,,,,,,,,,,,,,,,,,,,,,966749,001,2024-12-05_12h55.11.345,Test,2024.2.4,None,2024-12-05 12h55.22.535273 +0100,
29,150,150,18,None,9,9,0,,,,,,,,,,,,,,,,0,9,9,28,,,,,457.2987147079548,,,,,,,,,,,,,,,,,,,,,,,,,,,,,,,,,,,,,,,,,,,,,,,,,,,,,,,,,,457.29358895798214,457.3028052079608,457.50116024998715,457.50116024998715,457.4899641670054,459.20166999998037,459.20166999998037,459.1859064169694,,,,,,,,,,,,,,,,,,,,,,,,,,,,966749,001,2024-12-05_12h55.11.345,Test,2024.2.4,None,2024-12-05 12h55.22.535273 +0100,
3,150,0,13,None,10,10,0,,,,,,,,,,,,,,,,0,10,10,2,,,,,459.20166999998037,,,,,,,,,,,,,,,,,,,,,,,,,,,,,,,,,,,,,,,,,,,,,,,,,,,,,,,,,,459.1972685419605,459.21781904197996,459.4015195419779,459.4015195419779,459.40766679198714,461.1010614580009,461.1010614580009,461.085905624961,,,,,,,,,,,,,,,,,,,,,,,,,,,,966749,001,2024-12-05_12h55.11.345,Test,2024.2.4,None,2024-12-05 12h55.22.535273 +0100,
27,150,150,60,None,11,11,0,,,,,,,,,,,,,,,,0,11,11,26,,,,,461.1010614580009,,,,,,,,,,,,,,,,,,,,,,,,,,,,,,,,,,,,,,,,,,,,,,,,,,,,,,,,,,461.0959079579916,461.1053948329645,461.30138504196657,461.30138504196657,461.30138504196657,463.000934666954,463.000934666954,462.9854722080054,,,,,,,,,,,,,,,,,,,,,,,,,,,,966749,001,2024-12-05_12h55.11.345,Test,2024.2.4,None,2024-12-05 12h55.22.535273 +0100,
7,150,30,44,None,12,12,0,,,,,,,,,,,,,,,,0,12,12,6,,,,,463.000934666954,,,,,,,,,,,,,,,,,,,,,,,,,,,,,,,,,,,,,,,,,,,,,,,,,,,,,,,,,,462.9960967079969,463.0048077919637,463.20141870796215,463.20141870796215,463.20141870796215,464.8997459169477,464.8997459169477,464.8856313749566,,,,,,,,,,,,,,,,,,,,,,,,,,,,966749,001,2024-12-05_12h55.11.345,Test,2024.2.4,None,2024-12-05 12h55.22.535273 +0100,
6,150,30,43,None,13,13,0,,,,,,,,,,,,,,,,0,13,13,5,,,,,464.8997459169477,,,,,,,,,,,,,,,,,,,,,,,,,,,,,,,,,,,,,,,,,,,,,,,,,,,,,,,,,,464.89470479195006,464.90380291698966,465.10157691698987,465.10157691698987,465.10157691698987,466.79984854196664,466.79984854196664,466.785665125004,,,,,,,,,,,,,,,,,,,,,,,,,,,,966749,001,2024-12-05_12h55.11.345,Test,2024.2.4,None,2024-12-05 12h55.22.535273 +0100,
14,150,60,47,None,14,14,0,,,,,,,,,,,,,,,,0,14,14,13,,,,,466.79984854196664,,,,,,,,,,,,,,,,,,,,,,,,,,,,,,,,,,,,,,,,,,,,,,,,,,,,,,,,,,466.79485791700426,466.803655249998,467.00172858295264,467.00172858295264,467.00172858295264,468.6997813329799,468.6997813329799,468.68607012496796,,,,,,,,,,,,,,,,,,,,,,,,,,,,966749,001,2024-12-05_12h55.11.345,Test,2024.2.4,None,2024-12-05 12h55.22.535273 +0100,
19,150,90,48,None,15,15,0,,,,,,,,,,,,,,,,0,15,15,18,,,,,468.6997813329799,,,,,,,,,,,,,,,,,,,,,,,,,,,,,,,,,,,,,,,,,,,,,,,,,,,,,,,,,,468.69442195800366,468.70361866697203,468.90178133297013,468.90178133297013,468.90178133297013,470.61407966696424,470.61407966696424,470.5859669999918,,,,,,,,,,,,,,,,,,,,,,,,,,,,966749,001,2024-12-05_12h55.11.345,Test,2024.2.4,None,2024-12-05 12h55.22.535273 +0100,
20,150,90,27,None,16,16,0,,,,,,,,,,,,,,,,0,16,16,19,,,,,470.61407966696424,,,,,,,,,,,,,,,,,,,,,,,,,,,,,,,,,,,,,,,,,,,,,,,,,,,,,,,,,,470.60921533295186,470.61407966696424,470.8018526669475,470.8018526669475,470.80594162497437,472.5095088329981,472.5095088329981,472.4854246249888,,,,,,,,,,,,,,,,,,,,,,,,,,,,966749,001,2024-12-05_12h55.11.345,Test,2024.2.4,None,2024-12-05 12h55.22.535273 +0100,
8,150,30,11,None,17,17,0,,,,,,,,,,,,,,,,0,17,17,7,,,,,472.5095088329981,,,,,,,,,,,,,,,,,,,,,,,,,,,,,,,,,,,,,,,,,,,,,,,,,,,,,,,,,,472.50499783299165,472.5095088329981,472.70046462496975,472.70046462496975,472.70467866695253,474.4036368749803,474.4036368749803,474.38580058299704,,,,,,,,,,,,,,,,,,,,,,,,,,,,966749,001,2024-12-05_12h55.11.345,Test,2024.2.4,None,2024-12-05 12h55.22.535273 +0100,
9,150,30,15,None,18,18,0,,,,,,,,,,,,,,,,0,18,18,8,,,,,474.4036368749803,,,,,,,,,,,,,,,,,,,,,,,,,,,,,,,,,,,,,,,,,,,,,,,,,,,,,,,,,,474.39902770798653,474.41807937499834,474.6018807920045,474.6018807920045,474.6074475829955,476.29892620799365,476.29892620799365,476.2866900829831,,,,,,,,,,,,,,,,,,,,,,,,,,,,966749,001,2024-12-05_12h55.11.345,Test,2024.2.4,None,2024-12-05 12h55.22.535273 +0100,
13,150,60,46,None,19,19,0,,,,,,,,,,,,,,,,0,19,19,12,,,,,476.29892620799365,,,,,,,,,,,,,,,,,,,,,,,,,,,,,,,,,,,,,,,,,,,,,,,,,,,,,,,,,,476.29461241699755,476.3027379169944,476.5016518329503,476.5016518329503,476.5016518329503,478.20192266697995,478.20192266697995,478.1856897919788,,,,,,,,,,,,,,,,,,,,,,,,,,,,966749,001,2024-12-05_12h55.11.345,Test,2024.2.4,None,2024-12-05 12h55.22.535273 +0100,
15,150,60,53,None,20,20,0,,,,,,,,,,,,,,,,0,20,20,14,,,,,478.20192266697995,,,,,,,,,,,,,,,,,,,,,,,,,,,,,,,,,,,,,,,,,,,,,,,,,,,,,,,,,,478.1974479579949,478.21809516695794,478.40141233295435,478.40141233295435,478.40769008296775,480.1006321249879,480.1006321249879,480.08569120796164,,,,,,,,,,,,,,,,,,,,,,,,,,,,966749,001,2024-12-05_12h55.11.345,Test,2024.2.4,None,2024-12-05 12h55.22.535273 +0100,
11,150,60,34,None,21,21,0,,,,,,,,,,,,,,,,0,21,21,10,,,,,480.1006321249879,,,,,,,,,,,,,,,,,,,,,,,,,,,,,,,,,,,,,,,,,,,,,,,,,,,,,,,,,,480.0956269999733,480.10457358299755,480.30143066699384,480.30143066699384,480.30143066699384,481.999599666975,481.999599666975,481.98558791697724,,,,,,,,,,,,,,,,,,,,,,,,,,,,966749,001,2024-12-05_12h55.11.345,Test,2024.2.4,None,2024-12-05 12h55.22.535273 +0100,
18,150,90,5,None,22,22,0,,,,,,,,,,,,,,,,0,22,22,17,,,,,481.999599666975,,,,,,,,,,,,,,,,,,,,,,,,,,,,,,,,,,,,,,,,,,,,,,,,,,,,,,,,,,481.9945266249706,482.0044813329587,482.20140849996824,482.20140849996824,482.20140849996824,483.90147829195485,483.90147829195485,483.8859293749556,,,,,,,,,,,,,,,,,,,,,,,,,,,,966749,001,2024-12-05_12h55.11.345,Test,2024.2.4,None,2024-12-05 12h55.22.535273 +0100,
25,150,120,39,None,23,23,0,,,,,,,,,,,,,,,,0,23,23,24,,,,,483.90147829195485,,,,,,,,,,,,,,,,,,,,,,,,,,,,,,,,,,,,,,,,,,,,,,,,,,,,,,,,,,483.8963516249787,483.90540420799516,484.10147558298195,484.10147558298195,484.10147558298195,485.79969625000376,485.79969625000376,485.78567474999,,,,,,,,,,,,,,,,,,,,,,,,,,,,966749,001,2024-12-05_12h55.11.345,Test,2024.2.4,None,2024-12-05 12h55.22.535273 +0100,
26,150,150,25,None,24,24,0,,,,,,,,,,,,,,,,0,24,24,25,,,,,485.79969625000376,,,,,,,,,,,,,,,,,,,,,,,,,,,,,,,,,,,,,,,,,,,,,,,,,,,,,,,,,,485.7946322079515,485.8042705829721,486.00134954199893,486.00134954199893,486.00134954199893,487.70020833297167,487.70020833297167,487.6855290829553,,,,,,,,,,,,,,,,,,,,,,,,,,,,966749,001,2024-12-05_12h55.11.345,Test,2024.2.4,None,2024-12-05 12h55.22.535273 +0100,
34,150,180,61,None,25,25,0,,,,,,,,,,,,,,,,0,25,25,33,,,,,487.70020833297167,,,,,,,,,,,,,,,,,,,,,,,,,,,,,,,,,,,,,,,,,,,,,,,,,,,,,,,,,,487.69585437496426,487.7036207919591,487.90142049995484,487.90142049995484,487.90142049995484,489.60098508297233,489.60098508297233,489.5856095419731,,,,,,,,,,,,,,,,,,,,,,,,,,,,966749,001,2024-12-05_12h55.11.345,Test,2024.2.4,None,2024-12-05 12h55.22.535273 +0100,
1,150,0,4,None,26,26,0,,,,,,,,,,,,,,,,0,26,26,0,,,,,489.60098508297233,,,,,,,,,,,,,,,,,,,,,,,,,,,,,,,,,,,,,,,,,,,,,,,,,,,,,,,,,,489.59668158297427,489.6047443749849,489.8015314170043,489.8015314170043,489.8015314170043,491.5001133749611,491.5001133749611,491.4855368330027,,,,,,,,,,,,,,,,,,,,,,,,,,,,966749,001,2024-12-05_12h55.11.345,Test,2024.2.4,None,2024-12-05 12h55.22.535273 +0100,
32,150,180,35,None,27,27,0,,,,,,,,,,,,,,,,0,27,27,31,,,,,491.5001133749611,,,,,,,,,,,,,,,,,,,,,,,,,,,,,,,,,,,,,,,,,,,,,,,,,,,,,,,,,,491.49504641699605,491.5043884170009,491.7013791669742,491.7013791669742,491.7013791669742,493.3994912499911,493.3994912499911,493.385783249978,,,,,,,,,,,,,,,,,,,,,,,,,,,,966749,001,2024-12-05_12h55.11.345,Test,2024.2.4,None,2024-12-05 12h55.22.535273 +0100,
10,150,30,65,None,28,28,0,,,,,,,,,,,,,,,,0,28,28,9,,,,,493.3994912499911,,,,,,,,,,,,,,,,,,,,,,,,,,,,,,,,,,,,,,,,,,,,,,,,,,,,,,,,,,493.3944434580044,493.40467674995307,493.6014425419853,493.6014425419853,493.6014425419853,495.3053601249703,495.3053601249703,495.2863717500004,,,,,,,,,,,,,,,,,,,,,,,,,,,,966749,001,2024-12-05_12h55.11.345,Test,2024.2.4,None,2024-12-05 12h55.22.535273 +0100,
2,150,0,38,None,29,29,0,,,,,,,,,,,,,,,,0,29,29,1,,,,,495.3053601249703,,,,,,,,,,,,,,,,,,,,,,,,,,,,,,,,,,,,,,,,,,,,,,,,,,,,,,,,,,495.30087691696826,495.3177743330016,495.500475207984,495.500475207984,495.5061855419772,497.1998468329548,497.1998468329548,497.1855708329822,,,,,,,,,,,,,,,,,,,,,,,,,,,,966749,001,2024-12-05_12h55.11.345,Test,2024.2.4,None,2024-12-05 12h55.22.535273 +0100,
22,150,120,22,None,30,30,0,,,,,,,,,,,,,,,,0,30,30,21,,,,,497.1998468329548,,,,,,,,,,,,,,,,,,,,,,,,,,,,,,,,,,,,,,,,,,,,,,,,,,,,,,,,,,497.1948430829798,497.2038270829944,497.4014784169849,497.4014784169849,497.4014784169849,499.1019269579556,499.1019269579556,499.08602712495485,,,,,,,,,,,,,,,,,,,,,,,,,,,,966749,001,2024-12-05_12h55.11.345,Test,2024.2.4,None,2024-12-05 12h55.22.535273 +0100,
5,150,0,17,None,31,31,0,,,,,,,,,,,,,,,,0,31,31,4,,,,,499.1019269579556,,,,,,,,,,,,,,,,,,,,,,,,,,,,,,,,,,,,,,,,,,,,,,,,,,,,,,,,,,499.09683895797934,499.1179983749753,499.30146995797986,499.30146995797986,499.30764249997446,501.0018761669635,501.0018761669635,500.98587895795936,,,,,,,,,,,,,,,,,,,,,,,,,,,,966749,001,2024-12-05_12h55.11.345,Test,2024.2.4,None,2024-12-05 12h55.22.535273 +0100,
31,150,180,16,None,32,32,0,,,,,,,,,,,,,,,,0,32,32,30,,,,,501.0018761669635,,,,,,,,,,,,,,,,,,,,,,,,,,,,,,,,,,,,,,,,,,,,,,,,,,,,,,,,,,500.9969276670017,501.01795362494886,501.2013505829964,501.2013505829964,501.2075607079896,502.9001134579885,502.9001134579885,502.88554516696604,,,,,,,,,,,,,,,,,,,,,,,,,,,,966749,001,2024-12-05_12h55.11.345,Test,2024.2.4,None,2024-12-05 12h55.22.535273 +0100,
35,150,180,24,None,33,33,0,,,,,,,,,,,,,,,,0,33,33,34,,,,,502.9001134579885,,,,,,,,,,,,,,,,,,,,,,,,,,,,,,,,,,,,,,,,,,,,,,,,,,,,,,,,,,502.89513708296,502.90437058295356,503.1015015830053,503.1015015830053,503.1015015830053,504.7997578329523,504.7997578329523,504.78547783294925,,,,,,,,,,,,,,,,,,,,,,,,,,,,966749,001,2024-12-05_12h55.11.345,Test,2024.2.4,None,2024-12-05 12h55.22.535273 +0100,
17,150,90,41,None,34,34,0,,,,,,,,,,,,,,,,0,34,34,16,,,,,504.7997578329523,,,,,,,,,,,,,,,,,,,,,,,,,,,,,,,,,,,,,,,,,,,,,,,,,,,,,,,,,,504.7947380829719,504.80377470795065,505.0015088749933,505.0015088749933,505.0015088749933,506.69068958295975,506.69068958295975,506.68552408297546,,,,,,,,,,,,,,,,,,,,,,,,,,,,966749,001,2024-12-05_12h55.11.345,Test,2024.2.4,None,2024-12-05 12h55.22.535273 +0100,
,,,,,,,,,,,,,,,,,,,,,,,,,,,,,,,,,,,,,,,,,,,,,,,,,,,,,,,,,,,,,,,,,,,,,,,,,,,,,,,,,,,,,,,,,,,,,,,,,506.68577554199146,506.7006637919694,506.7006637919694,508.80426725000143,space,2.0915130419889465,None,,,,,,,,,,,,,,,,,,,,,966749,001,2024-12-05_12h55.11.345,Test,2024.2.4,None,2024-12-05 12h55.22.535273 +0100,
6,150,30,43,None,0,0,0,False,,,,right,0.900751625013072,None,,,,,,,,,,,,,0,0,0,0,508.97058204194764,,,,,,,,,,,,,,,,,,,,,,,,,,,,,,,,,,,,,,,,,,,,,,,,,,,,,,,,,,,,,,,,,,,,,,,,,508.95767274999525,508.97058204194764,509.9680977499811,510.8015565419919,510.8015565419919,510.8015565419919,511.71206479199464,right,0.900751625013072,None,,,,,,,,,,,966749,001,2024-12-05_12h55.11.345,Test,2024.2.4,None,2024-12-05 12h55.22.535273 +0100,
70,150,180,67,None,1,1,0,True,,,,left,0.9326307500014082,None,,,,,,,,,,,,,0,1,1,1,511.72645279200515,,,,,,,,,,,,,,,,,,,,,,,,,,,,,,,,,,,,,,,,,,,,,,,,,,,,,,,,,,,,,,,,,,,,,,,,,511.71962004195666,511.72645279200515,512.7233917079866,513.7093724999577,513.7093724999577,513.7093724999577,514.6542344999616,left,0.9326307500014082,None,,,,,,,,,,,966749,001,2024-12-05_12h55.11.345,Test,2024.2.4,None,2024-12-05 12h55.22.535273 +0100,
53,150,90,8,None,2,2,0,True,,,,right,0.7835378340096213,None,,,,,,,,,,,,,0,2,2,2,514.6668762079789,,,,,,,,,,,,,,,,,,,,,,,,,,,,,,,,,,,,,,,,,,,,,,,,,,,,,,,,,,,,,,,,,,,,,,,,,514.6611915419926,514.6668762079789,515.6566374169779,516.6514249999891,516.6514249999891,516.6514249999891,517.4376782079926,right,0.7835378340096213,None,,,,,,,,,,,966749,001,2024-12-05_12h55.11.345,Test,2024.2.4,None,2024-12-05 12h55.22.535273 +0100,
17,150,90,41,None,3,3,0,False,,,,right,0.6590473749674857,None,,,,,,,,,,,,,0,3,3,3,517.4544076249585,,,,,,,,,,,,,,,,,,,,,,,,,,,,,,,,,,,,,,,,,,,,,,,,,,,,,,,,,,,,,,,,,,,,,,,,,517.4476305829594,517.4544076249585,518.4514240419958,519.4332488329965,519.4332488329965,519.4332488329965,520.1046156669618,right,0.6590473749674857,None,,,,,,,,,,,966749,001,2024-12-05_12h55.11.345,Test,2024.2.4,None,2024-12-05 12h55.22.535273 +0100,
39,150,0,49,None,4,4,0,True,,,,right,0.8022259589633904,None,,,,,,,,,,,,,0,4,4,4,520.1257766669733,,,,,,,,,,,,,,,,,,,,,,,,,,,,,,,,,,,,,,,,,,,,,,,,,,,,,,,,,,,,,,,,,,,,,,,,,520.1183372919913,520.1257766669733,521.1234141669702,522.1014502079925,522.1014502079925,522.1014502079925,522.910374041996,right,0.8022259589633904,None,,,,,,,,,,,966749,001,2024-12-05_12h55.11.345,Test,2024.2.4,None,2024-12-05 12h55.22.535273 +0100,
12,150,60,33,None,5,5,0,False,,,,right,2.0775449580396526,None,,,,,,,,,,,,,0,5,5,5,522.9272023749654,,,,,,,,,,,,,,,,,,,,,,,,,,,,,,,,,,,,,,,,,,,,,,,,,,,,,,,,,,,,,,,,,,,,,,,,,522.9209443329601,522.9272023749654,523.9229812919511,524.9086514170049,524.9086514170049,524.9086514170049,526.9934619169799,right,2.0775449580396526,None,,,,,,,,,,,966749,001,2024-12-05_12h55.11.345,Test,2024.2.4,None,2024-12-05 12h55.22.535273 +0100,
45,150,30,50,None,6,6,0,True,,,,left,1.371745957992971,None,,,,,,,,,,,,,0,6,6,6,527.0088511249633,,,,,,,,,,,,,,,,,,,,,,,,,,,,,,,,,,,,,,,,,,,,,,,,,,,,,,,,,,,,,,,,,,,,,,,,,527.0025484579965,527.0088511249633,528.0060659169685,528.9921064999653,528.9921064999653,528.9921064999653,530.3703262499766,left,1.371745957992971,None,,,,,,,,,,,966749,001,2024-12-05_12h55.11.345,Test,2024.2.4,None,2024-12-05 12h55.22.535273 +0100,
60,150,120,28,None,7,7,0,True,,,,left,1.1371537080267444,None,,,,,,,,,,,,,0,7,7,7,530.3864649999887,,,,,,,,,,,,,,,,,,,,,,,,,,,,,,,,,,,,,,,,,,,,,,,,,,,,,,,,,,,,,,,,,,,,,,,,,530.3802212500013,530.3864649999887,531.3847118329722,532.3679957499844,532.3679957499844,532.3679957499844,533.5095332499477,left,1.1371537080267444,None,,,,,,,,,,,966749,001,2024-12-05_12h55.11.345,Test,2024.2.4,None,2024-12-05 12h55.22.535273 +0100,
67,150,180,63,None,8,8,0,True,,,,right,0.9959688750095665,None,,,,,,,,,,,,,0,8,8,8,533.5242569999536,,,,,,,,,,,,,,,,,,,,,,,,,,,,,,,,,,,,,,,,,,,,,,,,,,,,,,,,,,,,,,,,,,,,,,,,,533.5177914999658,533.5242569999536,534.5179762499756,535.5096868329565,535.5096868329565,535.5096868329565,536.5095850829966,right,0.9959688750095665,None,,,,,,,,,,,966749,001,2024-12-05_12h55.11.345,Test,2024.2.4,None,2024-12-05 12h55.22.535273 +0100,
51,150,90,2,None,9,9,0,True,,,,left,0.9508684999891557,None,,,,,,,,,,,,,0,9,9,9,536.525931207987,,,,,,,,,,,,,,,,,,,,,,,,,,,,,,,,,,,,,,,,,,,,,,,,,,,,,,,,,,,,,,,,,,,,,,,,,536.5193079579622,536.525931207987,537.5228477499913,538.5087324579945,538.5087324579945,538.5087324579945,539.4705614579725,left,0.9508684999891557,None,,,,,,,,,,,966749,001,2024-12-05_12h55.11.345,Test,2024.2.4,None,2024-12-05 12h55.22.535273 +0100,
56,150,120,70,None,10,10,0,True,,,,left,1.0893991669872776,None,,,,,,,,,,,,,0,10,10,10,539.4864010000019,,,,,,,,,,,,,,,,,,,,,,,,,,,,,,,,,,,,,,,,,,,,,,,,,,,,,,,,,,,,,,,,,,,,,,,,,539.4799309999798,539.4864010000019,540.4846897079842,541.4682139999932,541.4682139999932,541.4682139999932,542.5708991669817,left,1.0893991669872776,None,,,,,,,,,,,966749,001,2024-12-05_12h55.11.345,Test,2024.2.4,None,2024-12-05 12h55.22.535273 +0100,
20,150,90,27,None,11,11,0,False,,,,right,1.0206305830506608,None,,,,,,,,,,,,,0,11,11,11,542.5851369169541,,,,,,,,,,,,,,,,,,,,,,,,,,,,,,,,,,,,,,,,,,,,,,,,,,,,,,,,,,,,,,,,,,,,,,,,,542.5783412079909,542.5851369169541,543.5727396250004,544.5682652919786,544.5682652919786,544.5682652919786,545.5934385419823,right,1.0206305830506608,None,,,,,,,,,,,966749,001,2024-12-05_12h55.11.345,Test,2024.2.4,None,2024-12-05 12h55.22.535273 +0100,
8,150,30,11,None,12,12,0,False,,,,right,0.7883121670456603,None,,,,,,,,,,,,,0,12,12,12,545.6142647919478,,,,,,,,,,,,,,,,,,,,,,,,,,,,,,,,,,,,,,,,,,,,,,,,,,,,,,,,,,,,,,,,,,,,,,,,,545.6075776249636,545.6142647919478,546.6061464579543,547.593703999999,547.593703999999,547.593703999999,548.3866789999884,right,0.7883121670456603,None,,,,,,,,,,,966749,001,2024-12-05_12h55.11.345,Test,2024.2.4,None,2024-12-05 12h55.22.535273 +0100,
3,150,0,13,None,13,13,0,False,,,,left,1.1531814589980058,None,,,,,,,,,,,,,0,13,13,13,548.4022917919792,,,,,,,,,,,,,,,,,,,,,,,,,,,,,,,,,,,,,,,,,,,,,,,,,,,,,,,,,,,,,,,,,,,,,,,,,548.3964744579862,548.4022917919792,549.4013932079542,550.3841411249596,550.3841411249596,550.3841411249596,551.5447242079535,left,1.1531814589980058,None,,,,,,,,,,,966749,001,2024-12-05_12h55.11.345,Test,2024.2.4,None,2024-12-05 12h55.22.535273 +0100,
19,150,90,48,None,14,14,0,False,,,,right,0.8980672079487704,None,,,,,,,,,,,,,0,14,14,14,551.5643446669565,,,,,,,,,,,,,,,,,,,,,,,,,,,,,,,,,,,,,,,,,,,,,,,,,,,,,,,,,,,,,,,,,,,,,,,,,551.5573539579636,551.5643446669565,552.5561667499715,553.5419334579492,553.5419334579492,553.5419334579492,554.4426805829862,right,0.8980672079487704,None,,,,,,,,,,,966749,001,2024-12-05_12h55.11.345,Test,2024.2.4,None,2024-12-05 12h55.22.535273 +0100,
62,150,150,66,None,15,15,0,True,,,,left,0.7768474579788744,None,,,,,,,,,,,,,0,15,15,15,554.4568668749998,,,,,,,,,,,,,,,,,,,,,,,,,,,,,,,,,,,,,,,,,,,,,,,,,,,,,,,,,,,,,,,,,,,,,,,,,554.4504725830047,554.4568668749998,555.4513760829577,556.4420010829926,556.4420010829926,556.4420010829926,557.2219583329861,left,0.7768474579788744,None,,,,,,,,,,,966749,001,2024-12-05_12h55.11.345,Test,2024.2.4,None,2024-12-05 12h55.22.535273 +0100,
63,150,150,52,None,16,16,0,True,,,,right,1.179078708984889,None,,,,,,,,,,,,,0,16,16,16,557.2378022499615,,,,,,,,,,,,,,,,,,,,,,,,,,,,,,,,,,,,,,,,,,,,,,,,,,,,,,,,,,,,,,,,,,,,,,,,,557.2317156249774,557.2378022499615,558.2346094999812,559.2180779579794,559.2180779579794,559.2180779579794,560.403601582977,right,1.179078708984889,None,,,,,,,,,,,966749,001,2024-12-05_12h55.11.345,Test,2024.2.4,None,2024-12-05 12h55.22.535273 +0100,
68,150,180,31,None,17,17,0,True,,,,left,1.110913249955047,None,,,,,,,,,,,,,0,17,17,17,560.4195190419559,,,,,,,,,,,,,,,,,,,,,,,,,,,,,,,,,,,,,,,,,,,,,,,,,,,,,,,,,,,,,,,,,,,,,,,,,560.4129809999722,560.4195190419559,561.4180534579791,562.4013512919773,562.4013512919773,562.4013512919773,563.5208220829954,left,1.110913249955047,None,,,,,,,,,,,966749,001,2024-12-05_12h55.11.345,Test,2024.2.4,None,2024-12-05 12h55.22.535273 +0100,
48,150,60,30,None,18,18,0,True,,,,right,0.8712485419819131,None,,,,,,,,,,,,,0,18,18,18,563.5372924169642,,,,,,,,,,,,,,,,,,,,,,,,,,,,,,,,,,,,,,,,,,,,,,,,,,,,,,,,,,,,,,,,,,,,,,,,,563.5306945829652,563.5372924169642,564.5347186669824,565.5181610829895,565.5181610829895,565.5181610829895,566.3928069579997,right,0.8712485419819131,None,,,,,,,,,,,966749,001,2024-12-05_12h55.11.345,Test,2024.2.4,None,2024-12-05 12h55.22.535273 +0100,
55,150,90,62,None,19,19,0,True,,,,left,1.1417455000337213,None,,,,,,,,,,,,,0,19,19,19,566.4138237079605,,,,,,,,,,,,,,,,,,,,,,,,,,,,,,,,,,,,,,,,,,,,,,,,,,,,,,,,,,,,,,,,,,,,,,,,,566.4073445419781,566.4138237079605,567.4060326669714,568.3942547499901,568.3942547499901,568.3942547499901,569.5429287919542,left,1.1417455000337213,None,,,,,,,,,,,966749,001,2024-12-05_12h55.11.345,Test,2024.2.4,None,2024-12-05 12h55.22.535273 +0100,
59,150,120,69,None,20,20,0,True,,,,left,1.2758597500505857,None,,,,,,,,,,,,,0,20,20,20,569.558091749961,,,,,,,,,,,,,,,,,,,,,,,,,,,,,,,,,,,,,,,,,,,,,,,,,,,,,,,,,,,,,,,,,,,,,,,,,569.5516997919767,569.558091749961,570.556665082986,571.5428474579821,571.5428474579821,571.5428474579821,572.8212063329993,left,1.2758597500505857,None,,,,,,,,,,,966749,001,2024-12-05_12h55.11.345,Test,2024.2.4,None,2024-12-05 12h55.22.535273 +0100,
25,150,120,39,None,21,21,0,False,,,,left,1.501734999998007,None,,,,,,,,,,,,,0,21,21,21,572.8350245829788,,,,,,,,,,,,,,,,,,,,,,,,,,,,,,,,,,,,,,,,,,,,,,,,,,,,,,,,,,,,,,,,,,,,,,,,,572.8288094169693,572.8350245829788,573.8228226249921,574.8180989999673,574.8180989999673,574.8180989999673,576.3260404999601,left,1.501734999998007,None,,,,,,,,,,,966749,001,2024-12-05_12h55.11.345,Test,2024.2.4,None,2024-12-05 12h55.22.535273 +0100,
10,150,30,65,None,22,22,0,False,,,,right,1.0105855420115404,None,,,,,,,,,,,,,0,22,22,22,576.3391113329562,,,,,,,,,,,,,,,,,,,,,,,,,,,,,,,,,,,,,,,,,,,,,,,,,,,,,,,,,,,,,,,,,,,,,,,,,576.333017166995,576.3391113329562,577.3347241249867,578.3253048749757,578.3253048749757,578.3253048749757,579.3493289999897,right,1.0105855420115404,None,,,,,,,,,,,966749,001,2024-12-05_12h55.11.345,Test,2024.2.4,None,2024-12-05 12h55.22.535273 +0100,
36,150,0,10,None,23,23,0,True,,,,left,1.2162920410046354,None,,,,,,,,,,,,,0,23,23,23,579.3645714999875,,,,,,,,,,,,,,,,,,,,,,,,,,,,,,,,,,,,,,,,,,,,,,,,,,,,,,,,,,,,,,,,,,,,,,,,,579.3602211249527,579.3645714999875,580.356776791974,581.34241212497,581.34241212497,581.34241212497,582.5855175419711,left,1.2162920410046354,None,,,,,,,,,,,966749,001,2024-12-05_12h55.11.345,Test,2024.2.4,None,2024-12-05 12h55.22.535273 +0100,
57,150,120,40,None,24,24,0,True,,,,left,1.4761748750461265,None,,,,,,,,,,,,,0,24,24,24,582.6178787499666,,,,,,,,,,,,,,,,,,,,,,,,,,,,,,,,,,,,,,,,,,,,,,,,,,,,,,,,,,,,,,,,,,,,,,,,,582.5963674169616,582.6178787499666,583.6061992499745,584.5757667499711,584.5757667499711,584.5757667499711,586.0552431669785,left,1.4761748750461265,None,,,,,,,,,,,966749,001,2024-12-05_12h55.11.345,Test,2024.2.4,None,2024-12-05 12h55.22.535273 +0100,
47,150,60,12,None,25,25,0,True,,,,left,1.2003713750164025,None,,,,,,,,,,,,,0,25,25,25,586.0723204169772,,,,,,,,,,,,,,,,,,,,,,,,,,,,,,,,,,,,,,,,,,,,,,,,,,,,,,,,,,,,,,,,,,,,,,,,,586.0656604999676,586.0723204169772,587.0679663749761,588.0515503749484,588.0515503749484,588.0515503749484,589.2545422919793,left,1.2003713750164025,None,,,,,,,,,,,966749,001,2024-12-05_12h55.11.345,Test,2024.2.4,None,2024-12-05 12h55.22.535273 +0100,
29,150,150,18,None,26,26,0,False,,,,right,1.5919055420090444,None,,,,,,,,,,,,,0,26,26,26,589.2717258329503,,,,,,,,,,,,,,,,,,,,,,,,,,,,,,,,,,,,,,,,,,,,,,,,,,,,,,,,,,,,,,,,,,,,,,,,,589.2653591249837,589.2717258329503,590.2679211669602,591.2518243329832,591.2518243329832,591.2518243329832,592.8541026669554,right,1.5919055420090444,None,,,,,,,,,,,966749,001,2024-12-05_12h55.11.345,Test,2024.2.4,None,2024-12-05 12h55.22.535273 +0100,
54,150,90,3,None,27,27,0,True,,,,right,1.2004781670402735,None,,,,,,,,,,,,,0,27,27,27,592.8706632499816,,,,,,,,,,,,,,,,,,,,,,,,,,,,,,,,,,,,,,,,,,,,,,,,,,,,,,,,,,,,,,,,,,,,,,,,,592.8640333749936,592.8706632499816,593.8680716669769,594.8514087919611,594.8514087919611,594.8514087919611,596.0547824999667,right,1.2004781670402735,None,,,,,,,,,,,966749,001,2024-12-05_12h55.11.345,Test,2024.2.4,None,2024-12-05 12h55.22.535273 +0100,
23,150,120,36,None,28,28,0,False,,,,left,1.1185525840264745,None,,,,,,,,,,,,,0,28,28,28,596.070396916999,,,,,,,,,,,,,,,,,,,,,,,,,,,,,,,,,,,,,,,,,,,,,,,,,,,,,,,,,,,,,,,,,,,,,,,,,596.0635016669985,596.070396916999,597.0681332079694,598.0514666669769,598.0514666669769,598.0514666669769,599.1765837919666,left,1.1185525840264745,None,,,,,,,,,,,966749,001,2024-12-05_12h55.11.345,Test,2024.2.4,None,2024-12-05 12h55.22.535273 +0100,
4,150,0,58,None,29,29,0,False,,,,right,1.3203779160394333,None,,,,,,,,,,,,,0,29,29,29,599.1919784169877,,,,,,,,,,,,,,,,,,,,,,,,,,,,,,,,,,,,,,,,,,,,,,,,,,,,,,,,,,,,,,,,,,,,,,,,,599.1850211669807,599.1919784169877,600.1900728750043,601.1752873749938,601.1752873749938,601.1752873749938,602.5035968329757,right,1.3203779160394333,None,,,,,,,,,,,966749,001,2024-12-05_12h55.11.345,Test,2024.2.4,None,2024-12-05 12h55.22.535273 +0100,
27,150,150,60,None,30,30,0,False,,,,right,1.0004901249776594,None,,,,,,,,,,,,,0,30,30,30,602.5199610829586,,,,,,,,,,,,,,,,,,,,,,,,,,,,,,,,,,,,,,,,,,,,,,,,,,,,,,,,,,,,,,,,,,,,,,,,,602.5138831670047,602.5199610829586,603.5181589169661,604.5015898330021,604.5015898330021,604.5015898330021,605.5127888330026,right,1.0004901249776594,None,,,,,,,,,,,966749,001,2024-12-05_12h55.11.345,Test,2024.2.4,None,2024-12-05 12h55.22.535273 +0100,
24,150,120,45,None,31,31,0,False,,,,right,0.951851167017594,None,,,,,,,,,,,,,0,31,31,31,605.5246772499522,,,,,,,,,,,,,,,,,,,,,,,,,,,,,,,,,,,,,,,,,,,,,,,,,,,,,,,,,,,,,,,,,,,,,,,,,605.5199608329567,605.5246772499522,606.5180146669736,607.5085703749792,607.5085703749792,607.5085703749792,608.4692405419773,right,0.951851167017594,None,,,,,,,,,,,966749,001,2024-12-05_12h55.11.345,Test,2024.2.4,None,2024-12-05 12h55.22.535273 +0100,
7,150,30,44,None,32,32,0,False,,,,right,1.361034958041273,None,,,,,,,,,,,,,0,32,32,32,608.4825014999951,,,,,,,,,,,,,,,,,,,,,,,,,,,,,,,,,,,,,,,,,,,,,,,,,,,,,,,,,,,,,,,,,,,,,,,,,608.4766677079606,608.4825014999951,609.4737598749925,610.4680958749959,610.4680958749959,610.4680958749959,611.8368851669948,right,1.361034958041273,None,,,,,,,,,,,966749,001,2024-12-05_12h55.11.345,Test,2024.2.4,None,2024-12-05 12h55.22.535273 +0100,
31,150,180,16,None,33,33,0,False,,,,right,2.2354937499621883,None,,,,,,,,,,,,,0,33,33,33,611.8531556249945,,,,,,,,,,,,,,,,,,,,,,,,,,,,,,,,,,,,,,,,,,,,,,,,,,,,,,,,,,,,,,,,,,,,,,,,,611.8463107499992,611.8531556249945,612.8513805419789,613.8347027080017,613.8347027080017,613.8347027080017,616.078343332978,right,2.2354937499621883,None,,,,,,,,,,,966749,001,2024-12-05_12h55.11.345,Test,2024.2.4,None,2024-12-05 12h55.22.535273 +0100,
2,150,0,38,None,34,34,0,False,,,,left,1.1437303330167197,None,,,,,,,,,,,,,0,34,34,34,616.0957449579728,,,,,,,,,,,,,,,,,,,,,,,,,,,,,,,,,,,,,,,,,,,,,,,,,,,,,,,,,,,,,,,,,,,,,,,,,616.089000832988,616.0957449579728,617.0893617499969,618.0756603329792,618.0756603329792,618.0756603329792,619.2270082079922,left,1.1437303330167197,None,,,,,,,,,,,966749,001,2024-12-05_12h55.11.345,Test,2024.2.4,None,2024-12-05 12h55.22.535273 +0100,
33,150,180,23,None,35,35,0,False,,,,right,1.5059642089763656,None,,,,,,,,,,,,,0,35,35,35,619.2434923329856,,,,,,,,,,,,,,,,,,,,,,,,,,,,,,,,,,,,,,,,,,,,,,,,,,,,,,,,,,,,,,,,,,,,,,,,,619.2364811669686,619.2434923329856,620.2399644999532,621.2254249999532,621.2254249999532,621.2254249999532,622.737451916968,right,1.5059642089763656,None,,,,,,,,,,,966749,001,2024-12-05_12h55.11.345,Test,2024.2.4,None,2024-12-05 12h55.22.535273 +0100,
43,150,30,54,None,36,36,0,True,,,,left,0.6377099160454236,None,,,,,,,,,,,,,0,36,36,36,622.7532890829607,,,,,,,,,,,,,,,,,,,,,,,,,,,,,,,,,,,,,,,,,,,,,,,,,,,,,,,,,,,,,,,,,,,,,,,,,622.7469330419553,622.7532890829607,623.768113832979,624.7349147079512,624.7349147079512,624.7349147079512,625.3768514999538,left,0.6377099160454236,None,,,,,,,,,,,966749,001,2024-12-05_12h55.11.345,Test,2024.2.4,None,2024-12-05 12h55.22.535273 +0100,
22,150,120,22,None,37,37,0,False,,,,right,0.7763295420445502,None,,,,,,,,,,,,,0,37,37,37,625.392079207988,,,,,,,,,,,,,,,,,,,,,,,,,,,,,,,,,,,,,,,,,,,,,,,,,,,,,,,,,,,,,,,,,,,,,,,,,625.3849581249524,625.392079207988,626.3898193329806,627.3756928749499,627.3756928749499,627.3756928749499,628.1662587919855,right,0.7763295420445502,None,,,,,,,,,,,966749,001,2024-12-05_12h55.11.345,Test,2024.2.4,None,2024-12-05 12h55.22.535273 +0100,
26,150,150,25,None,38,38,0,False,,,,right,0.8934526669909246,None,,,,,,,,,,,,,0,38,38,38,628.1811722499551,,,,,,,,,,,,,,,,,,,,,,,,,,,,,,,,,,,,,,,,,,,,,,,,,,,,,,,,,,,,,,,,,,,,,,,,,628.176398666983,628.1811722499551,629.1728697499493,630.1594046669779,630.1594046669779,630.1594046669779,631.0605390829733,right,0.8934526669909246,None,,,,,,,,,,,966749,001,2024-12-05_12h55.11.345,Test,2024.2.4,None,2024-12-05 12h55.22.535273 +0100,
69,150,180,1,None,39,39,0,True,,,,left,0.8182131249923259,None,,,,,,,,,,,,,0,39,39,39,631.0786409580032,,,,,,,,,,,,,,,,,,,,,,,,,,,,,,,,,,,,,,,,,,,,,,,,,,,,,,,,,,,,,,,,,,,,,,,,,631.0717898329603,631.0786409580032,632.0733525419491,633.0595752919908,633.0595752919908,633.0595752919908,633.8871395829483,left,0.8182131249923259,None,,,,,,,,,,,966749,001,2024-12-05_12h55.11.345,Test,2024.2.4,None,2024-12-05 12h55.22.535273 +0100,
28,150,150,7,None,40,40,0,False,,,,right,1.5122466669999994,None,,,,,,,,,,,,,0,40,40,40,633.9040156249539,,,,,,,,,,,,,,,,,,,,,,,,,,,,,,,,,,,,,,,,,,,,,,,,,,,,,,,,,,,,,,,,,,,,,,,,,633.8978692499804,633.9040156249539,634.9013594169519,635.8836086249794,635.8836086249794,635.8836086249794,637.4037305419915,right,1.5122466669999994,None,,,,,,,,,,,966749,001,2024-12-05_12h55.11.345,Test,2024.2.4,None,2024-12-05 12h55.22.535273 +0100,
66,150,180,6,None,41,41,0,True,,,,right,1.4420344999525696,None,,,,,,,,,,,,,0,41,41,41,637.4201850419631,,,,,,,,,,,,,,,,,,,,,,,,,,,,,,,,,,,,,,,,,,,,,,,,,,,,,,,,,,,,,,,,,,,,,,,,,637.4128801249899,637.4201850419631,638.417791749991,639.4011233749916,639.4011233749916,639.4011233749916,640.8543692499516,right,1.4420344999525696,None,,,,,,,,,,,966749,001,2024-12-05_12h55.11.345,Test,2024.2.4,None,2024-12-05 12h55.22.535273 +0100,
46,150,60,42,None,42,42,0,True,,,,left,1.2025644169771113,None,,,,,,,,,,,,,0,42,42,42,640.8768014579546,,,,,,,,,,,,,,,,,,,,,,,,,,,,,,,,,,,,,,,,,,,,,,,,,,,,,,,,,,,,,,,,,,,,,,,,,640.8689267080044,640.8768014579546,641.8735317919636,642.8515220419504,642.8515220419504,642.8515220419504,644.0601757919649,left,1.2025644169771113,None,,,,,,,,,,,966749,001,2024-12-05_12h55.11.345,Test,2024.2.4,None,2024-12-05 12h55.22.535273 +0100,
49,150,60,9,None,43,43,0,True,,,,left,0.7989129580091685,None,,,,,,,,,,,,,0,43,43,43,644.0769013329991,,,,,,,,,,,,,,,,,,,,,,,,,,,,,,,,,,,,,,,,,,,,,,,,,,,,,,,,,,,,,,,,,,,,,,,,,644.0702107499819,644.0769013329991,645.0728377919877,646.0586523329839,646.0586523329839,646.0586523329839,646.8599430829636,left,0.7989129580091685,None,,,,,,,,,,,966749,001,2024-12-05_12h55.11.345,Test,2024.2.4,None,2024-12-05 12h55.22.535273 +0100,
5,150,0,17,None,44,44,0,False,,,,left,0.8285254160291515,None,,,,,,,,,,,,,0,44,44,44,646.8761529579642,,,,,,,,,,,,,,,,,,,,,,,,,,,,,,,,,,,,,,,,,,,,,,,,,,,,,,,,,,,,,,,,,,,,,,,,,646.8699377079611,646.8761529579642,647.8733791669947,648.8588469169918,648.8588469169918,648.8588469169918,649.6926964999875,left,0.8285254160291515,None,,,,,,,,,,,966749,001,2024-12-05_12h55.11.345,Test,2024.2.4,None,2024-12-05 12h55.22.535273 +0100,
37,150,0,32,None,45,45,0,True,,,,left,1.5089112499845214,None,,,,,,,,,,,,,0,45,45,45,649.707681083004,,,,,,,,,,,,,,,,,,,,,,,,,,,,,,,,,,,,,,,,,,,,,,,,,,,,,,,,,,,,,,,,,,,,,,,,,649.7015466669691,649.707681083004,650.7013339169789,651.6928512500017,651.6928512500017,651.6928512500017,653.2047930829576,left,1.5089112499845214,None,,,,,,,,,,,966749,001,2024-12-05_12h55.11.345,Test,2024.2.4,None,2024-12-05 12h55.22.535273 +0100,
14,150,60,47,None,46,46,0,False,,,,right,1.29556566698011,None,,,,,,,,,,,,,0,46,46,46,653.2211554169771,,,,,,,,,,,,,,,,,,,,,,,,,,,,,,,,,,,,,,,,,,,,,,,,,,,,,,,,,,,,,,,,,,,,,,,,,653.2154481249745,653.2211554169771,654.2178576669539,655.2016045829514,655.2016045829514,655.2016045829514,656.5038340419997,right,1.29556566698011,None,,,,,,,,,,,966749,001,2024-12-05_12h55.11.345,Test,2024.2.4,None,2024-12-05 12h55.22.535273 +0100,
52,150,90,19,None,47,47,0,True,,,,right,1.1741341250017285,None,,,,,,,,,,,,,0,47,47,47,656.5202624579542,,,,,,,,,,,,,,,,,,,,,,,,,,,,,,,,,,,,,,,,,,,,,,,,,,,,,,,,,,,,,,,,,,,,,,,,,656.5133451669826,656.5202624579542,657.5180135419942,658.5016291249776,658.5016291249776,658.5016291249776,659.6868274169974,right,1.1741341250017285,None,,,,,,,,,,,966749,001,2024-12-05_12h55.11.345,Test,2024.2.4,None,2024-12-05 12h55.22.535273 +0100,
30,150,150,37,None,48,48,0,False,,,,left,1.3236666659940965,None,,,,,,,,,,,,,0,48,48,48,659.7035781669547,,,,,,,,,,,,,,,,,,,,,,,,,,,,,,,,,,,,,,,,,,,,,,,,,,,,,,,,,,,,,,,,,,,,,,,,,659.6961254169582,659.7035781669547,660.7013454169501,661.6847577499575,661.6847577499575,661.6847577499575,663.0109082079725,left,1.3236666659940965,None,,,,,,,,,,,966749,001,2024-12-05_12h55.11.345,Test,2024.2.4,None,2024-12-05 12h55.22.535273 +0100,
21,150,120,29,None,49,49,0,False,,,,right,0.7557371250004508,None,,,,,,,,,,,,,0,49,49,49,663.0272340420051,,,,,,,,,,,,,,,,,,,,,,,,,,,,,,,,,,,,,,,,,,,,,,,,,,,,,,,,,,,,,,,,,,,,,,,,,663.0206696249661,663.0272340420051,664.0225978329545,665.0078274999978,665.0078274999978,665.0078274999978,665.7701594169484,right,0.7557371250004508,None,,,,,,,,,,,966749,001,2024-12-05_12h55.11.345,Test,2024.2.4,None,2024-12-05 12h55.22.535273 +0100,
42,150,30,55,None,50,50,0,True,,,,left,0.9967660830006935,None,,,,,,,,,,,,,0,50,50,50,665.7867498749983,,,,,,,,,,,,,,,,,,,,,,,,,,,,,,,,,,,,,,,,,,,,,,,,,,,,,,,,,,,,,,,,,,,,,,,,,665.7809023750015,665.7867498749983,666.7847629999742,667.76811145799,667.76811145799,667.76811145799,668.7685680419672,left,0.9967660830006935,None,,,,,,,,,,,966749,001,2024-12-05_12h55.11.345,Test,2024.2.4,None,2024-12-05 12h55.22.535273 +0100,
9,150,30,15,None,51,51,0,False,,,,left,0.6088330420316197,None,,,,,,,,,,,,,0,51,51,51,668.778886541957,,,,,,,,,,,,,,,,,,,,,,,,,,,,,,,,,,,,,,,,,,,,,,,,,,,,,,,,,,,,,,,,,,,,,,,,,668.7736888329964,668.778886541957,669.7730138329789,670.7595627079718,670.7595627079718,670.7595627079718,671.3711216249503,left,0.6088330420316197,None,,,,,,,,,,,966749,001,2024-12-05_12h55.11.345,Test,2024.2.4,None,2024-12-05 12h55.22.535273 +0100,
64,150,150,51,None,52,52,0,True,,,,left,0.7214159169816412,None,,,,,,,,,,,,,0,52,52,52,671.387660666951,,,,,,,,,,,,,,,,,,,,,,,,,,,,,,,,,,,,,,,,,,,,,,,,,,,,,,,,,,,,,,,,,,,,,,,,,671.380846541957,671.387660666951,672.3846944579855,673.3680732079665,673.3680732079665,673.3680732079665,674.0929193329648,left,0.7214159169816412,None,,,,,,,,,,,966749,001,2024-12-05_12h55.11.345,Test,2024.2.4,None,2024-12-05 12h55.22.535273 +0100,
44,150,30,26,None,53,53,0,True,,,,right,0.6728547079837881,None,,,,,,,,,,,,,0,53,53,53,674.1087283329689,,,,,,,,,,,,,,,,,,,,,,,,,,,,,,,,,,,,,,,,,,,,,,,,,,,,,,,,,,,,,,,,,,,,,,,,,674.1024597499636,674.1087283329689,675.1062444999698,676.0916100000031,676.0916100000031,676.0916100000031,676.7704619999859,right,0.6728547079837881,None,,,,,,,,,,,966749,001,2024-12-05_12h55.11.345,Test,2024.2.4,None,2024-12-05 12h55.22.535273 +0100,
35,150,180,24,None,54,54,0,False,,,,right,0.7915781660121866,None,,,,,,,,,,,,,0,54,54,54,676.7862030419637,,,,,,,,,,,,,,,,,,,,,,,,,,,,,,,,,,,,,,,,,,,,,,,,,,,,,,,,,,,,,,,,,,,,,,,,,676.7792033329606,676.7862030419637,677.7847062919755,678.7681270419853,678.7681270419853,678.7681270419853,679.5702171669691,right,0.7915781660121866,None,,,,,,,,,,,966749,001,2024-12-05_12h55.11.345,Test,2024.2.4,None,2024-12-05 12h55.22.535273 +0100,
34,150,180,61,None,55,55,0,False,,,,left,1.7872683750465512,None,,,,,,,,,,,,,0,55,55,55,679.5860408750013,,,,,,,,,,,,,,,,,,,,,,,,,,,,,,,,,,,,,,,,,,,,,,,,,,,,,,,,,,,,,,,,,,,,,,,,,679.579821207968,679.5860408750013,680.5846686669975,681.5680549579556,681.5680549579556,681.5680549579556,683.3601694579702,left,1.7872683750465512,None,,,,,,,,,,,966749,001,2024-12-05_12h55.11.345,Test,2024.2.4,None,2024-12-05 12h55.22.535273 +0100,
41,150,30,64,None,56,56,0,True,,,,right,1.4605001249583438,None,,,,,,,,,,,,,0,56,56,56,683.3756868329947,,,,,,,,,,,,,,,,,,,,,,,,,,,,,,,,,,,,,,,,,,,,,,,,,,,,,,,,,,,,,,,,,,,,,,,,,683.3697118749842,683.3756868329947,684.3733505829587,685.3585273329518,685.3585273329518,685.3585273329518,686.8311202499899,right,1.4605001249583438,None,,,,,,,,,,,966749,001,2024-12-05_12h55.11.345,Test,2024.2.4,None,2024-12-05 12h55.22.535273 +0100,
16,150,90,14,None,57,57,0,False,,,,left,0.9973330410430208,None,,,,,,,,,,,,,0,57,57,57,686.8464430829627,,,,,,,,,,,,,,,,,,,,,,,,,,,,,,,,,,,,,,,,,,,,,,,,,,,,,,,,,,,,,,,,,,,,,,,,,686.8411056249752,686.8464430829627,687.8395760419662,688.8253814579803,688.8253814579803,688.8253814579803,689.8266662919777,left,0.9973330410430208,None,,,,,,,,,,,966749,001,2024-12-05_12h55.11.345,Test,2024.2.4,None,2024-12-05 12h55.22.535273 +0100,
40,150,0,59,None,58,58,0,True,,,,left,1.084374249971006,None,,,,,,,,,,,,,0,58,58,58,689.8440565419733,,,,,,,,,,,,,,,,,,,,,,,,,,,,,,,,,,,,,,,,,,,,,,,,,,,,,,,,,,,,,,,,,,,,,,,,,689.8369512920035,689.8440565419733,690.840265167004,691.8249824579689,691.8249824579689,691.8249824579689,692.9202777079772,left,1.084374249971006,None,,,,,,,,,,,966749,001,2024-12-05_12h55.11.345,Test,2024.2.4,None,2024-12-05 12h55.22.535273 +0100,
11,150,60,34,None,59,59,0,False,,,,left,0.6779022920527495,None,,,,,,,,,,,,,0,59,59,59,692.9368940419517,,,,,,,,,,,,,,,,,,,,,,,,,,,,,,,,,,,,,,,,,,,,,,,,,,,,,,,,,,,,,,,,,,,,,,,,,692.9308053329587,692.9368940419517,693.9346678750007,694.9180913329474,694.9180913329474,694.9180913329474,695.6034724169876,left,0.6779022920527495,None,,,,,,,,,,,966749,001,2024-12-05_12h55.11.345,Test,2024.2.4,None,2024-12-05 12h55.22.535273 +0100,
50,150,60,56,None,60,60,0,True,,,,left,0.6971868330147117,None,,,,,,,,,,,,,0,60,60,60,695.6171196670039,,,,,,,,,,,,,,,,,,,,,,,,,,,,,,,,,,,,,,,,,,,,,,,,,,,,,,,,,,,,,,,,,,,,,,,,,695.6112242079689,695.6171196670039,696.6066346250009,697.6015436669695,697.6015436669695,697.6015436669695,698.3035076669767,left,0.6971868330147117,None,,,,,,,,,,,966749,001,2024-12-05_12h55.11.345,Test,2024.2.4,None,2024-12-05 12h55.22.535273 +0100,
65,150,150,57,None,61,61,0,True,,,,left,1.1741613339981996,None,,,,,,,,,,,,,0,61,61,61,698.3197219169815,,,,,,,,,,,,,,,,,,,,,,,,,,,,,,,,,,,,,,,,,,,,,,,,,,,,,,,,,,,,,,,,,,,,,,,,,698.3134292920004,698.3197219169815,699.3179385419935,700.3015433749533,700.3015433749533,700.3015433749533,701.4869995829649,left,1.1741613339981996,None,,,,,,,,,,,966749,001,2024-12-05_12h55.11.345,Test,2024.2.4,None,2024-12-05 12h55.22.535273 +0100,
1,150,0,4,None,62,62,0,False,,,,left,1.1335691660060547,None,,,,,,,,,,,,,0,62,62,62,701.50418691698,,,,,,,,,,,,,,,,,,,,,,,,,,,,,,,,,,,,,,,,,,,,,,,,,,,,,,,,,,,,,,,,,,,,,,,,,701.4969053329551,701.50418691698,702.5012799169635,703.4847995829768,703.4847995829768,703.4847995829768,704.621080916957,left,1.1335691660060547,None,,,,,,,,,,,966749,001,2024-12-05_12h55.11.345,Test,2024.2.4,None,2024-12-05 12h55.22.535273 +0100,
15,150,60,53,None,63,63,0,False,,,,right,1.1670509169925936,None,,,,,,,,,,,,,0,63,63,63,704.6366544579505,,,,,,,,,,,,,,,,,,,,,,,,,,,,,,,,,,,,,,,,,,,,,,,,,,,,,,,,,,,,,,,,,,,,,,,,,704.6304337919573,704.6366544579505,705.6346145829884,706.6180543329683,706.6180543329683,706.6180543329683,707.7880012919777,right,1.1670509169925936,None,,,,,,,,,,,966749,001,2024-12-05_12h55.11.345,Test,2024.2.4,None,2024-12-05 12h55.22.535273 +0100,
38,150,0,68,None,64,64,0,True,,,,left,1.2440279579604976,None,,,,,,,,,,,,,0,64,64,64,707.8035320829949,,,,,,,,,,,,,,,,,,,,,,,,,,,,,,,,,,,,,,,,,,,,,,,,,,,,,,,,,,,,,,,,,,,,,,,,,707.7965369999874,707.8035320829949,708.8012972919969,709.7848991249921,709.7848991249921,709.7848991249921,711.0369621249847,left,1.2440279579604976,None,,,,,,,,,,,966749,001,2024-12-05_12h55.11.345,Test,2024.2.4,None,2024-12-05 12h55.22.535273 +0100,
58,150,120,20,None,65,65,0,True,,,,left,1.0881348330294713,None,,,,,,,,,,,,,0,65,65,65,711.0525835419539,,,,,,,,,,,,,,,,,,,,,,,,,,,,,,,,,,,,,,,,,,,,,,,,,,,,,,,,,,,,,,,,,,,,,,,,,711.0464388749679,711.0525835419539,712.0513930829475,713.0348483749549,713.0348483749549,713.0348483749549,714.1264117919491,left,1.0881348330294713,None,,,,,,,,,,,966749,001,2024-12-05_12h55.11.345,Test,2024.2.4,None,2024-12-05 12h55.22.535273 +0100,
32,150,180,35,None,66,66,0,False,,,,right,1.1755819999962114,None,,,,,,,,,,,,,0,66,66,66,714.141923416988,,,,,,,,,,,,,,,,,,,,,,,,,,,,,,,,,,,,,,,,,,,,,,,,,,,,,,,,,,,,,,,,,,,,,,,,,714.1352673329529,714.141923416988,715.1400179169723,716.1261824169778,716.1261824169778,716.1261824169778,717.3045420419658,right,1.1755819999962114,None,,,,,,,,,,,966749,001,2024-12-05_12h55.11.345,Test,2024.2.4,None,2024-12-05 12h55.22.535273 +0100,
61,150,150,21,None,67,67,0,True,,,,left,3.2333853330346756,None,,,,,,,,,,,,,0,67,67,67,717.32088866696,,,,,,,,,,,,,,,,,,,,,,,,,,,,,,,,,,,,,,,,,,,,,,,,,,,,,,,,,,,,,,,,,,,,,,,,,717.3147493749857,717.32088866696,718.3179365829565,719.3013440420036,719.3013440420036,719.3013440420036,722.5368667499861,left,3.2333853330346756,None,722.2904686669935,722.2904686669935,722.300739749975,,,,,,,,966749,001,2024-12-05_12h55.11.345,Test,2024.2.4,None,2024-12-05 12h55.22.535273 +0100,
18,150,90,5,None,68,68,0,False,,,,left,0.9916037499788217,None,,,,,,,,,,,,,0,68,68,68,722.5508043749724,,,,,,,,,,,,,,,,,,,,,,,,,,,,,,,,,,,,,,,,,,,,,,,,,,,,,,,,,,,,,,,,,,,,,,,,,722.5448139999644,722.5508043749724,723.5399434579886,724.534830916964,724.534830916964,724.534830916964,725.5363280419842,left,0.9916037499788217,None,,,,,,,,,,,966749,001,2024-12-05_12h55.11.345,Test,2024.2.4,None,2024-12-05 12h55.22.535273 +0100,
13,150,60,46,None,69,69,0,False,,,,right,1.4684041669825092,None,,,,,,,,,,,,,0,69,69,69,725.5522136249929,,,,,,,,,,,,,,,,,,,,,,,,,,,,,,,,,,,,,,,,,,,,,,,,,,,,,,,,,,,,,,,,,,,,,,,,,725.5456510419608,725.5522136249929,726.5395815419615,727.5349760829704,727.5349760829704,727.5349760829704,729.0126872499823,right,1.4684041669825092,None,,,,,,,,,,,966749,001,2024-12-05_12h55.11.345,Test,2024.2.4,None,2024-12-05 12h55.22.535273 +0100,
,,,,,,,,,,,,,,,,,,,,,,,,,,,,,,,,,,,,,,,,,,,,,,,,,,,,,,,,,,,,,,,,,,,,,,,,,,,,,,,,,,,,,,,,,,,,,,,,,,,,,,,,,,,,,,,,,,,,,729.0138872919488,729.0248337919475,729.0248337919475,732.5206332499511,space,3.485799667018,None,966749,001,2024-12-05_12h55.11.345,Test,2024.2.4,None,2024-12-05 12h55.22.535273 +0100,
