Trial_Number,Exposure_Duration,Displacement_Angle,Stimulus,Response,thisN,thisTrialN,thisRepN,Is_Distractor,key_resp_3.keys,key_resp_3.rt,key_resp_3.duration,key_resp_7.keys,key_resp_7.rt,key_resp_7.duration,trials.thisRepN,trials.thisTrialN,trials.thisN,trials.thisIndex,trials_2.thisRepN,trials_2.thisTrialN,trials_2.thisN,trials_2.thisIndex,trials_3.thisRepN,trials_3.thisTrialN,trials_3.thisN,trials_3.thisIndex,trials_4.thisRepN,trials_4.thisTrialN,trials_4.thisN,trials_4.thisIndex,thisRow.t,notes,Intro_to_experiment.started,important1_2.started,key_resp_8.started,Intro_to_experiment.stopped,key_resp_8.keys,key_resp_8.rt,key_resp_8.duration,important.started,important1.started,key_resp_4.started,important.stopped,key_resp_4.keys,key_resp_4.rt,key_resp_4.duration,training_instruction.started,key_resp_9.started,important1_3.started,training_instruction.stopped,key_resp_9.keys,key_resp_9.rt,key_resp_9.duration,training_trial.started,cross.started,image.started,aperture.started,cross.stopped,image.stopped,aperture.stopped,training_trial.stopped,New_instruction.started,text.started,key_resp_2.started,New_instruction.stopped,key_resp_2.keys,key_resp_2.rt,key_resp_2.duration,test_trial.started,cross2.started,cross2.stopped,image_2.started,key_resp_3.started,aperture_2.started,test_trial.stopped,trials_2.key_resp_3.keys,trials_2.key_resp_3.rt,trials_2.key_resp_3.duration,image_2.stopped,aperture_2.stopped,text_3.started,start_blok_2.started,key_resp_5.started,text_4.started,start_blok_2.stopped,key_resp_5.keys,key_resp_5.rt,key_resp_5.duration,training_2.started,cross_2.started,image_3.started,aperture_3.started,cross_2.stopped,image_3.stopped,aperture_3.stopped,training_2.stopped,nyeste_instruks.started,text_5.started,key_resp_6.started,nyeste_instruks.stopped,key_resp_6.keys,key_resp_6.rt,key_resp_6.duration,test_2.started,cross2_2.started,cross2_2.stopped,image_4.started,key_resp_7.started,aperture_4.started,test_2.stopped,trials_4.key_resp_7.keys,trials_4.key_resp_7.rt,trials_4.key_resp_7.duration,Instruction.started,Instruktion.started,key_resp.started,Instruction.stopped,key_resp.keys,key_resp.rt,key_resp.duration,participant,session,date,expName,psychopyVersion,frameRate,expStart,
,,,,,,,,,,,,,,,,,,,,,,,,,,,,,,,,,0.005966083001112565,0.012221040989970788,0.012221040989970788,71.0721137500077,space,71.02373754201108,None,,,,,,,,,,,,,,,,,,,,,,,,,,,,,,,,,,,,,,,,,,,,,,,,,,,,,,,,,,,,,,,,,,,,,,,,,,,,,,,,,,972422,001,2024-11-28_12h13.44.551,Test,2024.2.4,None,2024-11-28 12h13.51.564737 +0100,
,,,,,,,,,,,,,,,,,,,,,,,,,,,,,,,,,,,,,,,,71.07224112498807,71.09537058300339,71.09537058300339,84.57386529099313,space,13.471080583985895,None,,,,,,,,,,,,,,,,,,,,,,,,,,,,,,,,,,,,,,,,,,,,,,,,,,,,,,,,,,,,,,,,,,,,,,,,,,,972422,001,2024-11-28_12h13.44.551,Test,2024.2.4,None,2024-11-28 12h13.51.564737 +0100,
,,,,,,,,,,,,,,,,,,,,,,,,,,,,,,,,,,,,,,,,,,,,,,,84.57394833301078,84.5932977909979,84.5932977909979,93.78412529098568,space,9.1884765830182,None,,,,,,,,,,,,,,,,,,,,,,,,,,,,,,,,,,,,,,,,,,,,,,,,,,,,,,,,,,,,,,,,,,,,972422,001,2024-11-28_12h13.44.551,Test,2024.2.4,None,2024-11-28 12h13.51.564737 +0100,
16,150,90,2,None,0,0,0,,,,,,,,0,0,0,15,,,,,,,,,,,,,93.8232905830082,,,,,,,,,,,,,,,,,,,,,,,93.81477199998335,93.8232905830082,93.98016679100692,93.98016679100692,94.02032833299018,95.6807332499884,95.6807332499884,95.66592458300875,,,,,,,,,,,,,,,,,,,,,,,,,,,,,,,,,,,,,,,,,,,,,,,,,,,,,,,,,,,,972422,001,2024-11-28_12h13.44.551,Test,2024.2.4,None,2024-11-28 12h13.51.564737 +0100,
9,150,30,31,None,1,1,0,,,,,,,,0,1,1,8,,,,,,,,,,,,,95.6807332499884,,,,,,,,,,,,,,,,,,,,,,,95.67600129099446,95.68556287500542,95.8817674999882,95.8817674999882,95.8817674999882,97.58124783300445,97.58124783300445,97.56594308299827,,,,,,,,,,,,,,,,,,,,,,,,,,,,,,,,,,,,,,,,,,,,,,,,,,,,,,,,,,,,972422,001,2024-11-28_12h13.44.551,Test,2024.2.4,None,2024-11-28 12h13.51.564737 +0100,
31,150,180,33,None,2,2,0,,,,,,,,0,2,2,30,,,,,,,,,,,,,97.58124783300445,,,,,,,,,,,,,,,,,,,,,,,97.57629112500581,97.59839316600119,97.78110858300352,97.78110858300352,97.78718812498846,99.48085716599599,99.48085716599599,99.46587083299528,,,,,,,,,,,,,,,,,,,,,,,,,,,,,,,,,,,,,,,,,,,,,,,,,,,,,,,,,,,,972422,001,2024-11-28_12h13.44.551,Test,2024.2.4,None,2024-11-28 12h13.51.564737 +0100,
18,150,90,10,None,3,3,0,,,,,,,,0,3,3,17,,,,,,,,,,,,,99.48085716599599,,,,,,,,,,,,,,,,,,,,,,,99.47594291600399,99.48491354100406,99.68179870798485,99.68179870798485,99.68179870798485,101.38035004099947,101.38035004099947,101.36592174999532,,,,,,,,,,,,,,,,,,,,,,,,,,,,,,,,,,,,,,,,,,,,,,,,,,,,,,,,,,,,972422,001,2024-11-28_12h13.44.551,Test,2024.2.4,None,2024-11-28 12h13.51.564737 +0100,
21,150,120,67,None,4,4,0,,,,,,,,0,4,4,20,,,,,,,,,,,,,101.38035004099947,,,,,,,,,,,,,,,,,,,,,,,101.37559841599432,101.38430820798385,101.58169666599133,101.58169666599133,101.58169666599133,103.27900999999838,103.27900999999838,103.26593712499016,,,,,,,,,,,,,,,,,,,,,,,,,,,,,,,,,,,,,,,,,,,,,,,,,,,,,,,,,,,,972422,001,2024-11-28_12h13.44.551,Test,2024.2.4,None,2024-11-28 12h13.51.564737 +0100,
22,150,120,47,None,5,5,0,,,,,,,,0,5,5,21,,,,,,,,,,,,,103.27900999999838,,,,,,,,,,,,,,,,,,,,,,,103.27402608300326,103.2829211250064,103.48170329100685,103.48170329100685,103.47118716599653,105.18002479098504,105.18002479098504,105.1659099579847,,,,,,,,,,,,,,,,,,,,,,,,,,,,,,,,,,,,,,,,,,,,,,,,,,,,,,,,,,,,972422,001,2024-11-28_12h13.44.551,Test,2024.2.4,None,2024-11-28 12h13.51.564737 +0100,
11,150,60,52,None,6,6,0,,,,,,,,0,6,6,10,,,,,,,,,,,,,105.18002479098504,,,,,,,,,,,,,,,,,,,,,,,105.1750494579901,105.18412550000357,105.38180704100523,105.38180704100523,105.38180704100523,107.08101620798698,107.08101620798698,107.06591574999038,,,,,,,,,,,,,,,,,,,,,,,,,,,,,,,,,,,,,,,,,,,,,,,,,,,,,,,,,,,,972422,001,2024-11-28_12h13.44.551,Test,2024.2.4,None,2024-11-28 12h13.51.564737 +0100,
8,150,30,20,None,7,7,0,,,,,,,,0,7,7,7,,,,,,,,,,,,,107.08101620798698,,,,,,,,,,,,,,,,,,,,,,,107.07606716599548,107.09817366598872,107.28178270798526,107.28178270798526,107.28819274998386,108.98024916599388,108.98024916599388,108.96597579098307,,,,,,,,,,,,,,,,,,,,,,,,,,,,,,,,,,,,,,,,,,,,,,,,,,,,,,,,,,,,972422,001,2024-11-28_12h13.44.551,Test,2024.2.4,None,2024-11-28 12h13.51.564737 +0100,
24,150,120,54,None,8,8,0,,,,,,,,0,8,8,23,,,,,,,,,,,,,108.98024916599388,,,,,,,,,,,,,,,,,,,,,,,108.9752833750099,108.98421716599842,109.18174983299104,109.18174983299104,109.18174983299104,110.8803113749891,110.8803113749891,110.86620866600424,,,,,,,,,,,,,,,,,,,,,,,,,,,,,,,,,,,,,,,,,,,,,,,,,,,,,,,,,,,,972422,001,2024-11-28_12h13.44.551,Test,2024.2.4,None,2024-11-28 12h13.51.564737 +0100,
1,150,0,19,None,9,9,0,,,,,,,,0,9,9,0,,,,,,,,,,,,,110.8803113749891,,,,,,,,,,,,,,,,,,,,,,,110.8752853749902,110.88486449999618,111.08169037499465,111.08169037499465,111.08169037499465,112.77773933298886,112.77773933298886,112.76576891599689,,,,,,,,,,,,,,,,,,,,,,,,,,,,,,,,,,,,,,,,,,,,,,,,,,,,,,,,,,,,972422,001,2024-11-28_12h13.44.551,Test,2024.2.4,None,2024-11-28 12h13.51.564737 +0100,
17,150,90,60,None,10,10,0,,,,,,,,0,10,10,16,,,,,,,,,,,,,112.77773933298886,,,,,,,,,,,,,,,,,,,,,,,112.77266433299519,112.78290895800455,112.98176850000164,112.98176850000164,112.98176850000164,114.68031720799627,114.68031720799627,114.66606216598302,,,,,,,,,,,,,,,,,,,,,,,,,,,,,,,,,,,,,,,,,,,,,,,,,,,,,,,,,,,,972422,001,2024-11-28_12h13.44.551,Test,2024.2.4,None,2024-11-28 12h13.51.564737 +0100,
34,150,180,45,None,11,11,0,,,,,,,,0,11,11,33,,,,,,,,,,,,,114.68031720799627,,,,,,,,,,,,,,,,,,,,,,,114.67543004101026,114.68434270800208,114.88175208299072,114.88175208299072,114.88175208299072,116.57914399998845,116.57914399998845,116.56614524999168,,,,,,,,,,,,,,,,,,,,,,,,,,,,,,,,,,,,,,,,,,,,,,,,,,,,,,,,,,,,972422,001,2024-11-28_12h13.44.551,Test,2024.2.4,None,2024-11-28 12h13.51.564737 +0100,
28,150,150,64,None,12,12,0,,,,,,,,0,12,12,27,,,,,,,,,,,,,116.57914399998845,,,,,,,,,,,,,,,,,,,,,,,116.57429650000995,116.58348079098505,116.78189291598392,116.78189291598392,116.78189291598392,118.47971895799856,118.47971895799856,118.46617349999724,,,,,,,,,,,,,,,,,,,,,,,,,,,,,,,,,,,,,,,,,,,,,,,,,,,,,,,,,,,,972422,001,2024-11-28_12h13.44.551,Test,2024.2.4,None,2024-11-28 12h13.51.564737 +0100,
23,150,120,16,None,13,13,0,,,,,,,,0,13,13,22,,,,,,,,,,,,,118.47971895799856,,,,,,,,,,,,,,,,,,,,,,,118.47485612498713,118.4847421250015,118.68171725000138,118.68171725000138,118.68171725000138,120.379512332991,120.379512332991,120.36609304099693,,,,,,,,,,,,,,,,,,,,,,,,,,,,,,,,,,,,,,,,,,,,,,,,,,,,,,,,,,,,972422,001,2024-11-28_12h13.44.551,Test,2024.2.4,None,2024-11-28 12h13.51.564737 +0100,
27,150,150,1,None,14,14,0,,,,,,,,0,14,14,26,,,,,,,,,,,,,120.379512332991,,,,,,,,,,,,,,,,,,,,,,,120.37459341599606,120.38365333300317,120.5818179580092,120.5818179580092,120.5818179580092,122.27972995798336,122.27972995798336,122.26611599998432,,,,,,,,,,,,,,,,,,,,,,,,,,,,,,,,,,,,,,,,,,,,,,,,,,,,,,,,,,,,972422,001,2024-11-28_12h13.44.551,Test,2024.2.4,None,2024-11-28 12h13.51.564737 +0100,
14,150,60,30,None,15,15,0,,,,,,,,0,15,15,13,,,,,,,,,,,,,122.27972995798336,,,,,,,,,,,,,,,,,,,,,,,122.2749199999962,122.28369879099773,122.4816620000056,122.4816620000056,122.4816620000056,124.17907670800923,124.17907670800923,124.16589470798499,,,,,,,,,,,,,,,,,,,,,,,,,,,,,,,,,,,,,,,,,,,,,,,,,,,,,,,,,,,,972422,001,2024-11-28_12h13.44.551,Test,2024.2.4,None,2024-11-28 12h13.51.564737 +0100,
12,150,60,38,None,16,16,0,,,,,,,,0,16,16,11,,,,,,,,,,,,,124.17907670800923,,,,,,,,,,,,,,,,,,,,,,,124.17416529098409,124.1834900410031,124.38176504100556,124.38176504100556,124.38176504100556,126.07892004100722,126.07892004100722,126.06605566598591,,,,,,,,,,,,,,,,,,,,,,,,,,,,,,,,,,,,,,,,,,,,,,,,,,,,,,,,,,,,972422,001,2024-11-28_12h13.44.551,Test,2024.2.4,None,2024-11-28 12h13.51.564737 +0100,
25,150,120,61,None,17,17,0,,,,,,,,0,17,17,24,,,,,,,,,,,,,126.07892004100722,,,,,,,,,,,,,,,,,,,,,,,126.07424675000948,126.08371408298262,126.2818602079933,126.2818602079933,126.2818602079933,127.97962195798755,127.97962195798755,127.9660302909906,,,,,,,,,,,,,,,,,,,,,,,,,,,,,,,,,,,,,,,,,,,,,,,,,,,,,,,,,,,,972422,001,2024-11-28_12h13.44.551,Test,2024.2.4,None,2024-11-28 12h13.51.564737 +0100,
32,150,180,29,None,18,18,0,,,,,,,,0,18,18,31,,,,,,,,,,,,,127.97962195798755,,,,,,,,,,,,,,,,,,,,,,,127.97474758300814,127.98481779100257,128.18164487500326,128.18164487500326,128.18164487500326,129.88033449999057,129.88033449999057,129.86627879098523,,,,,,,,,,,,,,,,,,,,,,,,,,,,,,,,,,,,,,,,,,,,,,,,,,,,,,,,,,,,972422,001,2024-11-28_12h13.44.551,Test,2024.2.4,None,2024-11-28 12h13.51.564737 +0100,
19,150,90,24,None,19,19,0,,,,,,,,0,19,19,18,,,,,,,,,,,,,129.88033449999057,,,,,,,,,,,,,,,,,,,,,,,129.87527662501088,129.88524558299105,130.08183495799312,130.08183495799312,130.08183495799312,131.78055437500007,131.78055437500007,131.76645591598935,,,,,,,,,,,,,,,,,,,,,,,,,,,,,,,,,,,,,,,,,,,,,,,,,,,,,,,,,,,,972422,001,2024-11-28_12h13.44.551,Test,2024.2.4,None,2024-11-28 12h13.51.564737 +0100,
20,150,90,56,None,20,20,0,,,,,,,,0,20,20,19,,,,,,,,,,,,,131.78055437500007,,,,,,,,,,,,,,,,,,,,,,,131.77543062498444,131.78513237499283,131.98167087498587,131.98167087498587,131.98167087498587,133.67981170798885,133.67981170798885,133.66629291599384,,,,,,,,,,,,,,,,,,,,,,,,,,,,,,,,,,,,,,,,,,,,,,,,,,,,,,,,,,,,972422,001,2024-11-28_12h13.44.551,Test,2024.2.4,None,2024-11-28 12h13.51.564737 +0100,
2,150,0,11,None,21,21,0,,,,,,,,0,21,21,1,,,,,,,,,,,,,133.67981170798885,,,,,,,,,,,,,,,,,,,,,,,133.67488316600793,133.683827166009,133.88175450000563,133.88175450000563,133.88175450000563,135.57941800000845,135.57941800000845,135.56612683300045,,,,,,,,,,,,,,,,,,,,,,,,,,,,,,,,,,,,,,,,,,,,,,,,,,,,,,,,,,,,972422,001,2024-11-28_12h13.44.551,Test,2024.2.4,None,2024-11-28 12h13.51.564737 +0100,
7,150,30,70,None,22,22,0,,,,,,,,0,22,22,6,,,,,,,,,,,,,135.57941800000845,,,,,,,,,,,,,,,,,,,,,,,135.5744724579854,135.5834569580038,135.7817927080032,135.7817927080032,135.7817927080032,137.47946654100087,137.47946654100087,137.46607820800273,,,,,,,,,,,,,,,,,,,,,,,,,,,,,,,,,,,,,,,,,,,,,,,,,,,,,,,,,,,,972422,001,2024-11-28_12h13.44.551,Test,2024.2.4,None,2024-11-28 12h13.51.564737 +0100,
13,150,60,4,None,23,23,0,,,,,,,,0,23,23,12,,,,,,,,,,,,,137.47946654100087,,,,,,,,,,,,,,,,,,,,,,,137.4746955409937,137.48409979100688,137.6816822910041,137.6816822910041,137.6816822910041,139.38697308299015,139.38697308299015,139.36617262498476,,,,,,,,,,,,,,,,,,,,,,,,,,,,,,,,,,,,,,,,,,,,,,,,,,,,,,,,,,,,972422,001,2024-11-28_12h13.44.551,Test,2024.2.4,None,2024-11-28 12h13.51.564737 +0100,
30,150,150,34,None,24,24,0,,,,,,,,0,24,24,29,,,,,,,,,,,,,139.38697308299015,,,,,,,,,,,,,,,,,,,,,,,139.3821747909824,139.38697308299015,139.5810889999848,139.5810889999848,139.5810889999848,141.28075095798704,141.28075095798704,141.26618279100512,,,,,,,,,,,,,,,,,,,,,,,,,,,,,,,,,,,,,,,,,,,,,,,,,,,,,,,,,,,,972422,001,2024-11-28_12h13.44.551,Test,2024.2.4,None,2024-11-28 12h13.51.564737 +0100,
10,150,30,41,None,25,25,0,,,,,,,,0,25,25,9,,,,,,,,,,,,,141.28075095798704,,,,,,,,,,,,,,,,,,,,,,,141.27579170800163,141.28527437499724,141.4817145410052,141.4817145410052,141.4817145410052,143.179355958011,143.179355958011,143.16596237500198,,,,,,,,,,,,,,,,,,,,,,,,,,,,,,,,,,,,,,,,,,,,,,,,,,,,,,,,,,,,972422,001,2024-11-28_12h13.44.551,Test,2024.2.4,None,2024-11-28 12h13.51.564737 +0100,
26,150,150,26,None,26,26,0,,,,,,,,0,26,26,25,,,,,,,,,,,,,143.179355958011,,,,,,,,,,,,,,,,,,,,,,,143.17450175000704,143.1841867909825,143.3811289999867,143.3811289999867,143.3811289999867,145.0796372909972,145.0796372909972,145.0660849160049,,,,,,,,,,,,,,,,,,,,,,,,,,,,,,,,,,,,,,,,,,,,,,,,,,,,,,,,,,,,972422,001,2024-11-28_12h13.44.551,Test,2024.2.4,None,2024-11-28 12h13.51.564737 +0100,
4,150,0,43,None,27,27,0,,,,,,,,0,27,27,3,,,,,,,,,,,,,145.0796372909972,,,,,,,,,,,,,,,,,,,,,,,145.07454375000088,145.08353995799553,145.28185520798434,145.28185520798434,145.28185520798434,146.97878958299407,146.97878958299407,146.96575441598543,,,,,,,,,,,,,,,,,,,,,,,,,,,,,,,,,,,,,,,,,,,,,,,,,,,,,,,,,,,,972422,001,2024-11-28_12h13.44.551,Test,2024.2.4,None,2024-11-28 12h13.51.564737 +0100,
35,150,180,35,None,28,28,0,,,,,,,,0,28,28,34,,,,,,,,,,,,,146.97878958299407,,,,,,,,,,,,,,,,,,,,,,,146.9741097500082,146.98282583299442,147.18196433299454,147.18196433299454,147.18196433299454,148.8798366659903,148.8798366659903,148.866281583003,,,,,,,,,,,,,,,,,,,,,,,,,,,,,,,,,,,,,,,,,,,,,,,,,,,,,,,,,,,,972422,001,2024-11-28_12h13.44.551,Test,2024.2.4,None,2024-11-28 12h13.51.564737 +0100,
15,150,60,12,None,29,29,0,,,,,,,,0,29,29,14,,,,,,,,,,,,,148.8798366659903,,,,,,,,,,,,,,,,,,,,,,,148.87496704098885,148.88394079098362,149.08173899998656,149.08173899998656,149.08173899998656,150.77871437498834,150.77871437498834,150.76586862499244,,,,,,,,,,,,,,,,,,,,,,,,,,,,,,,,,,,,,,,,,,,,,,,,,,,,,,,,,,,,972422,001,2024-11-28_12h13.44.551,Test,2024.2.4,None,2024-11-28 12h13.51.564737 +0100,
33,150,180,48,None,30,30,0,,,,,,,,0,30,30,32,,,,,,,,,,,,,150.77871437498834,,,,,,,,,,,,,,,,,,,,,,,150.7737606659939,150.78331787500065,150.98189429100603,150.98189429100603,150.98189429100603,152.67947337499936,152.67947337499936,152.66593695798656,,,,,,,,,,,,,,,,,,,,,,,,,,,,,,,,,,,,,,,,,,,,,,,,,,,,,,,,,,,,972422,001,2024-11-28_12h13.44.551,Test,2024.2.4,None,2024-11-28 12h13.51.564737 +0100,
5,150,0,39,None,31,31,0,,,,,,,,0,31,31,4,,,,,,,,,,,,,152.67947337499936,,,,,,,,,,,,,,,,,,,,,,,152.67447691599955,152.68341441600933,152.88172845798545,152.88172845798545,152.88172845798545,154.5788856660074,154.5788856660074,154.56584175000899,,,,,,,,,,,,,,,,,,,,,,,,,,,,,,,,,,,,,,,,,,,,,,,,,,,,,,,,,,,,972422,001,2024-11-28_12h13.44.551,Test,2024.2.4,None,2024-11-28 12h13.51.564737 +0100,
29,150,150,3,None,32,32,0,,,,,,,,0,32,32,28,,,,,,,,,,,,,154.5788856660074,,,,,,,,,,,,,,,,,,,,,,,154.57412483298685,154.58416229099385,154.7817941250105,154.7817941250105,154.7817941250105,156.47946887498256,156.47946887498256,156.46603737500845,,,,,,,,,,,,,,,,,,,,,,,,,,,,,,,,,,,,,,,,,,,,,,,,,,,,,,,,,,,,972422,001,2024-11-28_12h13.44.551,Test,2024.2.4,None,2024-11-28 12h13.51.564737 +0100,
6,150,30,68,None,33,33,0,,,,,,,,0,33,33,5,,,,,,,,,,,,,156.47946887498256,,,,,,,,,,,,,,,,,,,,,,,156.4745162499894,156.48310137499357,156.6817485000065,156.6817485000065,156.6817485000065,158.37906416598707,158.37906416598707,158.36614208298852,,,,,,,,,,,,,,,,,,,,,,,,,,,,,,,,,,,,,,,,,,,,,,,,,,,,,,,,,,,,972422,001,2024-11-28_12h13.44.551,Test,2024.2.4,None,2024-11-28 12h13.51.564737 +0100,
3,150,0,27,None,34,34,0,,,,,,,,0,34,34,2,,,,,,,,,,,,,158.37906416598707,,,,,,,,,,,,,,,,,,,,,,,158.37410924999858,158.38406270800624,158.58175795798888,158.58175795798888,158.58175795798888,160.27159866600414,160.27159866600414,160.26593812499777,,,,,,,,,,,,,,,,,,,,,,,,,,,,,,,,,,,,,,,,,,,,,,,,,,,,,,,,,,,,972422,001,2024-11-28_12h13.44.551,Test,2024.2.4,None,2024-11-28 12h13.51.564737 +0100,
,,,,,,,,,,,,,,,,,,,,,,,,,,,,,,,,,,,,,,,,,,,,,,,,,,,,,,,,,,,,,,160.26614600000903,160.28012854099507,160.28012854099507,168.55112483300036,space,8.268441291002091,None,,,,,,,,,,,,,,,,,,,,,,,,,,,,,,,,,,,,,,,,,,,,,,,,,,,,,972422,001,2024-11-28_12h13.44.551,Test,2024.2.4,None,2024-11-28 12h13.51.564737 +0100,
23,150,120,16,None,0,0,0,False,right,1.0046541249903385,None,,,,,,,,0,0,0,0,,,,,,,,,168.57932787499158,,,,,,,,,,,,,,,,,,,,,,,,,,,,,,,,,,,,,,168.57068408300984,168.57932787499158,169.57040866598254,170.5484881250013,170.5484881250013,170.5484881250013,171.55657404099475,right,1.0046541249903385,None,,,,,,,,,,,,,,,,,,,,,,,,,,,,,,,,,,,,,,,,,,,972422,001,2024-11-28_12h13.44.551,Test,2024.2.4,None,2024-11-28 12h13.51.564737 +0100,
65,150,150,13,None,1,1,0,True,right,1.5600977079884615,None,,,,,,,,0,1,1,1,,,,,,,,,171.58805520800524,,,,,,,,,,,,,,,,,,,,,,,,,,,,,,,,,,,,,,171.5649457499967,171.58805520800524,172.58757395800785,173.55643495800905,173.55643495800905,173.55643495800905,175.12422329100082,right,1.5600977079884615,None,,,,,,,,,,,,,,,,,,,,,,,,,,,,,,,,,,,,,,,,,,,972422,001,2024-11-28_12h13.44.551,Test,2024.2.4,None,2024-11-28 12h13.51.564737 +0100,
29,150,150,3,None,2,2,0,False,left,1.2978821670112666,None,,,,,,,,0,2,2,2,,,,,,,,,175.1389180829865,,,,,,,,,,,,,,,,,,,,,,,,,,,,,,,,,,,,,,175.13208250000025,175.1389180829865,176.13699724999606,177.12228279100964,177.12228279100964,177.12228279100964,178.4232450829877,left,1.2978821670112666,None,,,,,,,,,,,,,,,,,,,,,,,,,,,,,,,,,,,,,,,,,,,972422,001,2024-11-28_12h13.44.551,Test,2024.2.4,None,2024-11-28 12h13.51.564737 +0100,
50,150,60,65,None,3,3,0,True,left,1.0722789159917738,None,,,,,,,,0,3,3,3,,,,,,,,,178.43732262498816,,,,,,,,,,,,,,,,,,,,,,,,,,,,,,,,,,,,,,178.431294332986,178.43732262498816,179.43176154099638,180.42195891600568,180.42195891600568,180.42195891600568,181.5004993749899,left,1.0722789159917738,None,,,,,,,,,,,,,,,,,,,,,,,,,,,,,,,,,,,,,,,,,,,972422,001,2024-11-28_12h13.44.551,Test,2024.2.4,None,2024-11-28 12h13.51.564737 +0100,
31,150,180,33,None,4,4,0,False,left,1.072254458005773,None,,,,,,,,0,4,4,4,,,,,,,,,181.51506404098473,,,,,,,,,,,,,,,,,,,,,,,,,,,,,,,,,,,,,,181.50806324998848,181.51506404098473,182.50382708298275,183.49844004100305,183.49844004100305,183.49844004100305,184.57335816600244,left,1.072254458005773,None,,,,,,,,,,,,,,,,,,,,,,,,,,,,,,,,,,,,,,,,,,,972422,001,2024-11-28_12h13.44.551,Test,2024.2.4,None,2024-11-28 12h13.51.564737 +0100,
43,150,30,8,None,5,5,0,True,left,0.9023039170133416,None,,,,,,,,0,5,5,5,,,,,,,,,184.5877196659858,,,,,,,,,,,,,,,,,,,,,,,,,,,,,,,,,,,,,,184.58172941600787,184.5877196659858,185.58661433300585,186.57190454099327,186.57190454099327,186.57190454099327,187.48358804101008,left,0.9023039170133416,None,,,,,,,,,,,,,,,,,,,,,,,,,,,,,,,,,,,,,,,,,,,972422,001,2024-11-28_12h13.44.551,Test,2024.2.4,None,2024-11-28 12h13.51.564737 +0100,
5,150,0,39,None,6,6,0,False,right,0.8887458750104997,None,,,,,,,,0,6,6,6,,,,,,,,,187.49813383299625,,,,,,,,,,,,,,,,,,,,,,,,,,,,,,,,,,,,,,187.4911509579979,187.49813383299625,188.48819425000693,189.48202049999963,189.48202049999963,189.48202049999963,190.3745146660076,right,0.8887458750104997,None,,,,,,,,,,,,,,,,,,,,,,,,,,,,,,,,,,,,,,,,,,,972422,001,2024-11-28_12h13.44.551,Test,2024.2.4,None,2024-11-28 12h13.51.564737 +0100,
34,150,180,45,None,7,7,0,False,right,0.933815083000809,None,,,,,,,,0,7,7,7,,,,,,,,,190.38887304099626,,,,,,,,,,,,,,,,,,,,,,,,,,,,,,,,,,,,,,190.38251762499567,190.38887304099626,191.38709129099152,192.37207795798895,192.37207795798895,192.37207795798895,193.3172865829838,right,0.933815083000809,None,,,,,,,,,,,,,,,,,,,,,,,,,,,,,,,,,,,,,,,,,,,972422,001,2024-11-28_12h13.44.551,Test,2024.2.4,None,2024-11-28 12h13.51.564737 +0100,
39,150,0,62,None,8,8,0,True,left,0.7643387500138488,None,,,,,,,,0,8,8,8,,,,,,,,,193.334127582988,,,,,,,,,,,,,,,,,,,,,,,,,,,,,,,,,,,,,,193.3264424999943,193.334127582988,194.33162204100518,195.31521237498964,195.31521237498964,195.31521237498964,196.0837070409907,left,0.7643387500138488,None,,,,,,,,,,,,,,,,,,,,,,,,,,,,,,,,,,,,,,,,,,,972422,001,2024-11-28_12h13.44.551,Test,2024.2.4,None,2024-11-28 12h13.51.564737 +0100,
67,150,180,53,None,9,9,0,True,left,0.900224375014659,None,,,,,,,,0,9,9,9,,,,,,,,,196.09907870800816,,,,,,,,,,,,,,,,,,,,,,,,,,,,,,,,,,,,,,196.09257704101037,196.09907870800816,197.08655366598396,198.08180366599117,198.08180366599117,198.08180366599117,198.98499249998713,left,0.900224375014659,None,,,,,,,,,,,,,,,,,,,,,,,,,,,,,,,,,,,,,,,,,,,972422,001,2024-11-28_12h13.44.551,Test,2024.2.4,None,2024-11-28 12h13.51.564737 +0100,
40,150,0,28,None,10,10,0,True,right,1.097008165990701,None,,,,,,,,0,10,10,10,,,,,,,,,198.9997857499984,,,,,,,,,,,,,,,,,,,,,,,,,,,,,,,,,,,,,,198.9937350830005,198.9997857499984,199.9984079579881,200.98223729099846,200.98223729099846,200.98223729099846,202.08375670798705,right,1.097008165990701,None,,,,,,,,,,,,,,,,,,,,,,,,,,,,,,,,,,,,,,,,,,,972422,001,2024-11-28_12h13.44.551,Test,2024.2.4,None,2024-11-28 12h13.51.564737 +0100,
44,150,30,18,None,11,11,0,True,left,0.8706706250086427,None,,,,,,,,0,11,11,11,,,,,,,,,202.09834179098834,,,,,,,,,,,,,,,,,,,,,,,,,,,,,,,,,,,,,,202.0918563749874,202.09834179098834,203.08631133299787,204.081724165997,204.081724165997,204.081724165997,204.95738320800592,left,0.8706706250086427,None,,,,,,,,,,,,,,,,,,,,,,,,,,,,,,,,,,,,,,,,,,,972422,001,2024-11-28_12h13.44.551,Test,2024.2.4,None,2024-11-28 12h13.51.564737 +0100,
27,150,150,1,None,12,12,0,False,right,0.9646363750216551,None,,,,,,,,0,12,12,12,,,,,,,,,204.96830995799974,,,,,,,,,,,,,,,,,,,,,,,,,,,,,,,,,,,,,,204.96392079099314,204.96830995799974,205.9649223749875,206.95569283299847,206.95569283299847,206.95569283299847,207.92357070799335,right,0.9646363750216551,None,,,,,,,,,,,,,,,,,,,,,,,,,,,,,,,,,,,,,,,,,,,972422,001,2024-11-28_12h13.44.551,Test,2024.2.4,None,2024-11-28 12h13.51.564737 +0100,
11,150,60,52,None,13,13,0,False,right,0.8272165409871377,None,,,,,,,,0,13,13,13,,,,,,,,,207.93838325000252,,,,,,,,,,,,,,,,,,,,,,,,,,,,,,,,,,,,,,207.93124420798267,207.93838325000252,208.93684254100663,209.92212570799165,209.92212570799165,209.92212570799165,210.76016920799157,right,0.8272165409871377,None,,,,,,,,,,,,,,,,,,,,,,,,,,,,,,,,,,,,,,,,,,,972422,001,2024-11-28_12h13.44.551,Test,2024.2.4,None,2024-11-28 12h13.51.564737 +0100,
46,150,60,58,None,14,14,0,True,left,1.377799625013722,None,,,,,,,,0,14,14,14,,,,,,,,,210.77214133300004,,,,,,,,,,,,,,,,,,,,,,,,,,,,,,,,,,,,,,210.76741029100958,210.77214133300004,211.76486812499934,212.75475091600674,212.75475091600674,212.75475091600674,214.14408737499616,left,1.377799625013722,None,,,,,,,,,,,,,,,,,,,,,,,,,,,,,,,,,,,,,,,,,,,972422,001,2024-11-28_12h13.44.551,Test,2024.2.4,None,2024-11-28 12h13.51.564737 +0100,
68,150,180,46,None,15,15,0,True,left,1.2936217910028063,None,,,,,,,,0,15,15,15,,,,,,,,,214.15560462500434,,,,,,,,,,,,,,,,,,,,,,,,,,,,,,,,,,,,,,214.15089787499164,214.15560462500434,215.1536301249871,216.13858358300058,216.13858358300058,216.13858358300058,217.4352961659897,left,1.2936217910028063,None,,,,,,,,,,,,,,,,,,,,,,,,,,,,,,,,,,,,,,,,,,,972422,001,2024-11-28_12h13.44.551,Test,2024.2.4,None,2024-11-28 12h13.51.564737 +0100,
41,150,30,40,None,16,16,0,True,left,1.1135708329966292,None,,,,,,,,0,16,16,16,,,,,,,,,217.4505744999915,,,,,,,,,,,,,,,,,,,,,,,,,,,,,,,,,,,,,,217.443969999993,217.4505744999915,218.44838595800684,219.43179904099088,219.43179904099088,219.43179904099088,220.55069633299718,left,1.1135708329966292,None,,,,,,,,,,,,,,,,,,,,,,,,,,,,,,,,,,,,,,,,,,,972422,001,2024-11-28_12h13.44.551,Test,2024.2.4,None,2024-11-28 12h13.51.564737 +0100,
51,150,90,50,None,17,17,0,True,left,1.4910174160031602,None,,,,,,,,0,17,17,17,,,,,,,,,220.56607291600085,,,,,,,,,,,,,,,,,,,,,,,,,,,,,,,,,,,,,,220.55905054099276,220.56607291600085,221.56497566599865,222.5485993330076,222.5485993330076,222.5485993330076,224.05050179100363,left,1.4910174160031602,None,,,,,,,,,,,,,,,,,,,,,,,,,,,,,,,,,,,,,,,,,,,972422,001,2024-11-28_12h13.44.551,Test,2024.2.4,None,2024-11-28 12h13.51.564737 +0100,
6,150,30,68,None,18,18,0,False,left,1.8102748749952298,None,,,,,,,,0,18,18,18,,,,,,,,,224.06498029100476,,,,,,,,,,,,,,,,,,,,,,,,,,,,,,,,,,,,,,224.05802358299843,224.06498029100476,225.05338795800344,226.048395040998,226.048395040998,226.048395040998,227.8671029160032,left,1.8102748749952298,None,,,,,,,,,,,,,,,,,,,,,,,,,,,,,,,,,,,,,,,,,,,972422,001,2024-11-28_12h13.44.551,Test,2024.2.4,None,2024-11-28 12h13.51.564737 +0100,
70,150,180,17,None,19,19,0,True,right,1.8570167919970118,None,,,,,,,,0,19,19,19,,,,,,,,,227.88225358299678,,,,,,,,,,,,,,,,,,,,,,,,,,,,,,,,,,,,,,227.87531570799183,227.88225358299678,228.86990150000202,229.86521158300457,229.86521158300457,229.86521158300457,231.72452316599083,right,1.8570167919970118,None,,,,,,,,,,,,,,,,,,,,,,,,,,,,,,,,,,,,,,,,,,,972422,001,2024-11-28_12h13.44.551,Test,2024.2.4,None,2024-11-28 12h13.51.564737 +0100,
7,150,30,70,None,20,20,0,False,right,1.0280804169888142,None,,,,,,,,0,20,20,20,,,,,,,,,231.7387760829879,,,,,,,,,,,,,,,,,,,,,,,,,,,,,,,,,,,,,,231.73227883299114,231.7387760829879,232.73718125000596,233.72195816598833,233.72195816598833,233.72195816598833,234.75718579100794,right,1.0280804169888142,None,,,,,,,,,,,,,,,,,,,,,,,,,,,,,,,,,,,,,,,,,,,972422,001,2024-11-28_12h13.44.551,Test,2024.2.4,None,2024-11-28 12h13.51.564737 +0100,
17,150,90,60,None,21,21,0,False,right,1.2443085419945419,None,,,,,,,,0,21,21,21,,,,,,,,,234.77150775000337,,,,,,,,,,,,,,,,,,,,,,,,,,,,,,,,,,,,,,234.76467487498303,234.77150775000337,235.76511020798353,236.7549979579926,236.7549979579926,236.7549979579926,238.00630783298402,right,1.2443085419945419,None,,,,,,,,,,,,,,,,,,,,,,,,,,,,,,,,,,,,,,,,,,,972422,001,2024-11-28_12h13.44.551,Test,2024.2.4,None,2024-11-28 12h13.51.564737 +0100,
54,150,90,7,None,22,22,0,True,left,1.4548428329871967,None,,,,,,,,0,22,22,22,,,,,,,,,238.02090791598312,,,,,,,,,,,,,,,,,,,,,,,,,,,,,,,,,,,,,,238.01497749998816,238.02090791598312,239.01507416600361,240.0054104999872,240.0054104999872,240.0054104999872,241.46711141598644,left,1.4548428329871967,None,,,,,,,,,,,,,,,,,,,,,,,,,,,,,,,,,,,,,,,,,,,972422,001,2024-11-28_12h13.44.551,Test,2024.2.4,None,2024-11-28 12h13.51.564737 +0100,
19,150,90,24,None,23,23,0,False,right,9.900089417002164,None,,,,,,,,0,23,23,23,,,,,,,,,241.48141149998992,,,,,,,,,,,,,,,,,,,,,,,,,,,,,,,,,,,,,,241.47465600000578,241.48141149998992,242.47042050000164,243.46523283299757,243.46523283299757,243.46523283299757,253.36776799999643,right,9.900089417002164,None,246.4548812499852,246.4548812499852,246.46352679099073,,,,,,,,,,,,,,,,,,,,,,,,,,,,,,,,,,,,,,,,972422,001,2024-11-28_12h13.44.551,Test,2024.2.4,None,2024-11-28 12h13.51.564737 +0100,
56,150,120,63,None,24,24,0,True,right,3.0908614579821005,None,,,,,,,,0,24,24,24,,,,,,,,,253.3830077080056,,,,,,,,,,,,,,,,,,,,,,,,,,,,,,,,,,,,,,253.3766302499862,253.3830077080056,254.38168874999974,255.36503287500818,255.36503287500818,255.36503287500818,258.4670342080062,right,3.0908614579821005,None,258.354196625005,258.354196625005,258.3650180409895,,,,,,,,,,,,,,,,,,,,,,,,,,,,,,,,,,,,,,,,972422,001,2024-11-28_12h13.44.551,Test,2024.2.4,None,2024-11-28 12h13.51.564737 +0100,
52,150,90,14,None,25,25,0,True,left,1.8401716669905,None,,,,,,,,0,25,25,25,,,,,,,,,258.482080916001,,,,,,,,,,,,,,,,,,,,,,,,,,,,,,,,,,,,,,258.47568908298854,258.482080916001,259.47177775000455,260.46510216599563,260.46510216599563,260.46510216599563,262.3076230830047,left,1.8401716669905,None,,,,,,,,,,,,,,,,,,,,,,,,,,,,,,,,,,,,,,,,,,,972422,001,2024-11-28_12h13.44.551,Test,2024.2.4,None,2024-11-28 12h13.51.564737 +0100,
30,150,150,34,None,26,26,0,False,right,0.8347283340117428,None,,,,,,,,0,26,26,26,,,,,,,,,262.3287177500024,,,,,,,,,,,,,,,,,,,,,,,,,,,,,,,,,,,,,,262.3229485829943,262.3287177500024,263.3194803329825,264.30768308299594,264.30768308299594,264.30768308299594,265.15046654100297,right,0.8347283340117428,None,,,,,,,,,,,,,,,,,,,,,,,,,,,,,,,,,,,,,,,,,,,972422,001,2024-11-28_12h13.44.551,Test,2024.2.4,None,2024-11-28 12h13.51.564737 +0100,
62,150,150,55,None,27,27,0,True,right,1.1769105840066914,None,,,,,,,,0,27,27,27,,,,,,,,,265.16627095799777,,,,,,,,,,,,,,,,,,,,,,,,,,,,,,,,,,,,,,265.16032016600366,265.16627095799777,266.16524695800035,267.1485569580109,267.1485569580109,267.1485569580109,268.33408029100974,right,1.1769105840066914,None,,,,,,,,,,,,,,,,,,,,,,,,,,,,,,,,,,,,,,,,,,,972422,001,2024-11-28_12h13.44.551,Test,2024.2.4,None,2024-11-28 12h13.51.564737 +0100,
38,150,0,57,None,28,28,0,True,right,1.0002699169854168,None,,,,,,,,0,28,28,28,,,,,,,,,268.34978724998655,,,,,,,,,,,,,,,,,,,,,,,,,,,,,,,,,,,,,,268.34301666601095,268.34978724998655,269.34846145799384,270.3318460829905,270.3318460829905,270.3318460829905,271.33501866599545,right,1.0002699169854168,None,,,,,,,,,,,,,,,,,,,,,,,,,,,,,,,,,,,,,,,,,,,972422,001,2024-11-28_12h13.44.551,Test,2024.2.4,None,2024-11-28 12h13.51.564737 +0100,
45,150,30,32,None,29,29,0,True,left,0.8684893330209889,None,,,,,,,,0,29,29,29,,,,,,,,,271.35050920798676,,,,,,,,,,,,,,,,,,,,,,,,,,,,,,,,,,,,,,271.34375883298344,271.35050920798676,272.348337790987,273.3317400829983,273.3317400829983,273.3317400829983,274.206788749987,left,0.8684893330209889,None,,,,,,,,,,,,,,,,,,,,,,,,,,,,,,,,,,,,,,,,,,,972422,001,2024-11-28_12h13.44.551,Test,2024.2.4,None,2024-11-28 12h13.51.564737 +0100,
20,150,90,56,None,30,30,0,False,left,1.3218152500048745,None,,,,,,,,0,30,30,30,,,,,,,,,274.22075137498905,,,,,,,,,,,,,,,,,,,,,,,,,,,,,,,,,,,,,,274.2148792500084,274.22075137498905,275.2150785829872,276.2058009580069,276.2058009580069,276.2058009580069,277.5337718749943,left,1.3218152500048745,None,,,,,,,,,,,,,,,,,,,,,,,,,,,,,,,,,,,,,,,,,,,972422,001,2024-11-28_12h13.44.551,Test,2024.2.4,None,2024-11-28 12h13.51.564737 +0100,
55,150,90,25,None,31,31,0,True,left,0.822194042004412,None,,,,,,,,0,31,31,31,,,,,,,,,277.5480670410034,,,,,,,,,,,,,,,,,,,,,,,,,,,,,,,,,,,,,,277.5419827910082,277.5480670410034,278.5364885829913,279.5317065829877,279.5317065829877,279.5317065829877,280.3569447909831,left,0.822194042004412,None,,,,,,,,,,,,,,,,,,,,,,,,,,,,,,,,,,,,,,,,,,,972422,001,2024-11-28_12h13.44.551,Test,2024.2.4,None,2024-11-28 12h13.51.564737 +0100,
18,150,90,10,None,32,32,0,False,left,0.8195624579966534,None,,,,,,,,0,32,32,32,,,,,,,,,280.3708197079832,,,,,,,,,,,,,,,,,,,,,,,,,,,,,,,,,,,,,,280.36492204098613,280.3708197079832,281.3650370409887,282.3555176660011,282.3555176660011,282.3555176660011,283.18411000000197,left,0.8195624579966534,None,,,,,,,,,,,,,,,,,,,,,,,,,,,,,,,,,,,,,,,,,,,972422,001,2024-11-28_12h13.44.551,Test,2024.2.4,None,2024-11-28 12h13.51.564737 +0100,
37,150,0,59,None,33,33,0,True,left,1.517406541010132,None,,,,,,,,0,33,33,33,,,,,,,,,283.19875650000176,,,,,,,,,,,,,,,,,,,,,,,,,,,,,,,,,,,,,,283.19292491598753,283.19875650000176,284.18708416598383,285.18132566599525,285.18132566599525,285.18132566599525,286.7017619999824,left,1.517406541010132,None,,,,,,,,,,,,,,,,,,,,,,,,,,,,,,,,,,,,,,,,,,,972422,001,2024-11-28_12h13.44.551,Test,2024.2.4,None,2024-11-28 12h13.51.564737 +0100,
63,150,150,49,None,34,34,0,True,right,0.8513619580189697,None,,,,,,,,0,34,34,34,,,,,,,,,286.71671620800043,,,,,,,,,,,,,,,,,,,,,,,,,,,,,,,,,,,,,,286.71052704099566,286.71671620800043,287.7151298329991,288.6985713749891,288.6985713749891,288.6985713749891,289.55705170799047,right,0.8513619580189697,None,,,,,,,,,,,,,,,,,,,,,,,,,,,,,,,,,,,,,,,,,,,972422,001,2024-11-28_12h13.44.551,Test,2024.2.4,None,2024-11-28 12h13.51.564737 +0100,
48,150,60,69,None,35,35,0,True,right,1.0001469580165576,None,,,,,,,,0,35,35,35,,,,,,,,,289.57158933300525,,,,,,,,,,,,,,,,,,,,,,,,,,,,,,,,,,,,,,289.5653149159916,289.57158933300525,290.5695279999927,291.5554132499965,291.5554132499965,291.5554132499965,292.56719187498675,right,1.0001469580165576,None,,,,,,,,,,,,,,,,,,,,,,,,,,,,,,,,,,,,,,,,,,,972422,001,2024-11-28_12h13.44.551,Test,2024.2.4,None,2024-11-28 12h13.51.564737 +0100,
53,150,90,23,None,36,36,0,True,left,0.9576617919956334,None,,,,,,,,0,36,36,36,,,,,,,,,292.58195645798696,,,,,,,,,,,,,,,,,,,,,,,,,,,,,,,,,,,,,,292.5757421659946,292.58195645798696,293.57044149999274,294.5651399579947,294.5651399579947,294.5651399579947,295.53385579099995,left,0.9576617919956334,None,,,,,,,,,,,,,,,,,,,,,,,,,,,,,,,,,,,,,,,,,,,972422,001,2024-11-28_12h13.44.551,Test,2024.2.4,None,2024-11-28 12h13.51.564737 +0100,
8,150,30,20,None,37,37,0,False,left,1.2501149159797933,None,,,,,,,,0,37,37,37,,,,,,,,,295.5493795000075,,,,,,,,,,,,,,,,,,,,,,,,,,,,,,,,,,,,,,295.5425439160026,295.5493795000075,296.5363265000051,297.53180883300956,297.53180883300956,297.53180883300956,298.78450658300426,left,1.2501149159797933,None,,,,,,,,,,,,,,,,,,,,,,,,,,,,,,,,,,,,,,,,,,,972422,001,2024-11-28_12h13.44.551,Test,2024.2.4,None,2024-11-28 12h13.51.564737 +0100,
57,150,120,21,None,38,38,0,True,left,1.9894385419902392,None,,,,,,,,0,38,38,38,,,,,,,,,298.79970716600656,,,,,,,,,,,,,,,,,,,,,,,,,,,,,,,,,,,,,,298.79314445800264,298.79970716600656,299.79833441600204,300.7813970409916,300.7813970409916,300.7813970409916,302.77340116599225,left,1.9894385419902392,None,,,,,,,,,,,,,,,,,,,,,,,,,,,,,,,,,,,,,,,,,,,972422,001,2024-11-28_12h13.44.551,Test,2024.2.4,None,2024-11-28 12h13.51.564737 +0100,
4,150,0,43,None,39,39,0,False,right,0.970391875016503,None,,,,,,,,0,39,39,39,,,,,,,,,302.7876511249924,,,,,,,,,,,,,,,,,,,,,,,,,,,,,,,,,,,,,,302.78159429100924,302.7876511249924,303.78174545799266,304.77205308299745,304.77205308299745,304.77205308299745,305.7504714159877,right,0.970391875016503,None,,,,,,,,,,,,,,,,,,,,,,,,,,,,,,,,,,,,,,,,,,,972422,001,2024-11-28_12h13.44.551,Test,2024.2.4,None,2024-11-28 12h13.51.564737 +0100,
64,150,150,15,None,40,40,0,True,left,1.1171771250083111,None,,,,,,,,0,40,40,40,,,,,,,,,305.7660144160036,,,,,,,,,,,,,,,,,,,,,,,,,,,,,,,,,,,,,,305.7594842079852,305.7660144160036,306.7533203329949,307.7483858749911,307.7483858749911,307.7483858749911,308.86822995799594,left,1.1171771250083111,None,,,,,,,,,,,,,,,,,,,,,,,,,,,,,,,,,,,,,,,,,,,972422,001,2024-11-28_12h13.44.551,Test,2024.2.4,None,2024-11-28 12h13.51.564737 +0100,
16,150,90,2,None,41,41,0,False,right,0.7978204999817535,None,,,,,,,,0,41,41,41,,,,,,,,,308.883123083011,,,,,,,,,,,,,,,,,,,,,,,,,,,,,,,,,,,,,,308.87697524999385,308.883123083011,309.8817913749954,310.8652087500086,310.8652087500086,310.8652087500086,311.6671377909952,right,0.7978204999817535,None,,,,,,,,,,,,,,,,,,,,,,,,,,,,,,,,,,,,,,,,,,,972422,001,2024-11-28_12h13.44.551,Test,2024.2.4,None,2024-11-28 12h13.51.564737 +0100,
36,150,0,42,None,42,42,0,True,right,0.9247594170155935,None,,,,,,,,0,42,42,42,,,,,,,,,311.68208549998235,,,,,,,,,,,,,,,,,,,,,,,,,,,,,,,,,,,,,,311.6753169579897,311.68208549998235,312.6703502910095,313.6652738749981,313.6652738749981,313.6652738749981,314.60113241599174,right,0.9247594170155935,None,,,,,,,,,,,,,,,,,,,,,,,,,,,,,,,,,,,,,,,,,,,972422,001,2024-11-28_12h13.44.551,Test,2024.2.4,None,2024-11-28 12h13.51.564737 +0100,
15,150,60,12,None,43,43,0,False,left,1.9244587919965852,None,,,,,,,,0,43,43,43,,,,,,,,,314.61605129099917,,,,,,,,,,,,,,,,,,,,,,,,,,,,,,,,,,,,,,314.60930237499997,314.61605129099917,315.60297012500814,316.5986355409841,316.5986355409841,316.5986355409841,318.5340107079828,left,1.9244587919965852,None,,,,,,,,,,,,,,,,,,,,,,,,,,,,,,,,,,,,,,,,,,,972422,001,2024-11-28_12h13.44.551,Test,2024.2.4,None,2024-11-28 12h13.51.564737 +0100,
1,150,0,19,None,44,44,0,False,left,1.544578792003449,None,,,,,,,,0,44,44,44,,,,,,,,,318.54906504100654,,,,,,,,,,,,,,,,,,,,,,,,,,,,,,,,,,,,,,318.54226995800855,318.54906504100654,319.53625270799967,320.53174733300693,320.53174733300693,320.53174733300693,322.08384837498306,left,1.544578792003449,None,,,,,,,,,,,,,,,,,,,,,,,,,,,,,,,,,,,,,,,,,,,972422,001,2024-11-28_12h13.44.551,Test,2024.2.4,None,2024-11-28 12h13.51.564737 +0100,
49,150,60,51,None,45,45,0,True,left,1.6859182080079336,None,,,,,,,,0,45,45,45,,,,,,,,,322.0973457499931,,,,,,,,,,,,,,,,,,,,,,,,,,,,,,,,,,,,,,322.0914880409837,322.0973457499931,323.0868282910087,324.0818242910027,324.0818242910027,324.0818242910027,325.7732774580072,left,1.6859182080079336,None,,,,,,,,,,,,,,,,,,,,,,,,,,,,,,,,,,,,,,,,,,,972422,001,2024-11-28_12h13.44.551,Test,2024.2.4,None,2024-11-28 12h13.51.564737 +0100,
42,150,30,36,None,46,46,0,True,left,0.8330038330168463,None,,,,,,,,0,46,46,46,,,,,,,,,325.78823095798725,,,,,,,,,,,,,,,,,,,,,,,,,,,,,,,,,,,,,,325.78204820799874,325.78823095798725,326.7816637909855,327.772109832993,327.772109832993,327.772109832993,328.6172000829829,left,0.8330038330168463,None,,,,,,,,,,,,,,,,,,,,,,,,,,,,,,,,,,,,,,,,,,,972422,001,2024-11-28_12h13.44.551,Test,2024.2.4,None,2024-11-28 12h13.51.564737 +0100,
28,150,150,64,None,47,47,0,False,left,1.5586437909805682,None,,,,,,,,0,47,47,47,,,,,,,,,328.63293358299416,,,,,,,,,,,,,,,,,,,,,,,,,,,,,,,,,,,,,,328.62611499999184,328.63293358299416,329.6317660000059,330.61514966600225,330.61514966600225,330.61514966600225,332.18399970800965,left,1.5586437909805682,None,,,,,,,,,,,,,,,,,,,,,,,,,,,,,,,,,,,,,,,,,,,972422,001,2024-11-28_12h13.44.551,Test,2024.2.4,None,2024-11-28 12h13.51.564737 +0100,
47,150,60,37,None,48,48,0,True,left,0.8715853329922538,None,,,,,,,,0,48,48,48,,,,,,,,,332.1996157079993,,,,,,,,,,,,,,,,,,,,,,,,,,,,,,,,,,,,,,332.1930529999954,332.1996157079993,333.1985043750028,334.18215687500197,334.18215687500197,334.18215687500197,335.0569789579895,left,0.8715853329922538,None,,,,,,,,,,,,,,,,,,,,,,,,,,,,,,,,,,,,,,,,,,,972422,001,2024-11-28_12h13.44.551,Test,2024.2.4,None,2024-11-28 12h13.51.564737 +0100,
33,150,180,48,None,49,49,0,False,right,0.7641972089768387,None,,,,,,,,0,49,49,49,,,,,,,,,335.07182220800314,,,,,,,,,,,,,,,,,,,,,,,,,,,,,,,,,,,,,,335.0652248330007,335.07182220800314,336.0649910409993,337.05600445799064,337.05600445799064,337.05600445799064,337.8226641250076,right,0.7641972089768387,None,,,,,,,,,,,,,,,,,,,,,,,,,,,,,,,,,,,,,,,,,,,972422,001,2024-11-28_12h13.44.551,Test,2024.2.4,None,2024-11-28 12h13.51.564737 +0100,
60,150,120,9,None,50,50,0,True,right,1.7434897499915678,None,,,,,,,,0,50,50,50,,,,,,,,,337.8377467079845,,,,,,,,,,,,,,,,,,,,,,,,,,,,,,,,,,,,,,337.83152504099417,337.8377467079845,338.831649166008,339.82238550001057,339.82238550001057,339.82238550001057,341.5765102499863,right,1.7434897499915678,None,,,,,,,,,,,,,,,,,,,,,,,,,,,,,,,,,,,,,,,,,,,972422,001,2024-11-28_12h13.44.551,Test,2024.2.4,None,2024-11-28 12h13.51.564737 +0100,
14,150,60,30,None,51,51,0,False,right,1.6855352910060901,None,,,,,,,,0,51,51,51,,,,,,,,,341.5883385830093,,,,,,,,,,,,,,,,,,,,,,,,,,,,,,,,,,,,,,341.58380916598253,341.5883385830093,342.5862073749886,343.5725232909899,343.5725232909899,343.5725232909899,345.2672765000025,right,1.6855352910060901,None,,,,,,,,,,,,,,,,,,,,,,,,,,,,,,,,,,,,,,,,,,,972422,001,2024-11-28_12h13.44.551,Test,2024.2.4,None,2024-11-28 12h13.51.564737 +0100,
59,150,120,66,None,52,52,0,True,left,0.890647958003683,None,,,,,,,,0,52,52,52,,,,,,,,,345.28225429099984,,,,,,,,,,,,,,,,,,,,,,,,,,,,,,,,,,,,,,345.2758019999892,345.28225429099984,346.2712091660069,347.2653111660038,347.2653111660038,347.2653111660038,348.16727837501094,left,0.890647958003683,None,,,,,,,,,,,,,,,,,,,,,,,,,,,,,,,,,,,,,,,,,,,972422,001,2024-11-28_12h13.44.551,Test,2024.2.4,None,2024-11-28 12h13.51.564737 +0100,
21,150,120,67,None,53,53,0,False,left,1.0452849169960245,None,,,,,,,,0,53,53,53,,,,,,,,,348.18158583299373,,,,,,,,,,,,,,,,,,,,,,,,,,,,,,,,,,,,,,348.17562245798763,348.18158583299373,349.17051141598495,350.1653247909853,350.1653247909853,350.1653247909853,351.2171634999977,left,1.0452849169960245,None,,,,,,,,,,,,,,,,,,,,,,,,,,,,,,,,,,,,,,,,,,,972422,001,2024-11-28_12h13.44.551,Test,2024.2.4,None,2024-11-28 12h13.51.564737 +0100,
13,150,60,4,None,54,54,0,False,right,2.2206331249908544,None,,,,,,,,0,54,54,54,,,,,,,,,351.2319311659958,,,,,,,,,,,,,,,,,,,,,,,,,,,,,,,,,,,,,,351.2252686659922,351.2319311659958,352.2197804999887,353.21508987498237,353.21508987498237,353.21508987498237,355.4399797079968,right,2.2206331249908544,None,,,,,,,,,,,,,,,,,,,,,,,,,,,,,,,,,,,,,,,,,,,972422,001,2024-11-28_12h13.44.551,Test,2024.2.4,None,2024-11-28 12h13.51.564737 +0100,
58,150,120,22,None,55,55,0,True,left,0.9108657920151018,None,,,,,,,,0,55,55,55,,,,,,,,,355.4541719580011,,,,,,,,,,,,,,,,,,,,,,,,,,,,,,,,,,,,,,355.4478376249899,355.4541719580011,356.4483595409838,357.4388650000037,357.4388650000037,357.4388650000037,358.3568637499993,left,0.9108657920151018,None,,,,,,,,,,,,,,,,,,,,,,,,,,,,,,,,,,,,,,,,,,,972422,001,2024-11-28_12h13.44.551,Test,2024.2.4,None,2024-11-28 12h13.51.564737 +0100,
66,150,180,6,None,56,56,0,True,right,1.2511747909884434,None,,,,,,,,0,56,56,56,,,,,,,,,358.37119912498747,,,,,,,,,,,,,,,,,,,,,,,,,,,,,,,,,,,,,,358.36523429100635,358.37119912498747,359.36509041598765,360.3564864159853,360.3564864159853,360.3564864159853,361.6172162499861,right,1.2511747909884434,None,,,,,,,,,,,,,,,,,,,,,,,,,,,,,,,,,,,,,,,,,,,972422,001,2024-11-28_12h13.44.551,Test,2024.2.4,None,2024-11-28 12h13.51.564737 +0100,
25,150,120,61,None,57,57,0,False,left,0.9670482079964131,None,,,,,,,,0,57,57,57,,,,,,,,,361.63120441598585,,,,,,,,,,,,,,,,,,,,,,,,,,,,,,,,,,,,,,361.62524562500766,361.63120441598585,362.6200043330027,363.6150771660032,363.6150771660032,363.6150771660032,364.5844104999851,left,0.9670482079964131,None,,,,,,,,,,,,,,,,,,,,,,,,,,,,,,,,,,,,,,,,,,,972422,001,2024-11-28_12h13.44.551,Test,2024.2.4,None,2024-11-28 12h13.51.564737 +0100,
35,150,180,35,None,58,58,0,False,right,0.9217334169952665,None,,,,,,,,0,58,58,58,,,,,,,,,364.59986783299246,,,,,,,,,,,,,,,,,,,,,,,,,,,,,,,,,,,,,,364.59330662499997,364.59986783299246,365.5985383329971,366.58192475000396,366.58192475000396,366.58192475000396,367.5072087080043,right,0.9217334169952665,None,,,,,,,,,,,,,,,,,,,,,,,,,,,,,,,,,,,,,,,,,,,972422,001,2024-11-28_12h13.44.551,Test,2024.2.4,None,2024-11-28 12h13.51.564737 +0100,
9,150,30,31,None,59,59,0,False,left,3.242750250006793,None,,,,,,,,0,59,59,59,,,,,,,,,367.52167683298467,,,,,,,,,,,,,,,,,,,,,,,,,,,,,,,,,,,,,,367.5157549580035,367.52167683298467,368.5194125830021,369.50615483298316,369.50615483298316,369.50615483298316,372.7594172079989,left,3.242750250006793,None,372.5051017910009,372.5051017910009,372.5051017910009,,,,,,,,,,,,,,,,,,,,,,,,,,,,,,,,,,,,,,,,972422,001,2024-11-28_12h13.44.551,Test,2024.2.4,None,2024-11-28 12h13.51.564737 +0100,
3,150,0,27,None,60,60,0,False,right,1.3875472079962492,None,,,,,,,,0,60,60,60,,,,,,,,,372.77099791599903,,,,,,,,,,,,,,,,,,,,,,,,,,,,,,,,,,,,,,372.76643337498535,372.77099791599903,373.7650310829922,374.75624575000256,374.75624575000256,374.75624575000256,376.1509425829863,right,1.3875472079962492,None,,,,,,,,,,,,,,,,,,,,,,,,,,,,,,,,,,,,,,,,,,,972422,001,2024-11-28_12h13.44.551,Test,2024.2.4,None,2024-11-28 12h13.51.564737 +0100,
22,150,120,47,None,61,61,0,False,right,1.3396738749870565,None,,,,,,,,0,61,61,61,,,,,,,,,376.1655993750028,,,,,,,,,,,,,,,,,,,,,,,,,,,,,,,,,,,,,,376.15945137498784,376.1655993750028,377.1533186250017,378.1483867079951,378.1483867079951,378.1483867079951,379.49027420798666,right,1.3396738749870565,None,,,,,,,,,,,,,,,,,,,,,,,,,,,,,,,,,,,,,,,,,,,972422,001,2024-11-28_12h13.44.551,Test,2024.2.4,None,2024-11-28 12h13.51.564737 +0100,
12,150,60,38,None,62,62,0,False,right,1.1850709580176044,None,,,,,,,,0,62,62,62,,,,,,,,,379.50475070800167,,,,,,,,,,,,,,,,,,,,,,,,,,,,,,,,,,,,,,379.4988162909867,379.50475070800167,380.4984046659956,381.4895953749947,381.4895953749947,381.4895953749947,382.68376320798416,right,1.1850709580176044,None,,,,,,,,,,,,,,,,,,,,,,,,,,,,,,,,,,,,,,,,,,,972422,001,2024-11-28_12h13.44.551,Test,2024.2.4,None,2024-11-28 12h13.51.564737 +0100,
69,150,180,44,None,63,63,0,True,left,1.318750833015656,None,,,,,,,,0,63,63,63,,,,,,,,,382.6994784999988,,,,,,,,,,,,,,,,,,,,,,,,,,,,,,,,,,,,,,382.6926701659977,382.6994784999988,383.6983135830087,384.68195075000403,384.68195075000403,384.68195075000403,386.00734904099954,left,1.318750833015656,None,,,,,,,,,,,,,,,,,,,,,,,,,,,,,,,,,,,,,,,,,,,972422,001,2024-11-28_12h13.44.551,Test,2024.2.4,None,2024-11-28 12h13.51.564737 +0100,
32,150,180,29,None,64,64,0,False,right,1.6632262089988217,None,,,,,,,,0,64,64,64,,,,,,,,,386.0224259579845,,,,,,,,,,,,,,,,,,,,,,,,,,,,,,,,,,,,,,386.0162286249979,386.0224259579845,387.0211871659849,388.0057268750097,388.0057268750097,388.0057268750097,389.6736027080042,right,1.6632262089988217,None,,,,,,,,,,,,,,,,,,,,,,,,,,,,,,,,,,,,,,,,,,,972422,001,2024-11-28_12h13.44.551,Test,2024.2.4,None,2024-11-28 12h13.51.564737 +0100,
24,150,120,54,None,65,65,0,False,right,1.1668819999904372,None,,,,,,,,0,65,65,65,,,,,,,,,389.68677345800097,,,,,,,,,,,,,,,,,,,,,,,,,,,,,,,,,,,,,,389.68081341599463,389.68677345800097,390.68185037499643,391.6733864999842,391.6733864999842,391.6733864999842,392.8506064999965,right,1.1668819999904372,None,,,,,,,,,,,,,,,,,,,,,,,,,,,,,,,,,,,,,,,,,,,972422,001,2024-11-28_12h13.44.551,Test,2024.2.4,None,2024-11-28 12h13.51.564737 +0100,
2,150,0,11,None,66,66,0,False,right,2.840156999998726,None,,,,,,,,0,66,66,66,,,,,,,,,392.86600529099815,,,,,,,,,,,,,,,,,,,,,,,,,,,,,,,,,,,,,,392.859021915996,392.86600529099815,393.8650380409963,394.84842249998474,394.84842249998474,394.84842249998474,397.69083537498955,right,2.840156999998726,None,,,,,,,,,,,,,,,,,,,,,,,,,,,,,,,,,,,,,,,,,,,972422,001,2024-11-28_12h13.44.551,Test,2024.2.4,None,2024-11-28 12h13.51.564737 +0100,
10,150,30,41,None,67,67,0,False,left,0.8202270419860724,None,,,,,,,,0,67,67,67,,,,,,,,,397.7060512909957,,,,,,,,,,,,,,,,,,,,,,,,,,,,,,,,,,,,,,397.6996023329848,397.7060512909957,398.7036630829971,399.6882269580092,399.6882269580092,399.6882269580092,400.5170698330039,left,0.8202270419860724,None,,,,,,,,,,,,,,,,,,,,,,,,,,,,,,,,,,,,,,,,,,,972422,001,2024-11-28_12h13.44.551,Test,2024.2.4,None,2024-11-28 12h13.51.564737 +0100,
26,150,150,26,None,68,68,0,False,left,1.117293957999209,None,,,,,,,,0,68,68,68,,,,,,,,,400.5320137910021,,,,,,,,,,,,,,,,,,,,,,,,,,,,,,,,,,,,,,400.5251369579928,400.5320137910021,401.5198357499903,402.51521670800867,402.51521670800867,402.51521670800867,403.6438057909836,left,1.117293957999209,None,,,,,,,,,,,,,,,,,,,,,,,,,,,,,,,,,,,,,,,,,,,972422,001,2024-11-28_12h13.44.551,Test,2024.2.4,None,2024-11-28 12h13.51.564737 +0100,
61,150,150,5,None,69,69,0,True,left,1.0702024160127621,None,,,,,,,,0,69,69,69,,,,,,,,,403.6557136249903,,,,,,,,,,,,,,,,,,,,,,,,,,,,,,,,,,,,,,403.6511134580069,403.6557136249903,404.65295287501067,405.6385248329898,405.6385248329898,405.6385248329898,406.717962833005,left,1.0702024160127621,None,,,,,,,,,,,,,,,,,,,,,,,,,,,,,,,,,,,,,,,,,,,972422,001,2024-11-28_12h13.44.551,Test,2024.2.4,None,2024-11-28 12h13.51.564737 +0100,
,,,,,,,,,,,,,,,,,,,,,,,,,,,,,,,,,,,,,,,,,,,,,,,,,,,,,,,,,,,,,,,,,,,,,,,,,,,,,,,,,,406.7183243749896,406.72833174999687,406.72833174999687,433.5335958749929,space,26.79741041600937,None,,,,,,,,,,,,,,,,,,,,,,,,,,,,,,,,,972422,001,2024-11-28_12h13.44.551,Test,2024.2.4,None,2024-11-28 12h13.51.564737 +0100,
29,150,150,3,None,0,0,0,,,,,,,,,,,,,,,,0,0,0,28,,,,,433.55837095799507,,,,,,,,,,,,,,,,,,,,,,,,,,,,,,,,,,,,,,,,,,,,,,,,,,,,,,,,,,433.5498024999979,433.55837095799507,433.73181570798624,433.73181570798624,433.7565994579927,435.43029537500115,435.43029537500115,435.41625791598926,,,,,,,,,,,,,,,,,,,,,,,,,972422,001,2024-11-28_12h13.44.551,Test,2024.2.4,None,2024-11-28 12h13.51.564737 +0100,
34,150,180,45,None,1,1,0,,,,,,,,,,,,,,,,0,1,1,33,,,,,435.43029537500115,,,,,,,,,,,,,,,,,,,,,,,,,,,,,,,,,,,,,,,,,,,,,,,,,,,,,,,,,,435.4255348329898,435.4341352909978,435.6317841249984,435.6317841249984,435.6317841249984,437.3294714159856,437.3294714159856,437.3162821249862,,,,,,,,,,,,,,,,,,,,,,,,,972422,001,2024-11-28_12h13.44.551,Test,2024.2.4,None,2024-11-28 12h13.51.564737 +0100,
31,150,180,33,None,2,2,0,,,,,,,,,,,,,,,,0,2,2,30,,,,,437.3294714159856,,,,,,,,,,,,,,,,,,,,,,,,,,,,,,,,,,,,,,,,,,,,,,,,,,,,,,,,,,437.32453141600126,437.3342755000049,437.5316906250082,437.5316906250082,437.5316906250082,439.2292818329879,439.2292818329879,439.21623308298877,,,,,,,,,,,,,,,,,,,,,,,,,972422,001,2024-11-28_12h13.44.551,Test,2024.2.4,None,2024-11-28 12h13.51.564737 +0100,
7,150,30,70,None,3,3,0,,,,,,,,,,,,,,,,0,3,3,6,,,,,439.2292818329879,,,,,,,,,,,,,,,,,,,,,,,,,,,,,,,,,,,,,,,,,,,,,,,,,,,,,,,,,,439.22433429100784,439.23407237499487,439.4317683329864,439.4317683329864,439.4317683329864,441.129093666008,441.129093666008,441.1159598749946,,,,,,,,,,,,,,,,,,,,,,,,,972422,001,2024-11-28_12h13.44.551,Test,2024.2.4,None,2024-11-28 12h13.51.564737 +0100,
35,150,180,35,None,4,4,0,,,,,,,,,,,,,,,,0,4,4,34,,,,,441.129093666008,,,,,,,,,,,,,,,,,,,,,,,,,,,,,,,,,,,,,,,,,,,,,,,,,,,,,,,,,,441.12410679098684,441.1339116249874,441.33168745800504,441.33168745800504,441.33168745800504,443.0297009579954,443.0297009579954,443.0161360829952,,,,,,,,,,,,,,,,,,,,,,,,,972422,001,2024-11-28_12h13.44.551,Test,2024.2.4,None,2024-11-28 12h13.51.564737 +0100,
23,150,120,16,None,5,5,0,,,,,,,,,,,,,,,,0,5,5,22,,,,,443.0297009579954,,,,,,,,,,,,,,,,,,,,,,,,,,,,,,,,,,,,,,,,,,,,,,,,,,,,,,,,,,443.024673582986,443.0335990409949,443.2316922910104,443.2316922910104,443.2316922910104,444.92895487500937,444.92895487500937,444.9160956660053,,,,,,,,,,,,,,,,,,,,,,,,,972422,001,2024-11-28_12h13.44.551,Test,2024.2.4,None,2024-11-28 12h13.51.564737 +0100,
27,150,150,1,None,6,6,0,,,,,,,,,,,,,,,,0,6,6,26,,,,,444.92895487500937,,,,,,,,,,,,,,,,,,,,,,,,,,,,,,,,,,,,,,,,,,,,,,,,,,,,,,,,,,444.9240366249869,444.93353079099325,445.13186154098366,445.13186154098366,445.13186154098366,446.8308719159977,446.8308719159977,446.8161679999903,,,,,,,,,,,,,,,,,,,,,,,,,972422,001,2024-11-28_12h13.44.551,Test,2024.2.4,None,2024-11-28 12h13.51.564737 +0100,
19,150,90,24,None,7,7,0,,,,,,,,,,,,,,,,0,7,7,18,,,,,446.8308719159977,,,,,,,,,,,,,,,,,,,,,,,,,,,,,,,,,,,,,,,,,,,,,,,,,,,,,,,,,,446.82579762500245,446.8352444579941,447.0317030409933,447.0317030409933,447.0317030409933,448.72954695799854,448.72954695799854,448.7160411250079,,,,,,,,,,,,,,,,,,,,,,,,,972422,001,2024-11-28_12h13.44.551,Test,2024.2.4,None,2024-11-28 12h13.51.564737 +0100,
14,150,60,30,None,8,8,0,,,,,,,,,,,,,,,,0,8,8,13,,,,,448.72954695799854,,,,,,,,,,,,,,,,,,,,,,,,,,,,,,,,,,,,,,,,,,,,,,,,,,,,,,,,,,448.724711791001,448.7342959159869,448.93200445800903,448.93200445800903,448.93200445800903,450.62964808300603,450.62964808300603,450.6161432499939,,,,,,,,,,,,,,,,,,,,,,,,,972422,001,2024-11-28_12h13.44.551,Test,2024.2.4,None,2024-11-28 12h13.51.564737 +0100,
10,150,30,41,None,9,9,0,,,,,,,,,,,,,,,,0,9,9,9,,,,,450.62964808300603,,,,,,,,,,,,,,,,,,,,,,,,,,,,,,,,,,,,,,,,,,,,,,,,,,,,,,,,,,450.62472858300316,450.6335907909961,450.8318563750072,450.8318563750072,450.8318563750072,452.52964483300457,452.52964483300457,452.5159533749975,,,,,,,,,,,,,,,,,,,,,,,,,972422,001,2024-11-28_12h13.44.551,Test,2024.2.4,None,2024-11-28 12h13.51.564737 +0100,
13,150,60,4,None,10,10,0,,,,,,,,,,,,,,,,0,10,10,12,,,,,452.52964483300457,,,,,,,,,,,,,,,,,,,,,,,,,,,,,,,,,,,,,,,,,,,,,,,,,,,,,,,,,,452.5246634579962,452.53459316599765,452.73197820800124,452.73197820800124,452.73197820800124,454.42832170799375,454.42832170799375,454.41587383300066,,,,,,,,,,,,,,,,,,,,,,,,,972422,001,2024-11-28_12h13.44.551,Test,2024.2.4,None,2024-11-28 12h13.51.564737 +0100,
9,150,30,31,None,11,11,0,,,,,,,,,,,,,,,,0,11,11,8,,,,,454.42832170799375,,,,,,,,,,,,,,,,,,,,,,,,,,,,,,,,,,,,,,,,,,,,,,,,,,,,,,,,,,454.42341354099335,454.4327524160035,454.63184191600885,454.63184191600885,454.62039645799086,456.32936966599664,456.32936966599664,456.3159383329912,,,,,,,,,,,,,,,,,,,,,,,,,972422,001,2024-11-28_12h13.44.551,Test,2024.2.4,None,2024-11-28 12h13.51.564737 +0100,
22,150,120,47,None,12,12,0,,,,,,,,,,,,,,,,0,12,12,21,,,,,456.32936966599664,,,,,,,,,,,,,,,,,,,,,,,,,,,,,,,,,,,,,,,,,,,,,,,,,,,,,,,,,,456.3244117499853,456.33445724999183,456.5317068749864,456.5317068749864,456.5317068749864,458.2297420410032,458.2297420410032,458.21613241598243,,,,,,,,,,,,,,,,,,,,,,,,,972422,001,2024-11-28_12h13.44.551,Test,2024.2.4,None,2024-11-28 12h13.51.564737 +0100,
3,150,0,27,None,13,13,0,,,,,,,,,,,,,,,,0,13,13,2,,,,,458.2297420410032,,,,,,,,,,,,,,,,,,,,,,,,,,,,,,,,,,,,,,,,,,,,,,,,,,,,,,,,,,458.2247897500056,458.2348405410012,458.4317632910097,458.4317632910097,458.4317632910097,460.12859833298717,460.12859833298717,460.1160847909923,,,,,,,,,,,,,,,,,,,,,,,,,972422,001,2024-11-28_12h13.44.551,Test,2024.2.4,None,2024-11-28 12h13.51.564737 +0100,
15,150,60,12,None,14,14,0,,,,,,,,,,,,,,,,0,14,14,14,,,,,460.12859833298717,,,,,,,,,,,,,,,,,,,,,,,,,,,,,,,,,,,,,,,,,,,,,,,,,,,,,,,,,,460.1236619160045,460.1332192499831,460.33164708298864,460.33164708298864,460.33164708298864,462.02971050000633,462.02971050000633,462.0165947499918,,,,,,,,,,,,,,,,,,,,,,,,,972422,001,2024-11-28_12h13.44.551,Test,2024.2.4,None,2024-11-28 12h13.51.564737 +0100,
6,150,30,68,None,15,15,0,,,,,,,,,,,,,,,,0,15,15,5,,,,,462.02971050000633,,,,,,,,,,,,,,,,,,,,,,,,,,,,,,,,,,,,,,,,,,,,,,,,,,,,,,,,,,462.0247963749862,462.03455708301044,462.23165754100773,462.23165754100773,462.23165754100773,463.9289961250033,463.9289961250033,463.9159725829959,,,,,,,,,,,,,,,,,,,,,,,,,972422,001,2024-11-28_12h13.44.551,Test,2024.2.4,None,2024-11-28 12h13.51.564737 +0100,
18,150,90,10,None,16,16,0,,,,,,,,,,,,,,,,0,16,16,17,,,,,463.9289961250033,,,,,,,,,,,,,,,,,,,,,,,,,,,,,,,,,,,,,,,,,,,,,,,,,,,,,,,,,,463.92407783298404,463.9335089160013,464.13209220799035,464.13209220799035,464.13209220799035,465.8292080000101,465.8292080000101,465.81599400000414,,,,,,,,,,,,,,,,,,,,,,,,,972422,001,2024-11-28_12h13.44.551,Test,2024.2.4,None,2024-11-28 12h13.51.564737 +0100,
33,150,180,48,None,17,17,0,,,,,,,,,,,,,,,,0,17,17,32,,,,,465.8292080000101,,,,,,,,,,,,,,,,,,,,,,,,,,,,,,,,,,,,,,,,,,,,,,,,,,,,,,,,,,465.82427983300295,465.83403337499476,466.0316593750031,466.0316593750031,466.0316593750031,467.7296809160034,467.7296809160034,467.71622962498805,,,,,,,,,,,,,,,,,,,,,,,,,972422,001,2024-11-28_12h13.44.551,Test,2024.2.4,None,2024-11-28 12h13.51.564737 +0100,
4,150,0,43,None,18,18,0,,,,,,,,,,,,,,,,0,18,18,3,,,,,467.7296809160034,,,,,,,,,,,,,,,,,,,,,,,,,,,,,,,,,,,,,,,,,,,,,,,,,,,,,,,,,,467.7247082910035,467.73358795800596,467.9318186249875,467.9318186249875,467.9318186249875,469.62914129099227,469.62914129099227,469.6161609159899,,,,,,,,,,,,,,,,,,,,,,,,,972422,001,2024-11-28_12h13.44.551,Test,2024.2.4,None,2024-11-28 12h13.51.564737 +0100,
12,150,60,38,None,19,19,0,,,,,,,,,,,,,,,,0,19,19,11,,,,,469.62914129099227,,,,,,,,,,,,,,,,,,,,,,,,,,,,,,,,,,,,,,,,,,,,,,,,,,,,,,,,,,469.62425787499524,469.6340642499854,469.83182245798525,469.83182245798525,469.83182245798525,471.5289413749997,471.5289413749997,471.51613033300964,,,,,,,,,,,,,,,,,,,,,,,,,972422,001,2024-11-28_12h13.44.551,Test,2024.2.4,None,2024-11-28 12h13.51.564737 +0100,
11,150,60,52,None,20,20,0,,,,,,,,,,,,,,,,0,20,20,10,,,,,471.5289413749997,,,,,,,,,,,,,,,,,,,,,,,,,,,,,,,,,,,,,,,,,,,,,,,,,,,,,,,,,,471.52419774999726,471.53364824998425,471.7318920829857,471.7318920829857,471.7318920829857,473.4289467080089,473.4289467080089,473.41600491598365,,,,,,,,,,,,,,,,,,,,,,,,,972422,001,2024-11-28_12h13.44.551,Test,2024.2.4,None,2024-11-28 12h13.51.564737 +0100,
5,150,0,39,None,21,21,0,,,,,,,,,,,,,,,,0,21,21,4,,,,,473.4289467080089,,,,,,,,,,,,,,,,,,,,,,,,,,,,,,,,,,,,,,,,,,,,,,,,,,,,,,,,,,473.42390883300686,473.4339644580032,473.63180195799214,473.63180195799214,473.63180195799214,475.3293625410006,475.3293625410006,475.31613649998326,,,,,,,,,,,,,,,,,,,,,,,,,972422,001,2024-11-28_12h13.44.551,Test,2024.2.4,None,2024-11-28 12h13.51.564737 +0100,
17,150,90,60,None,22,22,0,,,,,,,,,,,,,,,,0,22,22,16,,,,,475.3293625410006,,,,,,,,,,,,,,,,,,,,,,,,,,,,,,,,,,,,,,,,,,,,,,,,,,,,,,,,,,475.32440512499306,475.33457245799946,475.53189641601057,475.53189641601057,475.53189641601057,477.2288382909901,477.2288382909901,477.2158077080094,,,,,,,,,,,,,,,,,,,,,,,,,972422,001,2024-11-28_12h13.44.551,Test,2024.2.4,None,2024-11-28 12h13.51.564737 +0100,
30,150,150,34,None,23,23,0,,,,,,,,,,,,,,,,0,23,23,29,,,,,477.2288382909901,,,,,,,,,,,,,,,,,,,,,,,,,,,,,,,,,,,,,,,,,,,,,,,,,,,,,,,,,,477.2239183750062,477.23287891599466,477.43179145798786,477.43179145798786,477.42082187498454,479.12931316599133,479.12931316599133,479.1162299159914,,,,,,,,,,,,,,,,,,,,,,,,,972422,001,2024-11-28_12h13.44.551,Test,2024.2.4,None,2024-11-28 12h13.51.564737 +0100,
16,150,90,2,None,24,24,0,,,,,,,,,,,,,,,,0,24,24,15,,,,,479.12931316599133,,,,,,,,,,,,,,,,,,,,,,,,,,,,,,,,,,,,,,,,,,,,,,,,,,,,,,,,,,479.12436575000174,479.13438954099547,479.3316356659925,479.3316356659925,479.3316356659925,481.0294853329833,481.0294853329833,481.0159515409905,,,,,,,,,,,,,,,,,,,,,,,,,972422,001,2024-11-28_12h13.44.551,Test,2024.2.4,None,2024-11-28 12h13.51.564737 +0100,
25,150,120,61,None,25,25,0,,,,,,,,,,,,,,,,0,25,25,24,,,,,481.0294853329833,,,,,,,,,,,,,,,,,,,,,,,,,,,,,,,,,,,,,,,,,,,,,,,,,,,,,,,,,,481.0246589999879,481.0342108749901,481.2317186660075,481.2317186660075,481.2317186660075,482.9292765829887,482.9292765829887,482.9160577910079,,,,,,,,,,,,,,,,,,,,,,,,,972422,001,2024-11-28_12h13.44.551,Test,2024.2.4,None,2024-11-28 12h13.51.564737 +0100,
24,150,120,54,None,26,26,0,,,,,,,,,,,,,,,,0,26,26,23,,,,,482.9292765829887,,,,,,,,,,,,,,,,,,,,,,,,,,,,,,,,,,,,,,,,,,,,,,,,,,,,,,,,,,482.9244644579885,482.9339238329849,483.1321693749924,483.1321693749924,483.1321693749924,484.82983091598726,484.82983091598726,484.81593837498804,,,,,,,,,,,,,,,,,,,,,,,,,972422,001,2024-11-28_12h13.44.551,Test,2024.2.4,None,2024-11-28 12h13.51.564737 +0100,
32,150,180,29,None,27,27,0,,,,,,,,,,,,,,,,0,27,27,31,,,,,484.82983091598726,,,,,,,,,,,,,,,,,,,,,,,,,,,,,,,,,,,,,,,,,,,,,,,,,,,,,,,,,,484.8249515409989,484.8344090000028,485.0318640829937,485.0318640829937,485.0318640829937,486.72723837499507,486.72723837499507,486.7160251250025,,,,,,,,,,,,,,,,,,,,,,,,,972422,001,2024-11-28_12h13.44.551,Test,2024.2.4,None,2024-11-28 12h13.51.564737 +0100,
20,150,90,56,None,28,28,0,,,,,,,,,,,,,,,,0,28,28,19,,,,,486.72723837499507,,,,,,,,,,,,,,,,,,,,,,,,,,,,,,,,,,,,,,,,,,,,,,,,,,,,,,,,,,486.72225758299464,486.732940707996,486.9317373329832,486.9317373329832,486.9317373329832,488.6296175410098,488.6296175410098,488.6160227500077,,,,,,,,,,,,,,,,,,,,,,,,,972422,001,2024-11-28_12h13.44.551,Test,2024.2.4,None,2024-11-28 12h13.51.564737 +0100,
8,150,30,20,None,29,29,0,,,,,,,,,,,,,,,,0,29,29,7,,,,,488.6296175410098,,,,,,,,,,,,,,,,,,,,,,,,,,,,,,,,,,,,,,,,,,,,,,,,,,,,,,,,,,488.6246819999942,488.6347629579832,488.8317442499974,488.8317442499974,488.8317442499974,490.52893529098947,490.52893529098947,490.5162758329825,,,,,,,,,,,,,,,,,,,,,,,,,972422,001,2024-11-28_12h13.44.551,Test,2024.2.4,None,2024-11-28 12h13.51.564737 +0100,
21,150,120,67,None,30,30,0,,,,,,,,,,,,,,,,0,30,30,20,,,,,490.52893529098947,,,,,,,,,,,,,,,,,,,,,,,,,,,,,,,,,,,,,,,,,,,,,,,,,,,,,,,,,,490.52399824999156,490.53393095798674,490.7318866660062,490.7318866660062,490.7318866660062,492.43430900000385,492.43430900000385,492.4202482079854,,,,,,,,,,,,,,,,,,,,,,,,,972422,001,2024-11-28_12h13.44.551,Test,2024.2.4,None,2024-11-28 12h13.51.564737 +0100,
2,150,0,11,None,31,31,0,,,,,,,,,,,,,,,,0,31,31,1,,,,,492.43430900000385,,,,,,,,,,,,,,,,,,,,,,,,,,,,,,,,,,,,,,,,,,,,,,,,,,,,,,,,,,492.4298386249866,492.43430900000385,492.6316989159968,492.6316989159968,492.6316989159968,494.33097866599564,494.33097866599564,494.3159127079998,,,,,,,,,,,,,,,,,,,,,,,,,972422,001,2024-11-28_12h13.44.551,Test,2024.2.4,None,2024-11-28 12h13.51.564737 +0100,
26,150,150,26,None,32,32,0,,,,,,,,,,,,,,,,0,32,32,25,,,,,494.33097866599564,,,,,,,,,,,,,,,,,,,,,,,,,,,,,,,,,,,,,,,,,,,,,,,,,,,,,,,,,,494.3257508749957,494.33504454098875,494.53185887500877,494.53185887500877,494.53185887500877,496.22936774999835,496.22936774999835,496.21616366598755,,,,,,,,,,,,,,,,,,,,,,,,,972422,001,2024-11-28_12h13.44.551,Test,2024.2.4,None,2024-11-28 12h13.51.564737 +0100,
1,150,0,19,None,33,33,0,,,,,,,,,,,,,,,,0,33,33,0,,,,,496.22936774999835,,,,,,,,,,,,,,,,,,,,,,,,,,,,,,,,,,,,,,,,,,,,,,,,,,,,,,,,,,496.2240821660089,496.23468037499697,496.4319939579873,496.4319939579873,496.4319939579873,498.1299164159864,498.1299164159864,498.1160602500022,,,,,,,,,,,,,,,,,,,,,,,,,972422,001,2024-11-28_12h13.44.551,Test,2024.2.4,None,2024-11-28 12h13.51.564737 +0100,
28,150,150,64,None,34,34,0,,,,,,,,,,,,,,,,0,34,34,27,,,,,498.1299164159864,,,,,,,,,,,,,,,,,,,,,,,,,,,,,,,,,,,,,,,,,,,,,,,,,,,,,,,,,,498.12482170798467,498.1346669580089,498.3318549579999,498.3318549579999,498.3318549579999,500.02138854100485,500.02138854100485,500.0161289579992,,,,,,,,,,,,,,,,,,,,,,,,,972422,001,2024-11-28_12h13.44.551,Test,2024.2.4,None,2024-11-28 12h13.51.564737 +0100,
,,,,,,,,,,,,,,,,,,,,,,,,,,,,,,,,,,,,,,,,,,,,,,,,,,,,,,,,,,,,,,,,,,,,,,,,,,,,,,,,,,,,,,,,,,,,,,,,,500.016378625005,500.0311353750003,500.0311353750003,503.1041259999911,space,3.0580494590103626,None,,,,,,,,,,,,,,,,,,972422,001,2024-11-28_12h13.44.551,Test,2024.2.4,None,2024-11-28 12h13.51.564737 +0100,
23,150,120,16,None,0,0,0,False,,,,right,0.6063671669980977,None,,,,,,,,,,,,,0,0,0,0,503.1950936249923,,,,,,,,,,,,,,,,,,,,,,,,,,,,,,,,,,,,,,,,,,,,,,,,,,,,,,,,,,,,,,,,,,,,,,,,,503.1914561660087,503.1950936249923,504.18694650000543,505.09839470800944,505.09839470800944,505.09839470800944,505.70712645800086,right,0.6063671669980977,None,,,,,,,,972422,001,2024-11-28_12h13.44.551,Test,2024.2.4,None,2024-11-28 12h13.51.564737 +0100,
65,150,150,13,None,1,1,0,True,,,,left,0.9263677910203114,None,,,,,,,,,,,,,0,1,1,1,505.7229922080005,,,,,,,,,,,,,,,,,,,,,,,,,,,,,,,,,,,,,,,,,,,,,,,,,,,,,,,,,,,,,,,,,,,,,,,,,505.7159656659933,505.7229922080005,506.7203490000102,507.7060729159857,507.7060729159857,507.7060729159857,508.6433439159882,left,0.9263677910203114,None,,,,,,,,972422,001,2024-11-28_12h13.44.551,Test,2024.2.4,None,2024-11-28 12h13.51.564737 +0100,
29,150,150,3,None,2,2,0,False,,,,left,0.847137249977095,None,,,,,,,,,,,,,0,2,2,2,508.65533162499196,,,,,,,,,,,,,,,,,,,,,,,,,,,,,,,,,,,,,,,,,,,,,,,,,,,,,,,,,,,,,,,,,,,,,,,,,508.65061537499423,508.65533162499196,509.65426241600653,510.63878591600223,510.63878591600223,510.63878591600223,511.48997575000976,left,0.847137249977095,None,,,,,,,,972422,001,2024-11-28_12h13.44.551,Test,2024.2.4,None,2024-11-28 12h13.51.564737 +0100,
50,150,60,65,None,3,3,0,True,,,,left,0.9107214160030708,None,,,,,,,,,,,,,0,3,3,3,511.50457195800846,,,,,,,,,,,,,,,,,,,,,,,,,,,,,,,,,,,,,,,,,,,,,,,,,,,,,,,,,,,,,,,,,,,,,,,,,511.49744466599077,511.50457195800846,512.4983757500013,513.4889052909857,513.4889052909857,513.4889052909857,514.4066684579884,left,0.9107214160030708,None,,,,,,,,972422,001,2024-11-28_12h13.44.551,Test,2024.2.4,None,2024-11-28 12h13.51.564737 +0100,
31,150,180,33,None,4,4,0,False,,,,right,0.6995894580031745,None,,,,,,,,,,,,,0,4,4,4,514.4189135409833,,,,,,,,,,,,,,,,,,,,,,,,,,,,,,,,,,,,,,,,,,,,,,,,,,,,,,,,,,,,,,,,,,,,,,,,,514.4135673749843,514.4189135409833,515.4150093329954,516.40548687501,516.40548687501,516.40548687501,517.1074431659945,right,0.6995894580031745,None,,,,,,,,972422,001,2024-11-28_12h13.44.551,Test,2024.2.4,None,2024-11-28 12h13.51.564737 +0100,
43,150,30,8,None,5,5,0,True,,,,left,0.9001663340022787,None,,,,,,,,,,,,,0,5,5,5,517.1247219580109,,,,,,,,,,,,,,,,,,,,,,,,,,,,,,,,,,,,,,,,,,,,,,,,,,,,,,,,,,,,,,,,,,,,,,,,,517.1165252909996,517.1247219580109,518.120256041002,519.1055006250099,519.1055006250099,519.1055006250099,520.017574041005,left,0.9001663340022787,None,,,,,,,,972422,001,2024-11-28_12h13.44.551,Test,2024.2.4,None,2024-11-28 12h13.51.564737 +0100,
5,150,0,39,None,6,6,0,False,,,,right,0.7004735409864224,None,,,,,,,,,,,,,0,6,6,6,520.033935665997,,,,,,,,,,,,,,,,,,,,,,,,,,,,,,,,,,,,,,,,,,,,,,,,,,,,,,,,,,,,,,,,,,,,,,,,,520.0267541249923,520.033935665997,521.0317623750016,522.0153759579989,522.0153759579989,522.0153759579989,522.726577666006,right,0.7004735409864224,None,,,,,,,,972422,001,2024-11-28_12h13.44.551,Test,2024.2.4,None,2024-11-28 12h13.51.564737 +0100,
34,150,180,45,None,7,7,0,False,,,,right,0.910509290988557,None,,,,,,,,,,,,,0,7,7,7,522.7387393749959,,,,,,,,,,,,,,,,,,,,,,,,,,,,,,,,,,,,,,,,,,,,,,,,,,,,,,,,,,,,,,,,,,,,,,,,,522.7341478749877,522.7387393749959,523.7361621659948,524.7219139999943,524.7219139999943,524.7219139999943,525.643506458,right,0.910509290988557,None,,,,,,,,972422,001,2024-11-28_12h13.44.551,Test,2024.2.4,None,2024-11-28 12h13.51.564737 +0100,
39,150,0,62,None,8,8,0,True,,,,left,0.7777476249902975,None,,,,,,,,,,,,,0,8,8,8,525.6612387080095,,,,,,,,,,,,,,,,,,,,,,,,,,,,,,,,,,,,,,,,,,,,,,,,,,,,,,,,,,,,,,,,,,,,,,,,,525.6565303329844,525.6612387080095,526.6536572499899,527.6407931660069,527.6407931660069,527.6407931660069,528.4228032910032,left,0.7777476249902975,None,,,,,,,,972422,001,2024-11-28_12h13.44.551,Test,2024.2.4,None,2024-11-28 12h13.51.564737 +0100,
67,150,180,53,None,9,9,0,True,,,,left,1.1937847090011928,None,,,,,,,,,,,,,0,9,9,9,528.4385292500083,,,,,,,,,,,,,,,,,,,,,,,,,,,,,,,,,,,,,,,,,,,,,,,,,,,,,,,,,,,,,,,,,,,,,,,,,528.4322600000014,528.4385292500083,529.4370345830102,530.4231753750064,530.4231753750064,530.4231753750064,531.6235686249856,left,1.1937847090011928,None,,,,,,,,972422,001,2024-11-28_12h13.44.551,Test,2024.2.4,None,2024-11-28 12h13.51.564737 +0100,
40,150,0,28,None,10,10,0,True,,,,left,1.2344193329918198,None,,,,,,,,,,,,,0,10,10,10,531.6390875829966,,,,,,,,,,,,,,,,,,,,,,,,,,,,,,,,,,,,,,,,,,,,,,,,,,,,,,,,,,,,,,,,,,,,,,,,,531.6326196659938,531.6390875829966,532.6363573329872,533.6219317080104,533.6219317080104,533.6219317080104,534.8671422909829,left,1.2344193329918198,None,,,,,,,,972422,001,2024-11-28_12h13.44.551,Test,2024.2.4,None,2024-11-28 12h13.51.564737 +0100,
44,150,30,18,None,11,11,0,True,,,,left,0.9684897499973886,None,,,,,,,,,,,,,0,11,11,11,534.8822091659822,,,,,,,,,,,,,,,,,,,,,,,,,,,,,,,,,,,,,,,,,,,,,,,,,,,,,,,,,,,,,,,,,,,,,,,,,534.8755284580111,534.8822091659822,535.870226250001,536.8651655830035,536.8651655830035,536.8651655830035,537.8403397910006,left,0.9684897499973886,None,,,,,,,,972422,001,2024-11-28_12h13.44.551,Test,2024.2.4,None,2024-11-28 12h13.51.564737 +0100,
27,150,150,1,None,12,12,0,False,,,,left,1.885133500007214,None,,,,,,,,,,,,,0,12,12,12,537.8558944159886,,,,,,,,,,,,,,,,,,,,,,,,,,,,,,,,,,,,,,,,,,,,,,,,,,,,,,,,,,,,,,,,,,,,,,,,,537.8492981249874,537.8558944159886,538.8533667910087,539.8389582079835,539.8389582079835,539.8389582079835,541.7338175409823,left,1.885133500007214,None,,,,,,,,972422,001,2024-11-28_12h13.44.551,Test,2024.2.4,None,2024-11-28 12h13.51.564737 +0100,
11,150,60,52,None,13,13,0,False,,,,right,1.1098086670099292,None,,,,,,,,,,,,,0,13,13,13,541.7489519160008,,,,,,,,,,,,,,,,,,,,,,,,,,,,,,,,,,,,,,,,,,,,,,,,,,,,,,,,,,,,,,,,,,,,,,,,,541.7427131659933,541.7489519160008,542.7372179999948,543.7318987500039,543.7318987500039,543.7318987500039,544.8505902909965,right,1.1098086670099292,None,,,,,,,,972422,001,2024-11-28_12h13.44.551,Test,2024.2.4,None,2024-11-28 12h13.51.564737 +0100,
46,150,60,58,None,14,14,0,True,,,,left,1.1084871659986675,None,,,,,,,,,,,,,0,14,14,14,544.8658026659978,,,,,,,,,,,,,,,,,,,,,,,,,,,,,,,,,,,,,,,,,,,,,,,,,,,,,,,,,,,,,,,,,,,,,,,,,544.8589788750105,544.8658026659978,545.8538544999901,546.848480124987,546.848480124987,546.848480124987,547.9673212500056,left,1.1084871659986675,None,,,,,,,,972422,001,2024-11-28_12h13.44.551,Test,2024.2.4,None,2024-11-28 12h13.51.564737 +0100,
68,150,180,46,None,15,15,0,True,,,,left,1.4096671670267824,None,,,,,,,,,,,,,0,15,15,15,547.9824760000047,,,,,,,,,,,,,,,,,,,,,,,,,,,,,,,,,,,,,,,,,,,,,,,,,,,,,,,,,,,,,,,,,,,,,,,,,547.9756182499987,547.9824760000047,548.9700580000062,549.9650751659938,549.9650751659938,549.9650751659938,551.383678290993,left,1.4096671670267824,None,,,,,,,,972422,001,2024-11-28_12h13.44.551,Test,2024.2.4,None,2024-11-28 12h13.51.564737 +0100,
41,150,30,40,None,16,16,0,True,,,,left,0.9167109999980312,None,,,,,,,,,,,,,0,16,16,16,551.398695040989,,,,,,,,,,,,,,,,,,,,,,,,,,,,,,,,,,,,,,,,,,,,,,,,,,,,,,,,,,,,,,,,,,,,,,,,,551.3924797500076,551.398695040989,552.386857415986,553.3818575000041,553.3818575000041,553.3818575000041,554.3013067079883,left,0.9167109999980312,None,,,,,,,,972422,001,2024-11-28_12h13.44.551,Test,2024.2.4,None,2024-11-28 12h13.51.564737 +0100,
51,150,90,50,None,17,17,0,True,,,,right,0.733336875011446,None,,,,,,,,,,,,,0,17,17,17,554.3161546250049,,,,,,,,,,,,,,,,,,,,,,,,,,,,,,,,,,,,,,,,,,,,,,,,,,,,,,,,,,,,,,,,,,,,,,,,,554.3096038329822,554.3161546250049,555.31501320799,556.2986815409968,556.2986815409968,556.2986815409968,557.0348573749943,right,0.733336875011446,None,,,,,,,,972422,001,2024-11-28_12h13.44.551,Test,2024.2.4,None,2024-11-28 12h13.51.564737 +0100,
6,150,30,68,None,18,18,0,False,,,,right,1.2283585830009542,None,,,,,,,,,,,,,0,18,18,18,557.0491286659962,,,,,,,,,,,,,,,,,,,,,,,,,,,,,,,,,,,,,,,,,,,,,,,,,,,,,,,,,,,,,,,,,,,,,,,,,557.0431127499905,557.0491286659962,558.0370794159826,559.0318405829894,559.0318405829894,559.0318405829894,560.2681282080011,right,1.2283585830009542,None,,,,,,,,972422,001,2024-11-28_12h13.44.551,Test,2024.2.4,None,2024-11-28 12h13.51.564737 +0100,
70,150,180,17,None,19,19,0,True,,,,right,1.1110434160218574,None,,,,,,,,,,,,,0,19,19,19,560.2837756249937,,,,,,,,,,,,,,,,,,,,,,,,,,,,,,,,,,,,,,,,,,,,,,,,,,,,,,,,,,,,,,,,,,,,,,,,,560.2768581249984,560.2837756249937,561.2817726659996,562.2651274160016,562.2651274160016,562.2651274160016,563.3837661659927,right,1.1110434160218574,None,,,,,,,,972422,001,2024-11-28_12h13.44.551,Test,2024.2.4,None,2024-11-28 12h13.51.564737 +0100,
7,150,30,70,None,20,20,0,False,,,,right,0.667205208010273,None,,,,,,,,,,,,,0,20,20,20,563.3981528329896,,,,,,,,,,,,,,,,,,,,,,,,,,,,,,,,,,,,,,,,,,,,,,,,,,,,,,,,,,,,,,,,,,,,,,,,,563.3919389160001,563.3981528329896,564.3869414579822,565.3817647910037,565.3817647910037,565.3817647910037,566.0518983329821,right,0.667205208010273,None,,,,,,,,972422,001,2024-11-28_12h13.44.551,Test,2024.2.4,None,2024-11-28 12h13.51.564737 +0100,
17,150,90,60,None,21,21,0,False,,,,right,0.6938034170016181,None,,,,,,,,,,,,,0,21,21,21,566.067427291011,,,,,,,,,,,,,,,,,,,,,,,,,,,,,,,,,,,,,,,,,,,,,,,,,,,,,,,,,,,,,,,,,,,,,,,,,566.0608800000045,566.067427291011,567.0650996250042,568.0484988749959,568.0484988749959,568.0484988749959,568.7505932909844,right,0.6938034170016181,None,,,,,,,,972422,001,2024-11-28_12h13.44.551,Test,2024.2.4,None,2024-11-28 12h13.51.564737 +0100,
54,150,90,7,None,22,22,0,True,,,,left,0.8775915000005625,None,,,,,,,,,,,,,0,22,22,22,568.7662570409884,,,,,,,,,,,,,,,,,,,,,,,,,,,,,,,,,,,,,,,,,,,,,,,,,,,,,,,,,,,,,,,,,,,,,,,,,568.7599113750039,568.7662570409884,569.7650086659996,570.7486023750098,570.7486023750098,570.7486023750098,571.6342401249858,left,0.8775915000005625,None,,,,,,,,972422,001,2024-11-28_12h13.44.551,Test,2024.2.4,None,2024-11-28 12h13.51.564737 +0100,
19,150,90,24,None,23,23,0,False,,,,right,0.7347716660005972,None,,,,,,,,,,,,,0,23,23,23,571.6497037079826,,,,,,,,,,,,,,,,,,,,,,,,,,,,,,,,,,,,,,,,,,,,,,,,,,,,,,,,,,,,,,,,,,,,,,,,,571.6430519999994,571.6497037079826,572.6483744159923,573.6319641250011,573.6319641250011,573.6319641250011,574.3742411249841,right,0.7347716660005972,None,,,,,,,,972422,001,2024-11-28_12h13.44.551,Test,2024.2.4,None,2024-11-28 12h13.51.564737 +0100,
56,150,120,63,None,24,24,0,True,,,,left,0.8706727089884225,None,,,,,,,,,,,,,0,24,24,24,574.3892428749823,,,,,,,,,,,,,,,,,,,,,,,,,,,,,,,,,,,,,,,,,,,,,,,,,,,,,,,,,,,,,,,,,,,,,,,,,574.3828667080088,574.3892428749823,575.3870784160099,576.3721477079962,576.3721477079962,576.3721477079962,577.2505230829993,left,0.8706727089884225,None,,,,,,,,972422,001,2024-11-28_12h13.44.551,Test,2024.2.4,None,2024-11-28 12h13.51.564737 +0100,
52,150,90,14,None,25,25,0,True,,,,right,1.0291035839763936,None,,,,,,,,,,,,,0,25,25,25,577.2658340829948,,,,,,,,,,,,,,,,,,,,,,,,,,,,,,,,,,,,,,,,,,,,,,,,,,,,,,,,,,,,,,,,,,,,,,,,,577.2594266250089,577.2658340829948,578.2536428330059,579.2484356249915,579.2484356249915,579.2484356249915,580.2838612080086,right,1.0291035839763936,None,,,,,,,,972422,001,2024-11-28_12h13.44.551,Test,2024.2.4,None,2024-11-28 12h13.51.564737 +0100,
30,150,150,34,None,26,26,0,False,,,,left,0.9505227500048932,None,,,,,,,,,,,,,0,26,26,26,580.2991126659908,,,,,,,,,,,,,,,,,,,,,,,,,,,,,,,,,,,,,,,,,,,,,,,,,,,,,,,,,,,,,,,,,,,,,,,,,580.2927103749826,580.2991126659908,581.2869393749861,582.2817602079886,582.2817602079886,582.2817602079886,583.2352850000025,left,0.9505227500048932,None,,,,,,,,972422,001,2024-11-28_12h13.44.551,Test,2024.2.4,None,2024-11-28 12h13.51.564737 +0100,
62,150,150,55,None,27,27,0,True,,,,right,1.1413902920030523,None,,,,,,,,,,,,,0,27,27,27,583.2502972079965,,,,,,,,,,,,,,,,,,,,,,,,,,,,,,,,,,,,,,,,,,,,,,,,,,,,,,,,,,,,,,,,,,,,,,,,,583.2439998750051,583.2502972079965,584.2482561659999,585.231784625008,585.231784625008,585.231784625008,586.3833248750016,right,1.1413902920030523,None,,,,,,,,972422,001,2024-11-28_12h13.44.551,Test,2024.2.4,None,2024-11-28 12h13.51.564737 +0100,
38,150,0,57,None,28,28,0,True,,,,left,0.911046624998562,None,,,,,,,,,,,,,0,28,28,28,586.398515125009,,,,,,,,,,,,,,,,,,,,,,,,,,,,,,,,,,,,,,,,,,,,,,,,,,,,,,,,,,,,,,,,,,,,,,,,,586.3916307080071,586.398515125009,587.3870346249896,588.3818463330099,588.3818463330099,588.3818463330099,589.300578416005,left,0.911046624998562,None,,,,,,,,972422,001,2024-11-28_12h13.44.551,Test,2024.2.4,None,2024-11-28 12h13.51.564737 +0100,
45,150,30,32,None,29,29,0,True,,,,left,0.7836861659889109,None,,,,,,,,,,,,,0,29,29,29,589.3144303330046,,,,,,,,,,,,,,,,,,,,,,,,,,,,,,,,,,,,,,,,,,,,,,,,,,,,,,,,,,,,,,,,,,,,,,,,,589.3081406249839,589.3144303330046,590.3039721249952,591.2984277909854,591.2984277909854,591.2984277909854,592.0845243750082,left,0.7836861659889109,None,,,,,,,,972422,001,2024-11-28_12h13.44.551,Test,2024.2.4,None,2024-11-28 12h13.51.564737 +0100,
20,150,90,56,None,30,30,0,False,,,,right,1.2667113329807762,None,,,,,,,,,,,,,0,30,30,30,592.1000917909842,,,,,,,,,,,,,,,,,,,,,,,,,,,,,,,,,,,,,,,,,,,,,,,,,,,,,,,,,,,,,,,,,,,,,,,,,592.0934207910032,592.1000917909842,593.0985433330061,594.081779583008,594.081779583008,594.081779583008,595.3518176249927,right,1.2667113329807762,None,,,,,,,,972422,001,2024-11-28_12h13.44.551,Test,2024.2.4,None,2024-11-28 12h13.51.564737 +0100,
55,150,90,25,None,31,31,0,True,,,,left,1.2110903749999125,None,,,,,,,,,,,,,0,31,31,31,595.3663629579823,,,,,,,,,,,,,,,,,,,,,,,,,,,,,,,,,,,,,,,,,,,,,,,,,,,,,,,,,,,,,,,,,,,,,,,,,595.3607083749957,595.3663629579823,596.3649849579961,597.3484495829907,597.3484495829907,597.3484495829907,598.5671805829916,left,1.2110903749999125,None,,,,,,,,972422,001,2024-11-28_12h13.44.551,Test,2024.2.4,None,2024-11-28 12h13.51.564737 +0100,
18,150,90,10,None,32,32,0,False,,,,left,0.8666221250023227,None,,,,,,,,,,,,,0,32,32,32,598.5815750409965,,,,,,,,,,,,,,,,,,,,,,,,,,,,,,,,,,,,,,,,,,,,,,,,,,,,,,,,,,,,,,,,,,,,,,,,,598.5755655829853,598.5815750409965,599.5705612080055,600.5652045409952,600.5652045409952,600.5652045409952,601.4346846249828,left,0.8666221250023227,None,,,,,,,,972422,001,2024-11-28_12h13.44.551,Test,2024.2.4,None,2024-11-28 12h13.51.564737 +0100,
37,150,0,59,None,33,33,0,True,,,,left,0.9382744169852231,None,,,,,,,,,,,,,0,33,33,33,601.4499067910074,,,,,,,,,,,,,,,,,,,,,,,,,,,,,,,,,,,,,,,,,,,,,,,,,,,,,,,,,,,,,,,,,,,,,,,,,601.4435816250043,601.4499067910074,602.4483612499898,603.432004790986,603.432004790986,603.432004790986,604.3733467499842,left,0.9382744169852231,None,,,,,,,,972422,001,2024-11-28_12h13.44.551,Test,2024.2.4,None,2024-11-28 12h13.51.564737 +0100,
63,150,150,49,None,34,34,0,True,,,,right,0.6694233340094797,None,,,,,,,,,,,,,0,34,34,34,604.3869777499931,,,,,,,,,,,,,,,,,,,,,,,,,,,,,,,,,,,,,,,,,,,,,,,,,,,,,,,,,,,,,,,,,,,,,,,,,604.3812597079959,604.3869777499931,605.3815970830037,606.3723271659983,606.3723271659983,606.3723271659983,607.0490512909892,right,0.6694233340094797,None,,,,,,,,972422,001,2024-11-28_12h13.44.551,Test,2024.2.4,None,2024-11-28 12h13.51.564737 +0100,
48,150,60,69,None,35,35,0,True,,,,right,0.6932008749863598,None,,,,,,,,,,,,,0,35,35,35,607.0643778750091,,,,,,,,,,,,,,,,,,,,,,,,,,,,,,,,,,,,,,,,,,,,,,,,,,,,,,,,,,,,,,,,,,,,,,,,,607.0575465410075,607.0643778750091,608.0535031250038,609.0386241659871,609.0386241659871,609.0386241659871,609.7347604579991,right,0.6932008749863598,None,,,,,,,,972422,001,2024-11-28_12h13.44.551,Test,2024.2.4,None,2024-11-28 12h13.51.564737 +0100,
53,150,90,23,None,36,36,0,True,,,,left,0.9598936249967664,None,,,,,,,,,,,,,0,36,36,36,609.7500159159827,,,,,,,,,,,,,,,,,,,,,,,,,,,,,,,,,,,,,,,,,,,,,,,,,,,,,,,,,,,,,,,,,,,,,,,,,609.7435707910045,609.7500159159827,610.7482329579943,611.7317934579914,611.7317934579914,611.7317934579914,612.7002673329844,left,0.9598936249967664,None,,,,,,,,972422,001,2024-11-28_12h13.44.551,Test,2024.2.4,None,2024-11-28 12h13.51.564737 +0100,
8,150,30,20,None,37,37,0,False,,,,right,1.7620808749925345,None,,,,,,,,,,,,,0,37,37,37,612.7153497499821,,,,,,,,,,,,,,,,,,,,,,,,,,,,,,,,,,,,,,,,,,,,,,,,,,,,,,,,,,,,,,,,,,,,,,,,,612.7091942910047,612.7153497499821,613.7028012500086,614.6985097909928,614.6985097909928,614.6985097909928,616.4670868749963,right,1.7620808749925345,None,,,,,,,,972422,001,2024-11-28_12h13.44.551,Test,2024.2.4,None,2024-11-28 12h13.51.564737 +0100,
57,150,120,21,None,38,38,0,True,,,,left,0.9636465839867014,None,,,,,,,,,,,,,0,38,38,38,616.4818519160035,,,,,,,,,,,,,,,,,,,,,,,,,,,,,,,,,,,,,,,,,,,,,,,,,,,,,,,,,,,,,,,,,,,,,,,,,616.4757154999825,616.4818519160035,617.4705272080027,618.4650191660039,618.4650191660039,618.4650191660039,619.4342465410009,left,0.9636465839867014,None,,,,,,,,972422,001,2024-11-28_12h13.44.551,Test,2024.2.4,None,2024-11-28 12h13.51.564737 +0100,
4,150,0,43,None,39,39,0,False,,,,right,1.0173500000091735,None,,,,,,,,,,,,,0,39,39,39,619.4498112500005,,,,,,,,,,,,,,,,,,,,,,,,,,,,,,,,,,,,,,,,,,,,,,,,,,,,,,,,,,,,,,,,,,,,,,,,,619.4431033750006,619.4498112500005,620.4483039999905,621.4318523329857,621.4318523329857,621.4318523329857,622.4595275410102,right,1.0173500000091735,None,,,,,,,,972422,001,2024-11-28_12h13.44.551,Test,2024.2.4,None,2024-11-28 12h13.51.564737 +0100,
64,150,150,15,None,40,40,0,True,,,,left,1.568199207977159,None,,,,,,,,,,,,,0,40,40,40,622.4715598330076,,,,,,,,,,,,,,,,,,,,,,,,,,,,,,,,,,,,,,,,,,,,,,,,,,,,,,,,,,,,,,,,,,,,,,,,,622.4668831659947,622.4715598330076,623.4649713749823,624.4545967080048,624.4545967080048,624.4545967080048,626.0332436659955,left,1.568199207977159,None,,,,,,,,972422,001,2024-11-28_12h13.44.551,Test,2024.2.4,None,2024-11-28 12h13.51.564737 +0100,
16,150,90,2,None,41,41,0,False,,,,right,0.740147500007879,None,,,,,,,,,,,,,0,41,41,41,626.0452691249957,,,,,,,,,,,,,,,,,,,,,,,,,,,,,,,,,,,,,,,,,,,,,,,,,,,,,,,,,,,,,,,,,,,,,,,,,626.0404500410077,626.0452691249957,627.0370577499853,628.0318733330059,628.0318733330059,628.0318733330059,628.7826415000018,right,0.740147500007879,None,,,,,,,,972422,001,2024-11-28_12h13.44.551,Test,2024.2.4,None,2024-11-28 12h13.51.564737 +0100,
36,150,0,42,None,42,42,0,True,,,,left,0.7466997079900466,None,,,,,,,,,,,,,0,42,42,42,628.7939449999831,,,,,,,,,,,,,,,,,,,,,,,,,,,,,,,,,,,,,,,,,,,,,,,,,,,,,,,,,,,,,,,,,,,,,,,,,628.7893807909859,628.7939449999831,629.7861966250057,630.7818439999828,630.7818439999828,630.7818439999828,631.5338518749923,left,0.7466997079900466,None,,,,,,,,972422,001,2024-11-28_12h13.44.551,Test,2024.2.4,None,2024-11-28 12h13.51.564737 +0100,
15,150,60,12,None,43,43,0,False,,,,left,0.9253473750140984,None,,,,,,,,,,,,,0,43,43,43,631.5493969160016,,,,,,,,,,,,,,,,,,,,,,,,,,,,,,,,,,,,,,,,,,,,,,,,,,,,,,,,,,,,,,,,,,,,,,,,,631.541851957998,631.5493969160016,632.5483316250029,633.531829124986,633.531829124986,633.531829124986,634.4671105410089,left,0.9253473750140984,None,,,,,,,,972422,001,2024-11-28_12h13.44.551,Test,2024.2.4,None,2024-11-28 12h13.51.564737 +0100,
1,150,0,19,None,44,44,0,False,,,,left,0.8405012500006706,None,,,,,,,,,,,,,0,44,44,44,634.4828683749947,,,,,,,,,,,,,,,,,,,,,,,,,,,,,,,,,,,,,,,,,,,,,,,,,,,,,,,,,,,,,,,,,,,,,,,,,634.4760228749947,634.4828683749947,635.4817512079899,636.4651483749913,636.4651483749913,636.4651483749913,637.3171739579993,left,0.8405012500006706,None,,,,,,,,972422,001,2024-11-28_12h13.44.551,Test,2024.2.4,None,2024-11-28 12h13.51.564737 +0100,
49,150,60,51,None,45,45,0,True,,,,right,1.5743823340162635,None,,,,,,,,,,,,,0,45,45,45,637.3324847909971,,,,,,,,,,,,,,,,,,,,,,,,,,,,,,,,,,,,,,,,,,,,,,,,,,,,,,,,,,,,,,,,,,,,,,,,,637.325733375008,637.3324847909971,638.3205492080015,639.3152182500053,639.3152182500053,639.3152182500053,640.9003835409821,right,1.5743823340162635,None,,,,,,,,972422,001,2024-11-28_12h13.44.551,Test,2024.2.4,None,2024-11-28 12h13.51.564737 +0100,
42,150,30,36,None,46,46,0,True,,,,left,1.1458080419979524,None,,,,,,,,,,,,,0,46,46,46,640.9153979999828,,,,,,,,,,,,,,,,,,,,,,,,,,,,,,,,,,,,,,,,,,,,,,,,,,,,,,,,,,,,,,,,,,,,,,,,,640.9087076660071,640.9153979999828,641.9028300409846,642.8984967079887,642.8984967079887,642.8984967079887,644.0509937079914,left,1.1458080419979524,None,,,,,,,,972422,001,2024-11-28_12h13.44.551,Test,2024.2.4,None,2024-11-28 12h13.51.564737 +0100,
28,150,150,64,None,47,47,0,False,,,,right,0.9923422499850858,None,,,,,,,,,,,,,0,47,47,47,644.0661795409978,,,,,,,,,,,,,,,,,,,,,,,,,,,,,,,,,,,,,,,,,,,,,,,,,,,,,,,,,,,,,,,,,,,,,,,,,644.0593386660039,644.0661795409978,645.0649468750053,646.0486548749905,646.0486548749905,646.0486548749905,647.0506524579832,right,0.9923422499850858,None,,,,,,,,972422,001,2024-11-28_12h13.44.551,Test,2024.2.4,None,2024-11-28 12h13.51.564737 +0100,
47,150,60,37,None,48,48,0,True,,,,left,0.9135858330118936,None,,,,,,,,,,,,,0,48,48,48,647.0657189580088,,,,,,,,,,,,,,,,,,,,,,,,,,,,,,,,,,,,,,,,,,,,,,,,,,,,,,,,,,,,,,,,,,,,,,,,,647.0589080000063,647.0657189580088,648.054074249987,649.0484269160079,649.0484269160079,649.0484269160079,649.9672579579928,left,0.9135858330118936,None,,,,,,,,972422,001,2024-11-28_12h13.44.551,Test,2024.2.4,None,2024-11-28 12h13.51.564737 +0100,
33,150,180,48,None,49,49,0,False,,,,right,0.9833097919763532,None,,,,,,,,,,,,,0,49,49,49,649.9816182909999,,,,,,,,,,,,,,,,,,,,,,,,,,,,,,,,,,,,,,,,,,,,,,,,,,,,,,,,,,,,,,,,,,,,,,,,,649.975133083004,649.9816182909999,650.9700167499832,651.9652481660014,651.9652481660014,651.9652481660014,652.9508967910078,right,0.9833097919763532,None,,,,,,,,972422,001,2024-11-28_12h13.44.551,Test,2024.2.4,None,2024-11-28 12h13.51.564737 +0100,
60,150,120,9,None,50,50,0,True,,,,right,0.9764614579908084,None,,,,,,,,,,,,,0,50,50,50,652.9659844159905,,,,,,,,,,,,,,,,,,,,,,,,,,,,,,,,,,,,,,,,,,,,,,,,,,,,,,,,,,,,,,,,,,,,,,,,,652.9597287499928,652.9659844159905,653.9543151659891,654.9485263329989,654.9485263329989,654.9485263329989,655.9339127909916,right,0.9764614579908084,None,,,,,,,,972422,001,2024-11-28_12h13.44.551,Test,2024.2.4,None,2024-11-28 12h13.51.564737 +0100,
14,150,60,30,None,51,51,0,False,,,,right,1.5002900419931393,None,,,,,,,,,,,,,0,51,51,51,655.9493200409925,,,,,,,,,,,,,,,,,,,,,,,,,,,,,,,,,,,,,,,,,,,,,,,,,,,,,,,,,,,,,,,,,,,,,,,,,655.9426931249909,655.9493200409925,656.9375823329901,657.9318281250016,657.9318281250016,657.9318281250016,659.434846374992,right,1.5002900419931393,None,,,,,,,,972422,001,2024-11-28_12h13.44.551,Test,2024.2.4,None,2024-11-28 12h13.51.564737 +0100,
59,150,120,66,None,52,52,0,True,,,,left,0.9714623750187457,None,,,,,,,,,,,,,0,52,52,52,659.4495387079951,,,,,,,,,,,,,,,,,,,,,,,,,,,,,,,,,,,,,,,,,,,,,,,,,,,,,,,,,,,,,,,,,,,,,,,,,659.4429857500072,659.4495387079951,660.4483953749877,661.431822124985,661.431822124985,661.431822124985,662.406511499983,left,0.9714623750187457,None,,,,,,,,972422,001,2024-11-28_12h13.44.551,Test,2024.2.4,None,2024-11-28 12h13.51.564737 +0100,
21,150,120,67,None,53,53,0,False,,,,right,1.2539545839827042,None,,,,,,,,,,,,,0,53,53,53,662.4207671659824,,,,,,,,,,,,,,,,,,,,,,,,,,,,,,,,,,,,,,,,,,,,,,,,,,,,,,,,,,,,,,,,,,,,,,,,,662.414327208011,662.4207671659824,663.4150675410056,664.405491957994,664.405491957994,664.405491957994,665.6670395410038,right,1.2539545839827042,None,,,,,,,,972422,001,2024-11-28_12h13.44.551,Test,2024.2.4,None,2024-11-28 12h13.51.564737 +0100,
13,150,60,4,None,54,54,0,False,,,,right,1.6521236250118818,None,,,,,,,,,,,,,0,54,54,54,665.6811212080065,,,,,,,,,,,,,,,,,,,,,,,,,,,,,,,,,,,,,,,,,,,,,,,,,,,,,,,,,,,,,,,,,,,,,,,,,665.6750389999943,665.6811212080065,666.6707449579844,667.6651795000071,667.6651795000071,667.6651795000071,669.3235926250054,right,1.6521236250118818,None,,,,,,,,972422,001,2024-11-28_12h13.44.551,Test,2024.2.4,None,2024-11-28 12h13.51.564737 +0100,
58,150,120,22,None,55,55,0,True,,,,left,1.114500749972649,None,,,,,,,,,,,,,0,55,55,55,669.3386630830064,,,,,,,,,,,,,,,,,,,,,,,,,,,,,,,,,,,,,,,,,,,,,,,,,,,,,,,,,,,,,,,,,,,,,,,,,669.332411832991,669.3386630830064,670.3361464999907,671.322844624985,671.322844624985,671.322844624985,672.4397089160047,left,1.114500749972649,None,,,,,,,,972422,001,2024-11-28_12h13.44.551,Test,2024.2.4,None,2024-11-28 12h13.51.564737 +0100,
66,150,180,6,None,56,56,0,True,,,,right,1.6372425000008661,None,,,,,,,,,,,,,0,56,56,56,672.4543102910102,,,,,,,,,,,,,,,,,,,,,,,,,,,,,,,,,,,,,,,,,,,,,,,,,,,,,,,,,,,,,,,,,,,,,,,,,672.4476108329836,672.4543102910102,673.4482586660015,674.4397044159996,674.4397044159996,674.4397044159996,676.0838743750064,right,1.6372425000008661,None,,,,,,,,972422,001,2024-11-28_12h13.44.551,Test,2024.2.4,None,2024-11-28 12h13.51.564737 +0100,
25,150,120,61,None,57,57,0,False,,,,right,0.9759265840111766,None,,,,,,,,,,,,,0,57,57,57,676.098126833007,,,,,,,,,,,,,,,,,,,,,,,,,,,,,,,,,,,,,,,,,,,,,,,,,,,,,,,,,,,,,,,,,,,,,,,,,676.0907851659867,676.098126833007,677.0878420000081,678.081801124994,678.081801124994,678.081801124994,679.0673162910098,right,0.9759265840111766,None,,,,,,,,972422,001,2024-11-28_12h13.44.551,Test,2024.2.4,None,2024-11-28 12h13.51.564737 +0100,
35,150,180,35,None,58,58,0,False,,,,right,1.902994416974252,None,,,,,,,,,,,,,0,58,58,58,679.0828333329991,,,,,,,,,,,,,,,,,,,,,,,,,,,,,,,,,,,,,,,,,,,,,,,,,,,,,,,,,,,,,,,,,,,,,,,,,679.0758378749888,679.0828333329991,680.0817119999847,681.0650944579975,681.0650944579975,681.0650944579975,682.9734455829894,right,1.902994416974252,None,,,,,,,,972422,001,2024-11-28_12h13.44.551,Test,2024.2.4,None,2024-11-28 12h13.51.564737 +0100,
9,150,30,31,None,59,59,0,False,,,,right,1.2826559579989407,None,,,,,,,,,,,,,0,59,59,59,682.9880570829846,,,,,,,,,,,,,,,,,,,,,,,,,,,,,,,,,,,,,,,,,,,,,,,,,,,,,,,,,,,,,,,,,,,,,,,,,682.9816822079883,682.9880570829846,683.9817349159857,684.9727472079976,684.9727472079976,684.9727472079976,686.2671114580007,right,1.2826559579989407,None,,,,,,,,972422,001,2024-11-28_12h13.44.551,Test,2024.2.4,None,2024-11-28 12h13.51.564737 +0100,
3,150,0,27,None,60,60,0,False,,,,right,0.9066246250004042,None,,,,,,,,,,,,,0,60,60,60,686.2827892499918,,,,,,,,,,,,,,,,,,,,,,,,,,,,,,,,,,,,,,,,,,,,,,,,,,,,,,,,,,,,,,,,,,,,,,,,,686.2762428749993,686.2827892499918,687.2816058750032,688.2651471249992,688.2651471249992,688.2651471249992,689.1738982909883,right,0.9066246250004042,None,,,,,,,,972422,001,2024-11-28_12h13.44.551,Test,2024.2.4,None,2024-11-28 12h13.51.564737 +0100,
22,150,120,47,None,61,61,0,False,,,,right,0.9809338340128306,None,,,,,,,,,,,,,0,61,61,61,689.189445875003,,,,,,,,,,,,,,,,,,,,,,,,,,,,,,,,,,,,,,,,,,,,,,,,,,,,,,,,,,,,,,,,,,,,,,,,,689.1827662909927,689.189445875003,690.186528249993,691.1723637499963,691.1723637499963,691.1723637499963,692.1567537079973,right,0.9809338340128306,None,,,,,,,,972422,001,2024-11-28_12h13.44.551,Test,2024.2.4,None,2024-11-28 12h13.51.564737 +0100,
12,150,60,38,None,62,62,0,False,,,,right,1.5540400830213912,None,,,,,,,,,,,,,0,62,62,62,692.1690503749996,,,,,,,,,,,,,,,,,,,,,,,,,,,,,,,,,,,,,,,,,,,,,,,,,,,,,,,,,,,,,,,,,,,,,,,,,692.1634358750016,692.1690503749996,693.1650173749949,694.1563988749986,694.1563988749986,694.1563988749986,695.7171405830013,right,1.5540400830213912,None,,,,,,,,972422,001,2024-11-28_12h13.44.551,Test,2024.2.4,None,2024-11-28 12h13.51.564737 +0100,
69,150,180,44,None,63,63,0,True,,,,left,1.3231532910140231,None,,,,,,,,,,,,,0,63,63,63,695.731709374988,,,,,,,,,,,,,,,,,,,,,,,,,,,,,,,,,,,,,,,,,,,,,,,,,,,,,,,,,,,,,,,,,,,,,,,,,695.7252444159822,695.731709374988,696.7207317499851,697.7152795830043,697.7152795830043,697.7152795830043,699.040710833011,left,1.3231532910140231,None,,,,,,,,972422,001,2024-11-28_12h13.44.551,Test,2024.2.4,None,2024-11-28 12h13.51.564737 +0100,
32,150,180,29,None,64,64,0,False,,,,right,0.9877907500194851,None,,,,,,,,,,,,,0,64,64,64,699.0553226250049,,,,,,,,,,,,,,,,,,,,,,,,,,,,,,,,,,,,,,,,,,,,,,,,,,,,,,,,,,,,,,,,,,,,,,,,,699.0493152079871,699.0553226250049,700.0535092499922,701.0384072909947,701.0384072909947,701.0384072909947,702.0340276249917,right,0.9877907500194851,None,,,,,,,,972422,001,2024-11-28_12h13.44.551,Test,2024.2.4,None,2024-11-28 12h13.51.564737 +0100,
24,150,120,54,None,65,65,0,False,,,,left,1.1167442080040928,None,,,,,,,,,,,,,0,65,65,65,702.0485826249933,,,,,,,,,,,,,,,,,,,,,,,,,,,,,,,,,,,,,,,,,,,,,,,,,,,,,,,,,,,,,,,,,,,,,,,,,702.0421604579897,702.0485826249933,703.036098874989,704.031972249999,704.031972249999,704.031972249999,705.1510421659914,left,1.1167442080040928,None,,,,,,,,972422,001,2024-11-28_12h13.44.551,Test,2024.2.4,None,2024-11-28 12h13.51.564737 +0100,
2,150,0,11,None,66,66,0,False,,,,left,0.7772934160020668,None,,,,,,,,,,,,,0,66,66,66,705.1690772500006,,,,,,,,,,,,,,,,,,,,,,,,,,,,,,,,,,,,,,,,,,,,,,,,,,,,,,,,,,,,,,,,,,,,,,,,,705.1632713330036,705.1690772500006,706.1652137500059,707.1483899159939,707.1483899159939,707.1483899159939,707.9336991249875,left,0.7772934160020668,None,,,,,,,,972422,001,2024-11-28_12h13.44.551,Test,2024.2.4,None,2024-11-28 12h13.51.564737 +0100,
10,150,30,41,None,67,67,0,False,,,,right,1.2678889999806415,None,,,,,,,,,,,,,0,67,67,67,707.9496087910084,,,,,,,,,,,,,,,,,,,,,,,,,,,,,,,,,,,,,,,,,,,,,,,,,,,,,,,,,,,,,,,,,,,,,,,,,707.9437578750076,707.9496087910084,708.9484412909951,709.9318363330094,709.9318363330094,709.9318363330094,711.2066092079913,right,1.2678889999806415,None,,,,,,,,972422,001,2024-11-28_12h13.44.551,Test,2024.2.4,None,2024-11-28 12h13.51.564737 +0100,
26,150,150,26,None,68,68,0,False,,,,right,1.738379000016721,None,,,,,,,,,,,,,0,68,68,68,711.2206728750025,,,,,,,,,,,,,,,,,,,,,,,,,,,,,,,,,,,,,,,,,,,,,,,,,,,,,,,,,,,,,,,,,,,,,,,,,711.2146712910035,711.2206728750025,712.2152384579822,713.2055625409994,713.2055625409994,713.2055625409994,714.9505539159873,right,1.738379000016721,None,,,,,,,,972422,001,2024-11-28_12h13.44.551,Test,2024.2.4,None,2024-11-28 12h13.51.564737 +0100,
61,150,150,5,None,69,69,0,True,,,,left,0.9432779170165304,None,,,,,,,,,,,,,0,69,69,69,714.9653649159882,,,,,,,,,,,,,,,,,,,,,,,,,,,,,,,,,,,,,,,,,,,,,,,,,,,,,,,,,,,,,,,,,,,,,,,,,714.9587380409939,714.9653649159882,715.9536983750004,716.948532999988,716.948532999988,716.948532999988,717.9003977079992,left,0.9432779170165304,None,,,,,,,,972422,001,2024-11-28_12h13.44.551,Test,2024.2.4,None,2024-11-28 12h13.51.564737 +0100,
,,,,,,,,,,,,,,,,,,,,,,,,,,,,,,,,,,,,,,,,,,,,,,,,,,,,,,,,,,,,,,,,,,,,,,,,,,,,,,,,,,,,,,,,,,,,,,,,,,,,,,,,,,,,,,,,,,717.9007049159845,717.9100931659923,717.9100931659923,720.072911041003,space,2.1562646250240505,None,972422,001,2024-11-28_12h13.44.551,Test,2024.2.4,None,2024-11-28 12h13.51.564737 +0100,
