Trial_Number,Exposure_Duration,Displacement_Angle,Stimulus,Response,thisN,thisTrialN,thisRepN,Is_Distractor,key_resp_3.keys,key_resp_3.rt,key_resp_3.duration,key_resp_7.keys,key_resp_7.rt,key_resp_7.duration,trials.thisRepN,trials.thisTrialN,trials.thisN,trials.thisIndex,trials_2.thisRepN,trials_2.thisTrialN,trials_2.thisN,trials_2.thisIndex,trials_3.thisRepN,trials_3.thisTrialN,trials_3.thisN,trials_3.thisIndex,trials_4.thisRepN,trials_4.thisTrialN,trials_4.thisN,trials_4.thisIndex,thisRow.t,notes,Intro_to_experiment.started,important1_2.started,key_resp_8.started,Intro_to_experiment.stopped,key_resp_8.keys,key_resp_8.rt,key_resp_8.duration,important.started,important1.started,key_resp_4.started,important.stopped,key_resp_4.keys,key_resp_4.rt,key_resp_4.duration,training_instruction.started,key_resp_9.started,important1_3.started,training_instruction.stopped,key_resp_9.keys,key_resp_9.rt,key_resp_9.duration,training_trial.started,cross.started,image.started,aperture.started,cross.stopped,image.stopped,aperture.stopped,training_trial.stopped,New_instruction.started,text.started,key_resp_2.started,New_instruction.stopped,key_resp_2.keys,key_resp_2.rt,key_resp_2.duration,test_trial.started,cross2.started,cross2.stopped,image_2.started,key_resp_3.started,aperture_2.started,test_trial.stopped,trials_2.key_resp_3.keys,trials_2.key_resp_3.rt,trials_2.key_resp_3.duration,start_blok_2.started,key_resp_5.started,text_4.started,start_blok_2.stopped,key_resp_5.keys,key_resp_5.rt,key_resp_5.duration,training_2.started,cross_2.started,image_3.started,aperture_3.started,cross_2.stopped,image_3.stopped,aperture_3.stopped,training_2.stopped,nyeste_instruks.started,text_5.started,key_resp_6.started,nyeste_instruks.stopped,key_resp_6.keys,key_resp_6.rt,key_resp_6.duration,test_2.started,cross2_2.started,cross2_2.stopped,image_4.started,key_resp_7.started,aperture_4.started,test_2.stopped,trials_4.key_resp_7.keys,trials_4.key_resp_7.rt,trials_4.key_resp_7.duration,Instruction.started,Instruktion.started,key_resp.started,Instruction.stopped,key_resp.keys,key_resp.rt,key_resp.duration,participant,session,date,expName,psychopyVersion,frameRate,expStart,
,,,,,,,,,,,,,,,,,,,,,,,,,,,,,,,,,0.0072670410154387355,0.014040083042345941,0.014040083042345941,108.02084295800887,space,108.00183762499364,None,,,,,,,,,,,,,,,,,,,,,,,,,,,,,,,,,,,,,,,,,,,,,,,,,,,,,,,,,,,,,,,,,,,,,,,,,,,,,,,981605,001,2024-12-08_16h10.48.516,Test,2024.2.4,None,2024-12-08 16h11.50.749128 +0100,
,,,,,,,,,,,,,,,,,,,,,,,,,,,,,,,,,,,,,,,,108.0211063750321,108.04737679101527,108.04737679101527,131.42685404099757,space,23.37342170800548,None,,,,,,,,,,,,,,,,,,,,,,,,,,,,,,,,,,,,,,,,,,,,,,,,,,,,,,,,,,,,,,,,,,,,,,,,981605,001,2024-12-08_16h10.48.516,Test,2024.2.4,None,2024-12-08 16h11.50.749128 +0100,
,,,,,,,,,,,,,,,,,,,,,,,,,,,,,,,,,,,,,,,,,,,,,,,131.4269496659981,131.44070837501204,131.44070837501204,145.6212410000153,space,14.170242207997944,None,,,,,,,,,,,,,,,,,,,,,,,,,,,,,,,,,,,,,,,,,,,,,,,,,,,,,,,,,,,,,,,,,981605,001,2024-12-08_16h10.48.516,Test,2024.2.4,None,2024-12-08 16h11.50.749128 +0100,
21,150,120,55,None,0,0,0,,,,,,,,0,0,0,20,,,,,,,,,,,,,145.67963641602546,,,,,,,,,,,,,,,,,,,,,,,145.67332108301343,145.67963641602546,145.81885245803278,145.81885245803278,145.872761000006,147.5178484999924,147.5178484999924,147.50324054103112,,,,,,,,,,,,,,,,,,,,,,,,,,,,,,,,,,,,,,,,,,,,,,,,,,,,,,,,,981605,001,2024-12-08_16h10.48.516,Test,2024.2.4,None,2024-12-08 16h11.50.749128 +0100,
10,150,30,66,None,1,1,0,,,,,,,,0,1,1,9,,,,,,,,,,,,,147.5178484999924,,,,,,,,,,,,,,,,,,,,,,,147.5132711660117,147.5215269580367,147.71919254102977,147.71919254102977,147.71919254102977,149.41836791601963,149.41836791601963,149.40348229103256,,,,,,,,,,,,,,,,,,,,,,,,,,,,,,,,,,,,,,,,,,,,,,,,,,,,,,,,,981605,001,2024-12-08_16h10.48.516,Test,2024.2.4,None,2024-12-08 16h11.50.749128 +0100,
33,150,180,2,None,2,2,0,,,,,,,,0,2,2,32,,,,,,,,,,,,,149.41836791601963,,,,,,,,,,,,,,,,,,,,,,,149.4137285409961,149.42239462502766,149.61929433303885,149.61929433303885,149.61929433303885,151.31849720800528,151.31849720800528,151.30342066602316,,,,,,,,,,,,,,,,,,,,,,,,,,,,,,,,,,,,,,,,,,,,,,,,,,,,,,,,,981605,001,2024-12-08_16h10.48.516,Test,2024.2.4,None,2024-12-08 16h11.50.749128 +0100,
30,150,150,51,None,3,3,0,,,,,,,,0,3,3,29,,,,,,,,,,,,,151.31849720800528,,,,,,,,,,,,,,,,,,,,,,,151.31376020802418,151.33584645803785,151.51913916599005,151.51913916599005,151.5253526660381,153.2179033330176,153.2179033330176,153.20353454101132,,,,,,,,,,,,,,,,,,,,,,,,,,,,,,,,,,,,,,,,,,,,,,,,,,,,,,,,,981605,001,2024-12-08_16h10.48.516,Test,2024.2.4,None,2024-12-08 16h11.50.749128 +0100,
7,150,30,27,None,4,4,0,,,,,,,,0,4,4,6,,,,,,,,,,,,,153.2179033330176,,,,,,,,,,,,,,,,,,,,,,,153.21295862499392,153.22189675003756,153.41922616603551,153.41922616603551,153.41922616603551,155.11686404101783,155.11686404101783,155.1033427080256,,,,,,,,,,,,,,,,,,,,,,,,,,,,,,,,,,,,,,,,,,,,,,,,,,,,,,,,,981605,001,2024-12-08_16h10.48.516,Test,2024.2.4,None,2024-12-08 16h11.50.749128 +0100,
26,150,150,60,None,5,5,0,,,,,,,,0,5,5,25,,,,,,,,,,,,,155.11686404101783,,,,,,,,,,,,,,,,,,,,,,,155.11206812498858,155.1208645000006,155.3193570000003,155.3193570000003,155.3193570000003,157.01619258301798,157.01619258301798,157.00344470801065,,,,,,,,,,,,,,,,,,,,,,,,,,,,,,,,,,,,,,,,,,,,,,,,,,,,,,,,,981605,001,2024-12-08_16h10.48.516,Test,2024.2.4,None,2024-12-08 16h11.50.749128 +0100,
29,150,150,28,None,6,6,0,,,,,,,,0,6,6,28,,,,,,,,,,,,,157.01619258301798,,,,,,,,,,,,,,,,,,,,,,,157.0113746250281,157.02130670798942,157.21920550003415,157.21920550003415,157.21920550003415,158.91839766601333,158.91839766601333,158.9031082500005,,,,,,,,,,,,,,,,,,,,,,,,,,,,,,,,,,,,,,,,,,,,,,,,,,,,,,,,,981605,001,2024-12-08_16h10.48.516,Test,2024.2.4,None,2024-12-08 16h11.50.749128 +0100,
24,150,120,12,None,7,7,0,,,,,,,,0,7,7,23,,,,,,,,,,,,,158.91839766601333,,,,,,,,,,,,,,,,,,,,,,,158.90890154102817,158.92289570800494,159.11938258301234,159.11938258301234,159.11938258301234,160.8163114580093,160.8163114580093,160.8037119579967,,,,,,,,,,,,,,,,,,,,,,,,,,,,,,,,,,,,,,,,,,,,,,,,,,,,,,,,,981605,001,2024-12-08_16h10.48.516,Test,2024.2.4,None,2024-12-08 16h11.50.749128 +0100,
9,150,30,18,None,8,8,0,,,,,,,,0,8,8,8,,,,,,,,,,,,,160.8163114580093,,,,,,,,,,,,,,,,,,,,,,,160.8120005830424,160.82024404103868,161.01966908300528,161.01966908300528,161.00773254100932,162.71571575000416,162.71571575000416,162.70363754103892,,,,,,,,,,,,,,,,,,,,,,,,,,,,,,,,,,,,,,,,,,,,,,,,,,,,,,,,,981605,001,2024-12-08_16h10.48.516,Test,2024.2.4,None,2024-12-08 16h11.50.749128 +0100,
1,150,0,9,None,9,9,0,,,,,,,,0,9,9,0,,,,,,,,,,,,,162.71571575000416,,,,,,,,,,,,,,,,,,,,,,,162.71135479101213,162.7200146249961,162.91919729101937,162.91919729101937,162.90773220802657,164.61519291601144,164.61519291601144,164.60339795803884,,,,,,,,,,,,,,,,,,,,,,,,,,,,,,,,,,,,,,,,,,,,,,,,,,,,,,,,,981605,001,2024-12-08_16h10.48.516,Test,2024.2.4,None,2024-12-08 16h11.50.749128 +0100,
16,150,90,46,None,10,10,0,,,,,,,,0,10,10,15,,,,,,,,,,,,,164.61519291601144,,,,,,,,,,,,,,,,,,,,,,,164.61092579102842,164.61981520801783,164.81890800001565,164.81890800001565,164.81890800001565,166.51598866604036,166.51598866604036,166.50351079099346,,,,,,,,,,,,,,,,,,,,,,,,,,,,,,,,,,,,,,,,,,,,,,,,,,,,,,,,,981605,001,2024-12-08_16h10.48.516,Test,2024.2.4,None,2024-12-08 16h11.50.749128 +0100,
14,150,60,35,None,11,11,0,,,,,,,,0,11,11,13,,,,,,,,,,,,,166.51598866604036,,,,,,,,,,,,,,,,,,,,,,,166.51080104103312,166.52072537504137,166.71943350002402,166.71943350002402,166.71943350002402,168.41454100003466,168.41454100003466,168.4033070410369,,,,,,,,,,,,,,,,,,,,,,,,,,,,,,,,,,,,,,,,,,,,,,,,,,,,,,,,,981605,001,2024-12-08_16h10.48.516,Test,2024.2.4,None,2024-12-08 16h11.50.749128 +0100,
17,150,90,41,None,12,12,0,,,,,,,,0,12,12,16,,,,,,,,,,,,,168.41454100003466,,,,,,,,,,,,,,,,,,,,,,,168.40965458302526,168.42025600001216,168.6195295409998,168.6195295409998,168.60719637502916,170.315771625028,170.315771625028,170.30357404099777,,,,,,,,,,,,,,,,,,,,,,,,,,,,,,,,,,,,,,,,,,,,,,,,,,,,,,,,,981605,001,2024-12-08_16h10.48.516,Test,2024.2.4,None,2024-12-08 16h11.50.749128 +0100,
12,150,60,64,None,13,13,0,,,,,,,,0,13,13,11,,,,,,,,,,,,,170.315771625028,,,,,,,,,,,,,,,,,,,,,,,170.3106668330147,170.3203040829976,170.51910420804052,170.51910420804052,170.51910420804052,172.2174129160121,172.2174129160121,172.20343900000444,,,,,,,,,,,,,,,,,,,,,,,,,,,,,,,,,,,,,,,,,,,,,,,,,,,,,,,,,981605,001,2024-12-08_16h10.48.516,Test,2024.2.4,None,2024-12-08 16h11.50.749128 +0100,
23,150,120,69,None,14,14,0,,,,,,,,0,14,14,22,,,,,,,,,,,,,172.2174129160121,,,,,,,,,,,,,,,,,,,,,,,172.21260279102717,172.22150116600096,172.41921641601948,172.41921641601948,172.41921641601948,174.11607925000135,174.11607925000135,174.10331304103602,,,,,,,,,,,,,,,,,,,,,,,,,,,,,,,,,,,,,,,,,,,,,,,,,,,,,,,,,981605,001,2024-12-08_16h10.48.516,Test,2024.2.4,None,2024-12-08 16h11.50.749128 +0100,
25,150,120,7,None,15,15,0,,,,,,,,0,15,15,24,,,,,,,,,,,,,174.11607925000135,,,,,,,,,,,,,,,,,,,,,,,174.11142162501346,174.12073291599518,174.31930224999087,174.31930224999087,174.31930224999087,176.01697033300297,176.01697033300297,176.00323629099876,,,,,,,,,,,,,,,,,,,,,,,,,,,,,,,,,,,,,,,,,,,,,,,,,,,,,,,,,981605,001,2024-12-08_16h10.48.516,Test,2024.2.4,None,2024-12-08 16h11.50.749128 +0100,
6,150,30,40,None,16,16,0,,,,,,,,0,16,16,5,,,,,,,,,,,,,176.01697033300297,,,,,,,,,,,,,,,,,,,,,,,176.01204587501707,176.02173425001092,176.2193478330155,176.2193478330155,176.2193478330155,177.91808999999193,177.91808999999193,177.90368908300297,,,,,,,,,,,,,,,,,,,,,,,,,,,,,,,,,,,,,,,,,,,,,,,,,,,,,,,,,981605,001,2024-12-08_16h10.48.516,Test,2024.2.4,None,2024-12-08 16h11.50.749128 +0100,
32,150,180,39,None,17,17,0,,,,,,,,0,17,17,31,,,,,,,,,,,,,177.91808999999193,,,,,,,,,,,,,,,,,,,,,,,177.9132789580035,177.92204325000057,178.1192538330215,178.1192538330215,178.1192538330215,179.81757620803546,179.81757620803546,179.80385166598717,,,,,,,,,,,,,,,,,,,,,,,,,,,,,,,,,,,,,,,,,,,,,,,,,,,,,,,,,981605,001,2024-12-08_16h10.48.516,Test,2024.2.4,None,2024-12-08 16h11.50.749128 +0100,
31,150,180,16,None,18,18,0,,,,,,,,0,18,18,30,,,,,,,,,,,,,179.81757620803546,,,,,,,,,,,,,,,,,,,,,,,179.812769207987,179.82228274998488,180.01932483300334,180.01932483300334,180.01932483300334,181.71713954099687,181.71713954099687,181.70338270801585,,,,,,,,,,,,,,,,,,,,,,,,,,,,,,,,,,,,,,,,,,,,,,,,,,,,,,,,,981605,001,2024-12-08_16h10.48.516,Test,2024.2.4,None,2024-12-08 16h11.50.749128 +0100,
8,150,30,29,None,19,19,0,,,,,,,,0,19,19,7,,,,,,,,,,,,,181.71713954099687,,,,,,,,,,,,,,,,,,,,,,,181.71227695798734,181.72109891602304,181.9192005409859,181.9192005409859,181.9192005409859,183.61708312499104,183.61708312499104,183.6034909579903,,,,,,,,,,,,,,,,,,,,,,,,,,,,,,,,,,,,,,,,,,,,,,,,,,,,,,,,,981605,001,2024-12-08_16h10.48.516,Test,2024.2.4,None,2024-12-08 16h11.50.749128 +0100,
19,150,90,65,None,20,20,0,,,,,,,,0,20,20,18,,,,,,,,,,,,,183.61708312499104,,,,,,,,,,,,,,,,,,,,,,,183.61221849999856,183.62112550000893,183.81921983300708,183.81921983300708,183.81921983300708,185.5166666249861,185.5166666249861,185.50339716603048,,,,,,,,,,,,,,,,,,,,,,,,,,,,,,,,,,,,,,,,,,,,,,,,,,,,,,,,,981605,001,2024-12-08_16h10.48.516,Test,2024.2.4,None,2024-12-08 16h11.50.749128 +0100,
35,150,180,52,None,21,21,0,,,,,,,,0,21,21,34,,,,,,,,,,,,,185.5166666249861,,,,,,,,,,,,,,,,,,,,,,,185.51185775001068,185.52074549999088,185.71918116603047,185.71918116603047,185.71918116603047,187.4169757910422,187.4169757910422,187.403616583033,,,,,,,,,,,,,,,,,,,,,,,,,,,,,,,,,,,,,,,,,,,,,,,,,,,,,,,,,981605,001,2024-12-08_16h10.48.516,Test,2024.2.4,None,2024-12-08 16h11.50.749128 +0100,
34,150,180,32,None,22,22,0,,,,,,,,0,22,22,33,,,,,,,,,,,,,187.4169757910422,,,,,,,,,,,,,,,,,,,,,,,187.41216120799072,187.4217465830152,187.61922466603573,187.61922466603573,187.61922466603573,189.3166057500057,189.3166057500057,189.30336370802252,,,,,,,,,,,,,,,,,,,,,,,,,,,,,,,,,,,,,,,,,,,,,,,,,,,,,,,,,981605,001,2024-12-08_16h10.48.516,Test,2024.2.4,None,2024-12-08 16h11.50.749128 +0100,
18,150,90,1,None,23,23,0,,,,,,,,0,23,23,17,,,,,,,,,,,,,189.3166057500057,,,,,,,,,,,,,,,,,,,,,,,189.31185637501767,189.32145691598998,189.51906929101096,189.51906929101096,189.51906929101096,191.21570050000446,191.21570050000446,191.20339166600024,,,,,,,,,,,,,,,,,,,,,,,,,,,,,,,,,,,,,,,,,,,,,,,,,,,,,,,,,981605,001,2024-12-08_16h10.48.516,Test,2024.2.4,None,2024-12-08 16h11.50.749128 +0100,
20,150,90,44,None,24,24,0,,,,,,,,0,24,24,19,,,,,,,,,,,,,191.21570050000446,,,,,,,,,,,,,,,,,,,,,,,191.21092895802576,191.22008512500906,191.41914487502072,191.41914487502072,191.41914487502072,193.11637337499997,193.11637337499997,193.1034660830046,,,,,,,,,,,,,,,,,,,,,,,,,,,,,,,,,,,,,,,,,,,,,,,,,,,,,,,,,981605,001,2024-12-08_16h10.48.516,Test,2024.2.4,None,2024-12-08 16h11.50.749128 +0100,
15,150,60,59,None,25,25,0,,,,,,,,0,25,25,14,,,,,,,,,,,,,193.11637337499997,,,,,,,,,,,,,,,,,,,,,,,193.111638625036,193.12041770800715,193.31924858299317,193.31924858299317,193.31924858299317,195.01496150001185,195.01496150001185,195.00322925002547,,,,,,,,,,,,,,,,,,,,,,,,,,,,,,,,,,,,,,,,,,,,,,,,,,,,,,,,,981605,001,2024-12-08_16h10.48.516,Test,2024.2.4,None,2024-12-08 16h11.50.749128 +0100,
3,150,0,54,None,26,26,0,,,,,,,,0,26,26,2,,,,,,,,,,,,,195.01496150001185,,,,,,,,,,,,,,,,,,,,,,,195.01063883298775,195.03550962504232,195.2195660410216,195.2195660410216,195.22562962502707,196.9174130000174,196.9174130000174,196.90321908303304,,,,,,,,,,,,,,,,,,,,,,,,,,,,,,,,,,,,,,,,,,,,,,,,,,,,,,,,,981605,001,2024-12-08_16h10.48.516,Test,2024.2.4,None,2024-12-08 16h11.50.749128 +0100,
2,150,0,58,None,27,27,0,,,,,,,,0,27,27,1,,,,,,,,,,,,,196.9174130000174,,,,,,,,,,,,,,,,,,,,,,,196.91244666598504,196.92209587502293,197.11925258301198,197.11925258301198,197.11925258301198,198.81708237499697,198.81708237499697,198.8035798750352,,,,,,,,,,,,,,,,,,,,,,,,,,,,,,,,,,,,,,,,,,,,,,,,,,,,,,,,,981605,001,2024-12-08_16h10.48.516,Test,2024.2.4,None,2024-12-08 16h11.50.749128 +0100,
28,150,150,33,None,28,28,0,,,,,,,,0,28,28,27,,,,,,,,,,,,,198.81708237499697,,,,,,,,,,,,,,,,,,,,,,,198.81231512501836,198.82116170803783,199.019228707999,199.019228707999,199.019228707999,200.71673291601473,200.71673291601473,200.70343208301347,,,,,,,,,,,,,,,,,,,,,,,,,,,,,,,,,,,,,,,,,,,,,,,,,,,,,,,,,981605,001,2024-12-08_16h10.48.516,Test,2024.2.4,None,2024-12-08 16h11.50.749128 +0100,
13,150,60,13,None,29,29,0,,,,,,,,0,29,29,12,,,,,,,,,,,,,200.71673291601473,,,,,,,,,,,,,,,,,,,,,,,200.7120292080217,200.72071266599232,200.9191759999958,200.9191759999958,200.9191759999958,202.61743087501964,202.61743087501964,202.60376550001092,,,,,,,,,,,,,,,,,,,,,,,,,,,,,,,,,,,,,,,,,,,,,,,,,,,,,,,,,981605,001,2024-12-08_16h10.48.516,Test,2024.2.4,None,2024-12-08 16h11.50.749128 +0100,
11,150,60,50,None,30,30,0,,,,,,,,0,30,30,10,,,,,,,,,,,,,202.61743087501964,,,,,,,,,,,,,,,,,,,,,,,202.61241266602883,202.6215822910308,202.8192351660109,202.8192351660109,202.8192351660109,204.51715745800175,204.51715745800175,204.50351370801218,,,,,,,,,,,,,,,,,,,,,,,,,,,,,,,,,,,,,,,,,,,,,,,,,,,,,,,,,981605,001,2024-12-08_16h10.48.516,Test,2024.2.4,None,2024-12-08 16h11.50.749128 +0100,
27,150,150,15,None,31,31,0,,,,,,,,0,31,31,26,,,,,,,,,,,,,204.51715745800175,,,,,,,,,,,,,,,,,,,,,,,204.5121448750142,204.52221129101235,204.71927375002997,204.71927375002997,204.71927375002997,206.41766312503023,206.41766312503023,206.4034514160012,,,,,,,,,,,,,,,,,,,,,,,,,,,,,,,,,,,,,,,,,,,,,,,,,,,,,,,,,981605,001,2024-12-08_16h10.48.516,Test,2024.2.4,None,2024-12-08 16h11.50.749128 +0100,
5,150,0,19,None,32,32,0,,,,,,,,0,32,32,4,,,,,,,,,,,,,206.41766312503023,,,,,,,,,,,,,,,,,,,,,,,206.41276541602565,206.42173591599567,206.61933983303607,206.61933983303607,206.61933983303607,208.31794283300405,208.31794283300405,208.3035000830423,,,,,,,,,,,,,,,,,,,,,,,,,,,,,,,,,,,,,,,,,,,,,,,,,,,,,,,,,981605,001,2024-12-08_16h10.48.516,Test,2024.2.4,None,2024-12-08 16h11.50.749128 +0100,
22,150,120,24,None,33,33,0,,,,,,,,0,33,33,21,,,,,,,,,,,,,208.31794283300405,,,,,,,,,,,,,,,,,,,,,,,208.31317999999737,208.32275258301524,208.51927291601896,208.51927291601896,208.51927291601896,210.21719479101012,210.21719479101012,210.2036077500088,,,,,,,,,,,,,,,,,,,,,,,,,,,,,,,,,,,,,,,,,,,,,,,,,,,,,,,,,981605,001,2024-12-08_16h10.48.516,Test,2024.2.4,None,2024-12-08 16h11.50.749128 +0100,
4,150,0,37,None,34,34,0,,,,,,,,0,34,34,3,,,,,,,,,,,,,210.21719479101012,,,,,,,,,,,,,,,,,,,,,,,210.21215550001943,210.2220668750233,210.41923775000032,210.41923775000032,210.41923775000032,212.10896937502548,212.10896937502548,212.10344954102766,,,,,,,,,,,,,,,,,,,,,,,,,,,,,,,,,,,,,,,,,,,,,,,,,,,,,,,,,981605,001,2024-12-08_16h10.48.516,Test,2024.2.4,None,2024-12-08 16h11.50.749128 +0100,
,,,,,,,,,,,,,,,,,,,,,,,,,,,,,,,,,,,,,,,,,,,,,,,,,,,,,,,,,,,,,,212.10372445802204,212.11766458302736,212.11766458302736,227.9482586249942,space,15.82398133398965,None,,,,,,,,,,,,,,,,,,,,,,,,,,,,,,,,,,,,,,,,,,,,,,,,,,981605,001,2024-12-08_16h10.48.516,Test,2024.2.4,None,2024-12-08 16h11.50.749128 +0100,
19,150,90,65,None,0,0,0,False,right,0.8839931660331786,None,,,,,,,,0,0,0,0,,,,,,,,,227.98567620798713,,,,,,,,,,,,,,,,,,,,,,,,,,,,,,,,,,,,,,227.9753405409865,227.98567620798713,228.9747252910165,229.9438481660327,229.9438481660327,229.9438481660327,230.83801270800177,right,0.8839931660331786,None,,,,,,,,,,,,,,,,,,,,,,,,,,,,,,,,,,,,,,,,981605,001,2024-12-08_16h10.48.516,Test,2024.2.4,None,2024-12-08 16h11.50.749128 +0100,
64,150,150,49,None,1,1,0,True,left,1.3776174999657087,None,,,,,,,,0,1,1,1,,,,,,,,,230.97501204098808,,,,,,,,,,,,,,,,,,,,,,,,,,,,,,,,,,,,,,230.84712941601174,230.97501204098808,231.9692295829882,232.8358765830053,232.8358765830053,232.8358765830053,234.2213007080136,left,1.3776174999657087,None,,,,,,,,,,,,,,,,,,,,,,,,,,,,,,,,,,,,,,,,981605,001,2024-12-08_16h10.48.516,Test,2024.2.4,None,2024-12-08 16h11.50.749128 +0100,
21,150,120,55,None,2,2,0,False,right,1.2902044170186855,None,,,,,,,,0,2,2,2,,,,,,,,,234.2386737500201,,,,,,,,,,,,,,,,,,,,,,,,,,,,,,,,,,,,,,234.23106250003912,234.2386737500201,235.235858708038,236.2194088330143,236.2194088330143,236.2194088330143,237.51993966603186,right,1.2902044170186855,None,,,,,,,,,,,,,,,,,,,,,,,,,,,,,,,,,,,,,,,,981605,001,2024-12-08_16h10.48.516,Test,2024.2.4,None,2024-12-08 16h11.50.749128 +0100,
52,150,90,36,None,3,3,0,True,left,1.2784962499863468,None,,,,,,,,0,3,3,3,,,,,,,,,237.53108091600006,,,,,,,,,,,,,,,,,,,,,,,,,,,,,,,,,,,,,,237.52646870800527,237.53108091600006,238.5237596250372,239.50997491599992,239.50997491599992,239.50997491599992,240.79389133298537,left,1.2784962499863468,None,,,,,,,,,,,,,,,,,,,,,,,,,,,,,,,,,,,,,,,,981605,001,2024-12-08_16h10.48.516,Test,2024.2.4,None,2024-12-08 16h11.50.749128 +0100,
27,150,150,15,None,4,4,0,False,right,0.8612631659489125,None,,,,,,,,0,4,4,4,,,,,,,,,240.8089241250418,,,,,,,,,,,,,,,,,,,,,,,,,,,,,,,,,,,,,,240.80247012502514,240.8089241250418,241.80258970800787,242.793088291015,242.793088291015,242.793088291015,243.66070120799122,right,0.8612631659489125,None,,,,,,,,,,,,,,,,,,,,,,,,,,,,,,,,,,,,,,,,981605,001,2024-12-08_16h10.48.516,Test,2024.2.4,None,2024-12-08 16h11.50.749128 +0100,
24,150,120,12,None,5,5,0,False,right,1.5966843329952098,None,,,,,,,,0,5,5,5,,,,,,,,,243.67608045804081,,,,,,,,,,,,,,,,,,,,,,,,,,,,,,,,,,,,,,243.66990770801203,243.67608045804081,244.67362387501635,245.65988079103408,245.65988079103408,245.65988079103408,247.2613569580135,right,1.5966843329952098,None,,,,,,,,,,,,,,,,,,,,,,,,,,,,,,,,,,,,,,,,981605,001,2024-12-08_16h10.48.516,Test,2024.2.4,None,2024-12-08 16h11.50.749128 +0100,
45,150,30,23,None,6,6,0,True,left,0.9171526249847375,None,,,,,,,,0,6,6,6,,,,,,,,,247.27539608301595,,,,,,,,,,,,,,,,,,,,,,,,,,,,,,,,,,,,,,247.26942879101261,247.27539608301595,248.26912979100598,249.26064441603376,249.26064441603376,249.26064441603376,250.18786983302562,left,0.9171526249847375,None,,,,,,,,,,,,,,,,,,,,,,,,,,,,,,,,,,,,,,,,981605,001,2024-12-08_16h10.48.516,Test,2024.2.4,None,2024-12-08 16h11.50.749128 +0100,
58,150,120,26,None,7,7,0,True,left,1.4895759589853697,None,,,,,,,,0,7,7,7,,,,,,,,,250.20358675002353,,,,,,,,,,,,,,,,,,,,,,,,,,,,,,,,,,,,,,250.19738808303373,250.20358675002353,251.20250116602983,252.18589083303232,252.18589083303232,252.18589083303232,253.67772962502204,left,1.4895759589853697,None,,,,,,,,,,,,,,,,,,,,,,,,,,,,,,,,,,,,,,,,981605,001,2024-12-08_16h10.48.516,Test,2024.2.4,None,2024-12-08 16h11.50.749128 +0100,
40,150,0,62,None,8,8,0,True,left,1.011209707998205,None,,,,,,,,0,8,8,8,,,,,,,,,253.6933143750066,,,,,,,,,,,,,,,,,,,,,,,,,,,,,,,,,,,,,,253.68705633300124,253.6933143750066,254.69121291599004,255.67667183303274,255.67667183303274,255.67667183303274,256.6941272910335,left,1.011209707998205,None,,,,,,,,,,,,,,,,,,,,,,,,,,,,,,,,,,,,,,,,981605,001,2024-12-08_16h10.48.516,Test,2024.2.4,None,2024-12-08 16h11.50.749128 +0100,
30,150,150,51,None,9,9,0,False,right,0.8852235829690471,None,,,,,,,,0,9,9,9,,,,,,,,,256.7096045000362,,,,,,,,,,,,,,,,,,,,,,,,,,,,,,,,,,,,,,256.70342045801226,256.7096045000362,257.7069098750362,258.69314495800063,258.69314495800063,258.69314495800063,259.5878159159911,right,0.8852235829690471,None,,,,,,,,,,,,,,,,,,,,,,,,,,,,,,,,,,,,,,,,981605,001,2024-12-08_16h10.48.516,Test,2024.2.4,None,2024-12-08 16h11.50.749128 +0100,
67,150,180,57,None,10,10,0,True,right,1.0004072079900652,None,,,,,,,,0,10,10,10,,,,,,,,,259.6033913749852,,,,,,,,,,,,,,,,,,,,,,,,,,,,,,,,,,,,,,259.59727329103043,259.6033913749852,260.5910084579955,261.585961957986,261.585961957986,261.585961957986,262.58943591598654,right,1.0004072079900652,None,,,,,,,,,,,,,,,,,,,,,,,,,,,,,,,,,,,,,,,,981605,001,2024-12-08_16h10.48.516,Test,2024.2.4,None,2024-12-08 16h11.50.749128 +0100,
54,150,90,8,None,11,11,0,True,left,1.1022066250443459,None,,,,,,,,0,11,11,11,,,,,,,,,262.6056545409956,,,,,,,,,,,,,,,,,,,,,,,,,,,,,,,,,,,,,,262.5994696250418,262.6056545409956,263.60244512499776,264.58602833299665,264.58602833299665,264.58602833299665,265.6940020000329,left,1.1022066250443459,None,,,,,,,,,,,,,,,,,,,,,,,,,,,,,,,,,,,,,,,,981605,001,2024-12-08_16h10.48.516,Test,2024.2.4,None,2024-12-08 16h11.50.749128 +0100,
35,150,180,52,None,12,12,0,False,right,0.9971992089995183,None,,,,,,,,0,12,12,12,,,,,,,,,265.7096772909863,,,,,,,,,,,,,,,,,,,,,,,,,,,,,,,,,,,,,,265.70307362498716,265.7096772909863,266.7084491249989,267.69390737504,267.69390737504,267.69390737504,268.69402670802083,right,0.9971992089995183,None,,,,,,,,,,,,,,,,,,,,,,,,,,,,,,,,,,,,,,,,981605,001,2024-12-08_16h10.48.516,Test,2024.2.4,None,2024-12-08 16h11.50.749128 +0100,
10,150,30,66,None,13,13,0,False,right,1.7283055420266464,None,,,,,,,,0,13,13,13,,,,,,,,,268.70863720803754,,,,,,,,,,,,,,,,,,,,,,,,,,,,,,,,,,,,,,268.70244795799954,268.70863720803754,269.7024984160089,270.69281945802504,270.69281945802504,270.69281945802504,272.42777175002266,right,1.7283055420266464,None,,,,,,,,,,,,,,,,,,,,,,,,,,,,,,,,,,,,,,,,981605,001,2024-12-08_16h10.48.516,Test,2024.2.4,None,2024-12-08 16h11.50.749128 +0100,
66,150,180,31,None,14,14,0,True,left,0.9776252920273691,None,,,,,,,,0,14,14,14,,,,,,,,,272.44257975002984,,,,,,,,,,,,,,,,,,,,,,,,,,,,,,,,,,,,,,272.43655575002776,272.44257975002984,273.4358172910288,274.42700854100985,274.42700854100985,274.42700854100985,275.4108922909945,left,0.9776252920273691,None,,,,,,,,,,,,,,,,,,,,,,,,,,,,,,,,,,,,,,,,981605,001,2024-12-08_16h10.48.516,Test,2024.2.4,None,2024-12-08 16h11.50.749128 +0100,
2,150,0,58,None,15,15,0,False,left,0.8398254999774508,None,,,,,,,,0,15,15,15,,,,,,,,,275.4255938749993,,,,,,,,,,,,,,,,,,,,,,,,,,,,,,,,,,,,,,275.4195100000361,275.4255938749993,276.4192527910345,277.4095949580078,277.4095949580078,277.4095949580078,278.25455375004094,left,0.8398254999774508,None,,,,,,,,,,,,,,,,,,,,,,,,,,,,,,,,,,,,,,,,981605,001,2024-12-08_16h10.48.516,Test,2024.2.4,None,2024-12-08 16h11.50.749128 +0100,
49,150,60,43,None,16,16,0,True,left,1.4893235419876873,None,,,,,,,,0,16,16,16,,,,,,,,,278.26893333299085,,,,,,,,,,,,,,,,,,,,,,,,,,,,,,,,,,,,,,278.26295400003437,278.26893333299085,279.2570876250393,280.25259466603165,280.25259466603165,280.25259466603165,281.7441479160334,left,1.4893235419876873,None,,,,,,,,,,,,,,,,,,,,,,,,,,,,,,,,,,,,,,,,981605,001,2024-12-08_16h10.48.516,Test,2024.2.4,None,2024-12-08 16h11.50.749128 +0100,
50,150,60,56,None,17,17,0,True,left,1.6013624999905005,None,,,,,,,,0,17,17,17,,,,,,,,,281.75959770800546,,,,,,,,,,,,,,,,,,,,,,,,,,,,,,,,,,,,,,281.7534189160215,281.75959770800546,282.7578899580403,283.7429100830341,283.7429100830341,283.7429100830341,285.3545235830243,left,1.6013624999905005,None,,,,,,,,,,,,,,,,,,,,,,,,,,,,,,,,,,,,,,,,981605,001,2024-12-08_16h10.48.516,Test,2024.2.4,None,2024-12-08 16h11.50.749128 +0100,
29,150,150,28,None,18,18,0,False,right,1.2089082499733195,None,,,,,,,,0,18,18,18,,,,,,,,,285.3696378330351,,,,,,,,,,,,,,,,,,,,,,,,,,,,,,,,,,,,,,285.3632582499995,285.3696378330351,286.35783245798666,287.3525339580374,287.3525339580374,287.3525339580374,288.5713287080289,right,1.2089082499733195,None,,,,,,,,,,,,,,,,,,,,,,,,,,,,,,,,,,,,,,,,981605,001,2024-12-08_16h10.48.516,Test,2024.2.4,None,2024-12-08 16h11.50.749128 +0100,
1,150,0,9,None,19,19,0,False,left,1.3526947079808451,None,,,,,,,,0,19,19,19,,,,,,,,,288.58612045802874,,,,,,,,,,,,,,,,,,,,,,,,,,,,,,,,,,,,,,288.580032124999,288.58612045802874,289.5745179160149,290.5692248750129,290.5692248750129,290.5692248750129,291.92778212501435,left,1.3526947079808451,None,,,,,,,,,,,,,,,,,,,,,,,,,,,,,,,,,,,,,,,,981605,001,2024-12-08_16h10.48.516,Test,2024.2.4,None,2024-12-08 16h11.50.749128 +0100,
18,150,90,1,None,20,20,0,False,right,1.0502292499877512,None,,,,,,,,0,20,20,20,,,,,,,,,291.94267000001855,,,,,,,,,,,,,,,,,,,,,,,,,,,,,,,,,,,,,,291.9358880830114,291.94267000001855,292.94104195799446,293.9264412500197,293.9264412500197,293.9264412500197,294.9879581659916,right,1.0502292499877512,None,,,,,,,,,,,,,,,,,,,,,,,,,,,,,,,,,,,,,,,,981605,001,2024-12-08_16h10.48.516,Test,2024.2.4,None,2024-12-08 16h11.50.749128 +0100,
23,150,120,69,None,21,21,0,False,right,1.1078481249860488,None,,,,,,,,0,21,21,21,,,,,,,,,295.0035285410122,,,,,,,,,,,,,,,,,,,,,,,,,,,,,,,,,,,,,,294.9970106250257,295.0035285410122,295.9911611250136,296.9858220000169,296.9858220000169,296.9858220000169,298.10465674998704,right,1.1078481249860488,None,,,,,,,,,,,,,,,,,,,,,,,,,,,,,,,,,,,,,,,,981605,001,2024-12-08_16h10.48.516,Test,2024.2.4,None,2024-12-08 16h11.50.749128 +0100,
48,150,60,34,None,22,22,0,True,left,0.9586706659756601,None,,,,,,,,0,22,22,22,,,,,,,,,298.1336258749943,,,,,,,,,,,,,,,,,,,,,,,,,,,,,,,,,,,,,,298.12770470802207,298.1336258749943,299.1245236659888,300.1190572910127,300.1190572910127,300.1190572910127,301.0879530000384,left,0.9586706659756601,None,,,,,,,,,,,,,,,,,,,,,,,,,,,,,,,,,,,,,,,,981605,001,2024-12-08_16h10.48.516,Test,2024.2.4,None,2024-12-08 16h11.50.749128 +0100,
6,150,30,40,None,23,23,0,False,left,2.4250202090479434,None,,,,,,,,0,23,23,23,,,,,,,,,301.10460862499895,,,,,,,,,,,,,,,,,,,,,,,,,,,,,,,,,,,,,,301.0979213329847,301.10460862499895,302.1027122910018,303.0859781249892,303.0859781249892,303.0859781249892,305.52119525003945,left,2.4250202090479434,None,,,,,,,,,,,,,,,,,,,,,,,,,,,,,,,,,,,,,,,,981605,001,2024-12-08_16h10.48.516,Test,2024.2.4,None,2024-12-08 16h11.50.749128 +0100,
11,150,60,50,None,24,24,0,False,left,1.2017864170484245,None,,,,,,,,0,24,24,24,,,,,,,,,305.53687883302337,,,,,,,,,,,,,,,,,,,,,,,,,,,,,,,,,,,,,,305.5300272080349,305.53687883302337,306.53578858298715,307.51932700001635,307.51932700001635,307.51932700001635,308.72830700001214,left,1.2017864170484245,None,,,,,,,,,,,,,,,,,,,,,,,,,,,,,,,,,,,,,,,,981605,001,2024-12-08_16h10.48.516,Test,2024.2.4,None,2024-12-08 16h11.50.749128 +0100,
5,150,0,19,None,25,25,0,False,left,0.7818197080050595,None,,,,,,,,0,25,25,25,,,,,,,,,308.7442826660117,,,,,,,,,,,,,,,,,,,,,,,,,,,,,,,,,,,,,,308.7372863329947,308.7442826660117,309.7419029159937,310.72643833298935,310.72643833298935,310.72643833298935,311.510904958006,left,0.7818197080050595,None,,,,,,,,,,,,,,,,,,,,,,,,,,,,,,,,,,,,,,,,981605,001,2024-12-08_16h10.48.516,Test,2024.2.4,None,2024-12-08 16h11.50.749128 +0100,
62,150,150,22,None,26,26,0,True,right,1.01684729201952,None,,,,,,,,0,26,26,26,,,,,,,,,311.5248106250074,,,,,,,,,,,,,,,,,,,,,,,,,,,,,,,,,,,,,,311.5188202080317,311.5248106250074,312.5191646660096,313.5103129580384,313.5103129580384,313.5103129580384,314.5377848329954,right,1.01684729201952,None,,,,,,,,,,,,,,,,,,,,,,,,,,,,,,,,,,,,,,,,981605,001,2024-12-08_16h10.48.516,Test,2024.2.4,None,2024-12-08 16h11.50.749128 +0100,
68,150,180,11,None,27,27,0,True,left,1.0377730420441367,None,,,,,,,,0,27,27,27,,,,,,,,,314.5533046250348,,,,,,,,,,,,,,,,,,,,,,,,,,,,,,,,,,,,,,314.5464837910258,314.5533046250348,315.5405188330333,316.5360592909856,316.5360592909856,316.5360592909856,317.57771954103373,left,1.0377730420441367,None,,,,,,,,,,,,,,,,,,,,,,,,,,,,,,,,,,,,,,,,981605,001,2024-12-08_16h10.48.516,Test,2024.2.4,None,2024-12-08 16h11.50.749128 +0100,
47,150,60,47,None,28,28,0,True,left,0.9641604999778792,None,,,,,,,,0,28,28,28,,,,,,,,,317.5929642500123,,,,,,,,,,,,,,,,,,,,,,,,,,,,,,,,,,,,,,317.5864388330374,317.5929642500123,318.5911898330087,319.5761917910422,319.5761917910422,319.5761917910422,320.54461412498495,left,0.9641604999778792,None,,,,,,,,,,,,,,,,,,,,,,,,,,,,,,,,,,,,,,,,981605,001,2024-12-08_16h10.48.516,Test,2024.2.4,None,2024-12-08 16h11.50.749128 +0100,
20,150,90,44,None,29,29,0,False,right,1.2608704579761252,None,,,,,,,,0,29,29,29,,,,,,,,,320.55988683301257,,,,,,,,,,,,,,,,,,,,,,,,,,,,,,,,,,,,,,320.5537204160355,320.55988683301257,321.55693020799663,322.54291812499287,322.54291812499287,322.54291812499287,323.8106153749977,right,1.2608704579761252,None,,,,,,,,,,,,,,,,,,,,,,,,,,,,,,,,,,,,,,,,981605,001,2024-12-08_16h10.48.516,Test,2024.2.4,None,2024-12-08 16h11.50.749128 +0100,
70,150,180,67,None,30,30,0,True,left,0.9013961660093628,None,,,,,,,,0,30,30,30,,,,,,,,,323.82547695800895,,,,,,,,,,,,,,,,,,,,,,,,,,,,,,,,,,,,,,323.8195118330186,323.82547695800895,324.81916679098504,325.80949045799207,325.80949045799207,325.80949045799207,326.72114904102637,left,0.9013961660093628,None,,,,,,,,,,,,,,,,,,,,,,,,,,,,,,,,,,,,,,,,981605,001,2024-12-08_16h10.48.516,Test,2024.2.4,None,2024-12-08 16h11.50.749128 +0100,
42,150,30,17,None,31,31,0,True,left,0.7605366659699939,None,,,,,,,,0,31,31,31,,,,,,,,,326.7361762500368,,,,,,,,,,,,,,,,,,,,,,,,,,,,,,,,,,,,,,326.7301474160049,326.7361762500368,327.7245027080062,328.7192000829964,328.7192000829964,328.7192000829964,329.4881472910056,left,0.7605366659699939,None,,,,,,,,,,,,,,,,,,,,,,,,,,,,,,,,,,,,,,,,981605,001,2024-12-08_16h10.48.516,Test,2024.2.4,None,2024-12-08 16h11.50.749128 +0100,
59,150,120,3,None,32,32,0,True,left,1.8854397079558112,None,,,,,,,,0,32,32,32,,,,,,,,,329.50332020799397,,,,,,,,,,,,,,,,,,,,,,,,,,,,,,,,,,,,,,329.4971341250348,329.50332020799397,330.491129291011,331.4860184160061,331.4860184160061,331.4860184160061,333.37805291602854,left,1.8854397079558112,None,,,,,,,,,,,,,,,,,,,,,,,,,,,,,,,,,,,,,,,,981605,001,2024-12-08_16h10.48.516,Test,2024.2.4,None,2024-12-08 16h11.50.749128 +0100,
43,150,30,70,None,33,33,0,True,left,1.1115703330142424,None,,,,,,,,0,33,33,33,,,,,,,,,333.39386920799734,,,,,,,,,,,,,,,,,,,,,,,,,,,,,,,,,,,,,,333.3870730409981,333.39386920799734,334.39082229102496,335.3762455410324,335.3762455410324,335.3762455410324,336.4943368330132,left,1.1115703330142424,None,,,,,,,,,,,,,,,,,,,,,,,,,,,,,,,,,,,,,,,,981605,001,2024-12-08_16h10.48.516,Test,2024.2.4,None,2024-12-08 16h11.50.749128 +0100,
31,150,180,16,None,34,34,0,False,right,0.9159437500056811,None,,,,,,,,0,34,34,34,,,,,,,,,336.50932179100346,,,,,,,,,,,,,,,,,,,,,,,,,,,,,,,,,,,,,,336.50299204100156,336.50932179100346,337.5071143330424,338.49302075000014,338.49302075000014,338.49302075000014,339.4112362500164,right,0.9159437500056811,None,,,,,,,,,,,,,,,,,,,,,,,,,,,,,,,,,,,,,,,,981605,001,2024-12-08_16h10.48.516,Test,2024.2.4,None,2024-12-08 16h11.50.749128 +0100,
56,150,120,20,None,35,35,0,True,left,1.34437958401395,None,,,,,,,,0,35,35,35,,,,,,,,,339.4260233750101,,,,,,,,,,,,,,,,,,,,,,,,,,,,,,,,,,,,,,339.41956804099027,339.4260233750101,340.42433108302066,341.40936675004195,341.40936675004195,341.40936675004195,342.7636944580008,left,1.34437958401395,None,,,,,,,,,,,,,,,,,,,,,,,,,,,,,,,,,,,,,,,,981605,001,2024-12-08_16h10.48.516,Test,2024.2.4,None,2024-12-08 16h11.50.749128 +0100,
33,150,180,2,None,36,36,0,False,left,0.9061489159939811,None,,,,,,,,0,36,36,36,,,,,,,,,342.7759336660383,,,,,,,,,,,,,,,,,,,,,,,,,,,,,,,,,,,,,,342.7712455409928,342.7759336660383,343.76913358300226,344.7589482910116,344.7589482910116,344.7589482910116,345.6714147910243,left,0.9061489159939811,None,,,,,,,,,,,,,,,,,,,,,,,,,,,,,,,,,,,,,,,,981605,001,2024-12-08_16h10.48.516,Test,2024.2.4,None,2024-12-08 16h11.50.749128 +0100,
34,150,180,32,None,37,37,0,False,right,1.9292645420064218,None,,,,,,,,0,37,37,37,,,,,,,,,345.6871002910193,,,,,,,,,,,,,,,,,,,,,,,,,,,,,,,,,,,,,,345.6796403329936,345.6871002910193,346.68593104102183,347.6693298330065,347.6693298330065,347.6693298330065,349.6044216660084,right,1.9292645420064218,None,,,,,,,,,,,,,,,,,,,,,,,,,,,,,,,,,,,,,,,,981605,001,2024-12-08_16h10.48.516,Test,2024.2.4,None,2024-12-08 16h11.50.749128 +0100,
65,150,150,5,None,38,38,0,True,left,1.0588913750252686,None,,,,,,,,0,38,38,38,,,,,,,,,349.6191921249847,,,,,,,,,,,,,,,,,,,,,,,,,,,,,,,,,,,,,,349.61290316603845,349.6191921249847,350.6076553330058,351.6025304159848,351.6025304159848,351.6025304159848,352.6712843750138,left,1.0588913750252686,None,,,,,,,,,,,,,,,,,,,,,,,,,,,,,,,,,,,,,,,,981605,001,2024-12-08_16h10.48.516,Test,2024.2.4,None,2024-12-08 16h11.50.749128 +0100,
3,150,0,54,None,39,39,0,False,left,0.8136737080058083,None,,,,,,,,0,39,39,39,,,,,,,,,352.68645029101754,,,,,,,,,,,,,,,,,,,,,,,,,,,,,,,,,,,,,,352.6799712080392,352.68645029101754,353.67340112500824,354.669151375012,354.669151375012,354.669151375012,355.48811425000895,left,0.8136737080058083,None,,,,,,,,,,,,,,,,,,,,,,,,,,,,,,,,,,,,,,,,981605,001,2024-12-08_16h10.48.516,Test,2024.2.4,None,2024-12-08 16h11.50.749128 +0100,
57,150,120,38,None,40,40,0,True,left,1.877173208980821,None,,,,,,,,0,40,40,40,,,,,,,,,355.50337166601093,,,,,,,,,,,,,,,,,,,,,,,,,,,,,,,,,,,,,,355.4970702910214,355.50337166601093,356.4907536249957,357.48598558298545,357.48598558298545,357.48598558298545,359.372034,left,1.877173208980821,None,,,,,,,,,,,,,,,,,,,,,,,,,,,,,,,,,,,,,,,,981605,001,2024-12-08_16h10.48.516,Test,2024.2.4,None,2024-12-08 16h11.50.749128 +0100,
12,150,60,64,None,41,41,0,False,left,0.751427833980415,None,,,,,,,,0,41,41,41,,,,,,,,,359.3872171250405,,,,,,,,,,,,,,,,,,,,,,,,,,,,,,,,,,,,,,359.3807836250053,359.3872171250405,360.38588795799296,361.3693188329926,361.3693188329926,361.3693188329926,362.1301051250193,left,0.751427833980415,None,,,,,,,,,,,,,,,,,,,,,,,,,,,,,,,,,,,,,,,,981605,001,2024-12-08_16h10.48.516,Test,2024.2.4,None,2024-12-08 16h11.50.749128 +0100,
28,150,150,33,None,42,42,0,False,left,1.359595709014684,None,,,,,,,,0,42,42,42,,,,,,,,,362.14360129099805,,,,,,,,,,,,,,,,,,,,,,,,,,,,,,,,,,,,,,362.1382522910135,362.14360129099805,363.1411702079931,364.12647750001634,364.12647750001634,364.12647750001634,365.48854841600405,left,1.359595709014684,None,,,,,,,,,,,,,,,,,,,,,,,,,,,,,,,,,,,,,,,,981605,001,2024-12-08_16h10.48.516,Test,2024.2.4,None,2024-12-08 16h11.50.749128 +0100,
15,150,60,59,None,43,43,0,False,left,0.9956091669737361,None,,,,,,,,0,43,43,43,,,,,,,,,365.503300958022,,,,,,,,,,,,,,,,,,,,,,,,,,,,,,,,,,,,,,365.49686591600766,365.503300958022,366.491289291007,367.4859864159953,367.4859864159953,367.4859864159953,368.48795204103226,left,0.9956091669737361,None,,,,,,,,,,,,,,,,,,,,,,,,,,,,,,,,,,,,,,,,981605,001,2024-12-08_16h10.48.516,Test,2024.2.4,None,2024-12-08 16h11.50.749128 +0100,
16,150,90,46,None,44,44,0,False,left,1.9522725829738192,None,,,,,,,,0,44,44,44,,,,,,,,,368.50179991603363,,,,,,,,,,,,,,,,,,,,,,,,,,,,,,,,,,,,,,368.4958639580291,368.50179991603363,369.4908314580098,370.48603520798497,370.48603520798497,370.48603520798497,372.44426816602936,left,1.9522725829738192,None,,,,,,,,,,,,,,,,,,,,,,,,,,,,,,,,,,,,,,,,981605,001,2024-12-08_16h10.48.516,Test,2024.2.4,None,2024-12-08 16h11.50.749128 +0100,
55,150,90,4,None,45,45,0,True,left,1.1275038750027306,None,,,,,,,,0,45,45,45,,,,,,,,,372.4589708750136,,,,,,,,,,,,,,,,,,,,,,,,,,,,,,,,,,,,,,372.4528931250097,372.4589708750136,373.4527537500253,374.44289075001143,374.44289075001143,374.44289075001143,375.5772828750196,left,1.1275038750027306,None,,,,,,,,,,,,,,,,,,,,,,,,,,,,,,,,,,,,,,,,981605,001,2024-12-08_16h10.48.516,Test,2024.2.4,None,2024-12-08 16h11.50.749128 +0100,
14,150,60,35,None,46,46,0,False,left,1.8672487920266576,None,,,,,,,,0,46,46,46,,,,,,,,,375.5921180830337,,,,,,,,,,,,,,,,,,,,,,,,,,,,,,,,,,,,,,375.5861084579956,375.5921180830337,376.58582620800007,377.57731662498554,377.57731662498554,377.57731662498554,379.45459308300633,left,1.8672487920266576,None,,,,,,,,,,,,,,,,,,,,,,,,,,,,,,,,,,,,,,,,981605,001,2024-12-08_16h10.48.516,Test,2024.2.4,None,2024-12-08 16h11.50.749128 +0100,
17,150,90,41,None,47,47,0,False,right,2.474796415946912,None,,,,,,,,0,47,47,47,,,,,,,,,379.46965945803095,,,,,,,,,,,,,,,,,,,,,,,,,,,,,,,,,,,,,,379.4632952910033,379.46965945803095,380.4577189999982,381.4526705000317,381.4526705000317,381.4526705000317,383.93785108299926,right,2.474796415946912,None,,,,,,,,,,,,,,,,,,,,,,,,,,,,,,,,,,,,,,,,981605,001,2024-12-08_16h10.48.516,Test,2024.2.4,None,2024-12-08 16h11.50.749128 +0100,
36,150,0,25,None,48,48,0,True,left,0.8843000829801895,None,,,,,,,,0,48,48,48,,,,,,,,,383.9528147079982,,,,,,,,,,,,,,,,,,,,,,,,,,,,,,,,,,,,,,383.94622750004055,383.9528147079982,384.94122670800425,385.9359730409924,385.9359730409924,385.9359730409924,386.8295477080392,left,0.8843000829801895,None,,,,,,,,,,,,,,,,,,,,,,,,,,,,,,,,,,,,,,,,981605,001,2024-12-08_16h10.48.516,Test,2024.2.4,None,2024-12-08 16h11.50.749128 +0100,
39,150,0,30,None,49,49,0,True,left,0.9491771250031888,None,,,,,,,,0,49,49,49,,,,,,,,,386.84158158302307,,,,,,,,,,,,,,,,,,,,,,,,,,,,,,,,,,,,,,386.8370062080212,386.84158158302307,387.83593275002204,388.8264280410367,388.8264280410367,388.8264280410367,389.7777989580063,left,0.9491771250031888,None,,,,,,,,,,,,,,,,,,,,,,,,,,,,,,,,,,,,,,,,981605,001,2024-12-08_16h10.48.516,Test,2024.2.4,None,2024-12-08 16h11.50.749128 +0100,
44,150,30,14,None,50,50,0,True,left,2.3427182500017807,None,,,,,,,,0,50,50,50,,,,,,,,,389.7927718749852,,,,,,,,,,,,,,,,,,,,,,,,,,,,,,,,,,,,,,389.7866726249922,389.7927718749852,390.79149416601285,391.77691995800706,391.77691995800706,391.77691995800706,394.1222991250106,left,2.3427182500017807,None,,,,,,,,,,,,,,,,,,,,,,,,,,,,,,,,,,,,,,,,981605,001,2024-12-08_16h10.48.516,Test,2024.2.4,None,2024-12-08 16h11.50.749128 +0100,
69,150,180,6,None,51,51,0,True,right,0.851750833040569,None,,,,,,,,0,51,51,51,,,,,,,,,394.1370041249902,,,,,,,,,,,,,,,,,,,,,,,,,,,,,,,,,,,,,,394.1309060000349,394.1370041249902,395.13585770799546,396.1193060000078,396.1193060000078,396.1193060000078,396.9775282079936,right,0.851750833040569,None,,,,,,,,,,,,,,,,,,,,,,,,,,,,,,,,,,,,,,,,981605,001,2024-12-08_16h10.48.516,Test,2024.2.4,None,2024-12-08 16h11.50.749128 +0100,
51,150,90,61,None,52,52,0,True,left,1.8832307090051472,None,,,,,,,,0,52,52,52,,,,,,,,,396.9935324160033,,,,,,,,,,,,,,,,,,,,,,,,,,,,,,,,,,,,,,396.98681287502404,396.9935324160033,397.99203916604165,398.9761903749895,398.9761903749895,398.9761903749895,400.8616967910202,left,1.8832307090051472,None,,,,,,,,,,,,,,,,,,,,,,,,,,,,,,,,,,,,,,,,981605,001,2024-12-08_16h10.48.516,Test,2024.2.4,None,2024-12-08 16h11.50.749128 +0100,
53,150,90,42,None,53,53,0,True,right,1.5961249170359224,None,,,,,,,,0,53,53,53,,,,,,,,,400.87740479101194,,,,,,,,,,,,,,,,,,,,,,,,,,,,,,,,,,,,,,400.87095549999503,400.87740479101194,401.8744007500354,402.8595515000052,402.8595515000052,402.8595515000052,404.4612217079848,right,1.5961249170359224,None,,,,,,,,,,,,,,,,,,,,,,,,,,,,,,,,,,,,,,,,981605,001,2024-12-08_16h10.48.516,Test,2024.2.4,None,2024-12-08 16h11.50.749128 +0100,
4,150,0,37,None,54,54,0,False,left,0.8864396669669077,None,,,,,,,,0,54,54,54,,,,,,,,,404.47528424998745,,,,,,,,,,,,,,,,,,,,,,,,,,,,,,,,,,,,,,404.4696192910196,404.47528424998745,405.4692577079986,406.45997412502766,406.45997412502766,406.45997412502766,407.3546275830013,left,0.8864396669669077,None,,,,,,,,,,,,,,,,,,,,,,,,,,,,,,,,,,,,,,,,981605,001,2024-12-08_16h10.48.516,Test,2024.2.4,None,2024-12-08 16h11.50.749128 +0100,
32,150,180,39,None,55,55,0,False,right,1.0451264580478892,None,,,,,,,,0,55,55,55,,,,,,,,,407.3700272910064,,,,,,,,,,,,,,,,,,,,,,,,,,,,,,,,,,,,,,407.3634844160406,407.3700272910064,408.35709745803615,409.35263429098995,409.35263429098995,409.35263429098995,410.4046944580041,right,1.0451264580478892,None,,,,,,,,,,,,,,,,,,,,,,,,,,,,,,,,,,,,,,,,981605,001,2024-12-08_16h10.48.516,Test,2024.2.4,None,2024-12-08 16h11.50.749128 +0100,
25,150,120,7,None,56,56,0,False,right,2.235355625045486,None,,,,,,,,0,56,56,56,,,,,,,,,410.41930945799686,,,,,,,,,,,,,,,,,,,,,,,,,,,,,,,,,,,,,,410.4128360830364,410.41930945799686,411.4077955830144,412.40274029102875,412.40274029102875,412.40274029102875,414.6445206250064,right,2.235355625045486,None,,,,,,,,,,,,,,,,,,,,,,,,,,,,,,,,,,,,,,,,981605,001,2024-12-08_16h10.48.516,Test,2024.2.4,None,2024-12-08 16h11.50.749128 +0100,
41,150,30,21,None,57,57,0,True,left,1.9171765000210144,None,,,,,,,,0,57,57,57,,,,,,,,,414.6584761660197,,,,,,,,,,,,,,,,,,,,,,,,,,,,,,,,,,,,,,414.65284450002946,414.6584761660197,415.6525290409918,416.64425766601926,416.64425766601926,416.64425766601926,418.57145395799307,left,1.9171765000210144,None,,,,,,,,,,,,,,,,,,,,,,,,,,,,,,,,,,,,,,,,981605,001,2024-12-08_16h10.48.516,Test,2024.2.4,None,2024-12-08 16h11.50.749128 +0100,
22,150,120,24,None,58,58,0,False,right,1.1520170840085484,None,,,,,,,,0,58,58,58,,,,,,,,,418.5865257080295,,,,,,,,,,,,,,,,,,,,,,,,,,,,,,,,,,,,,,418.57977354101604,418.5865257080295,419.57462570798816,420.5694810409914,420.5694810409914,420.5694810409914,421.7272273330018,right,1.1520170840085484,None,,,,,,,,,,,,,,,,,,,,,,,,,,,,,,,,,,,,,,,,981605,001,2024-12-08_16h10.48.516,Test,2024.2.4,None,2024-12-08 16h11.50.749128 +0100,
63,150,150,53,None,59,59,0,True,left,1.0097104590386152,None,,,,,,,,0,59,59,59,,,,,,,,,421.74246400000993,,,,,,,,,,,,,,,,,,,,,,,,,,,,,,,,,,,,,,421.736212000018,421.74246400000993,422.73589337500744,423.72630604100414,423.72630604100414,423.72630604100414,424.73831162502756,left,1.0097104590386152,None,,,,,,,,,,,,,,,,,,,,,,,,,,,,,,,,,,,,,,,,981605,001,2024-12-08_16h10.48.516,Test,2024.2.4,None,2024-12-08 16h11.50.749128 +0100,
7,150,30,27,None,60,60,0,False,left,0.83024637500057,None,,,,,,,,0,60,60,60,,,,,,,,,424.75350908300607,,,,,,,,,,,,,,,,,,,,,,,,,,,,,,,,,,,,,,424.74716695799725,424.75350908300607,425.741545958037,426.73599108302733,426.73599108302733,426.73599108302733,427.5718721660087,left,0.83024637500057,None,,,,,,,,,,,,,,,,,,,,,,,,,,,,,,,,,,,,,,,,981605,001,2024-12-08_16h10.48.516,Test,2024.2.4,None,2024-12-08 16h11.50.749128 +0100,
13,150,60,13,None,61,61,0,False,left,1.6112360420520417,None,,,,,,,,0,61,61,61,,,,,,,,,427.58617033303017,,,,,,,,,,,,,,,,,,,,,,,,,,,,,,,,,,,,,,427.5801422499935,427.58617033303017,428.574587250012,429.569288541039,429.569288541039,429.569288541039,431.18811691598967,left,1.6112360420520417,None,,,,,,,,,,,,,,,,,,,,,,,,,,,,,,,,,,,,,,,,981605,001,2024-12-08_16h10.48.516,Test,2024.2.4,None,2024-12-08 16h11.50.749128 +0100,
38,150,0,10,None,62,62,0,True,left,1.1066817080136389,None,,,,,,,,0,62,62,62,,,,,,,,,431.20304820802994,,,,,,,,,,,,,,,,,,,,,,,,,,,,,,,,,,,,,,431.1971058330382,431.20304820802994,432.1913452910376,433.18604891601717,433.18604891601717,433.18604891601717,434.3050991250202,left,1.1066817080136389,None,,,,,,,,,,,,,,,,,,,,,,,,,,,,,,,,,,,,,,,,981605,001,2024-12-08_16h10.48.516,Test,2024.2.4,None,2024-12-08 16h11.50.749128 +0100,
37,150,0,68,None,63,63,0,True,left,1.0524189160205424,None,,,,,,,,0,63,63,63,,,,,,,,,434.32124641601695,,,,,,,,,,,,,,,,,,,,,,,,,,,,,,,,,,,,,,434.31437725003343,434.32124641601695,435.3192677500192,436.3026110409992,436.3026110409992,436.3026110409992,437.36045420798473,left,1.0524189160205424,None,,,,,,,,,,,,,,,,,,,,,,,,,,,,,,,,,,,,,,,,981605,001,2024-12-08_16h10.48.516,Test,2024.2.4,None,2024-12-08 16h11.50.749128 +0100,
26,150,150,60,None,64,64,0,False,right,1.1820877080317587,None,,,,,,,,0,64,64,64,,,,,,,,,437.37569712504046,,,,,,,,,,,,,,,,,,,,,,,,,,,,,,,,,,,,,,437.36957541602897,437.37569712504046,438.36945979099255,439.3595414580195,439.3595414580195,439.3595414580195,440.54438929102616,right,1.1820877080317587,None,,,,,,,,,,,,,,,,,,,,,,,,,,,,,,,,,,,,,,,,981605,001,2024-12-08_16h10.48.516,Test,2024.2.4,None,2024-12-08 16h11.50.749128 +0100,
46,150,60,48,None,65,65,0,True,left,0.8558014170266688,None,,,,,,,,0,65,65,65,,,,,,,,,440.55902491603047,,,,,,,,,,,,,,,,,,,,,,,,,,,,,,,,,,,,,,440.5530106659862,440.55902491603047,441.55256766598905,442.5426587080001,442.5426587080001,442.5426587080001,443.40473258303246,left,0.8558014170266688,None,,,,,,,,,,,,,,,,,,,,,,,,,,,,,,,,,,,,,,,,981605,001,2024-12-08_16h10.48.516,Test,2024.2.4,None,2024-12-08 16h11.50.749128 +0100,
8,150,30,29,None,66,66,0,False,right,1.8741134160081856,None,,,,,,,,0,66,66,66,,,,,,,,,443.41828691598494,,,,,,,,,,,,,,,,,,,,,,,,,,,,,,,,,,,,,,443.41247562499484,443.41828691598494,444.4069015409914,445.4026164159877,445.4026164159877,445.4026164159877,447.28792233299464,right,1.8741134160081856,None,,,,,,,,,,,,,,,,,,,,,,,,,,,,,,,,,,,,,,,,981605,001,2024-12-08_16h10.48.516,Test,2024.2.4,None,2024-12-08 16h11.50.749128 +0100,
60,150,120,63,None,67,67,0,True,left,1.2200188330025412,None,,,,,,,,0,67,67,67,,,,,,,,,447.30242875003023,,,,,,,,,,,,,,,,,,,,,,,,,,,,,,,,,,,,,,447.29625670803944,447.30242875003023,448.2910952910315,449.286084708001,449.286084708001,449.286084708001,450.51076170802116,left,1.2200188330025412,None,,,,,,,,,,,,,,,,,,,,,,,,,,,,,,,,,,,,,,,,981605,001,2024-12-08_16h10.48.516,Test,2024.2.4,None,2024-12-08 16h11.50.749128 +0100,
9,150,30,18,None,68,68,0,False,right,1.3767847919953056,None,,,,,,,,0,68,68,68,,,,,,,,,450.5243841250194,,,,,,,,,,,,,,,,,,,,,,,,,,,,,,,,,,,,,,450.51875029102666,450.5243841250194,451.519383958017,452.5094937499962,452.5094937499962,452.5094937499962,453.8893217910081,right,1.3767847919953056,None,,,,,,,,,,,,,,,,,,,,,,,,,,,,,,,,,,,,,,,,981605,001,2024-12-08_16h10.48.516,Test,2024.2.4,None,2024-12-08 16h11.50.749128 +0100,
61,150,150,45,None,69,69,0,True,left,0.9406395410187542,None,,,,,,,,0,69,69,69,,,,,,,,,453.905341625039,,,,,,,,,,,,,,,,,,,,,,,,,,,,,,,,,,,,,,453.8983872079989,453.905341625039,454.90250812500017,455.8861142080277,455.8861142080277,455.8861142080277,456.8378477910301,left,0.9406395410187542,None,,,,,,,,,,,,,,,,,,,,,,,,,,,,,,,,,,,,,,,,981605,001,2024-12-08_16h10.48.516,Test,2024.2.4,None,2024-12-08 16h11.50.749128 +0100,
,,,,,,,,,,,,,,,,,,,,,,,,,,,,,,,,,,,,,,,,,,,,,,,,,,,,,,,,,,,,,,,,,,,,,,,,,,,,,,,456.838144999987,456.84855604101904,456.84855604101904,462.47232450003503,space,5.621154125023168,None,,,,,,,,,,,,,,,,,,,,,,,,,,,,,,,,,981605,001,2024-12-08_16h10.48.516,Test,2024.2.4,None,2024-12-08 16h11.50.749128 +0100,
2,150,0,58,None,0,0,0,,,,,,,,,,,,,,,,0,0,0,1,,,,,462.49859191599535,,,,,,,,,,,,,,,,,,,,,,,,,,,,,,,,,,,,,,,,,,,,,,,,,,,,,,,462.49007995799184,462.49859191599535,462.6687436660286,462.6687436660286,462.6909501249902,464.36696279101307,464.36696279101307,464.3535649580299,,,,,,,,,,,,,,,,,,,,,,,,,981605,001,2024-12-08_16h10.48.516,Test,2024.2.4,None,2024-12-08 16h11.50.749128 +0100,
3,150,0,54,None,1,1,0,,,,,,,,,,,,,,,,0,1,1,2,,,,,464.36696279101307,,,,,,,,,,,,,,,,,,,,,,,,,,,,,,,,,,,,,,,,,,,,,,,,,,,,,,,464.36201970803086,464.37176070798887,464.5693477910245,464.5693477910245,464.5693477910245,466.26699637499405,466.26699637499405,466.2535041660303,,,,,,,,,,,,,,,,,,,,,,,,,981605,001,2024-12-08_16h10.48.516,Test,2024.2.4,None,2024-12-08 16h11.50.749128 +0100,
27,150,150,15,None,2,2,0,,,,,,,,,,,,,,,,0,2,2,26,,,,,466.26699637499405,,,,,,,,,,,,,,,,,,,,,,,,,,,,,,,,,,,,,,,,,,,,,,,,,,,,,,,466.2621170000057,466.27199187502265,466.4692351660342,466.4692351660342,466.4692351660342,468.1670826250338,468.1670826250338,468.15357462503016,,,,,,,,,,,,,,,,,,,,,,,,,981605,001,2024-12-08_16h10.48.516,Test,2024.2.4,None,2024-12-08 16h11.50.749128 +0100,
22,150,120,24,None,3,3,0,,,,,,,,,,,,,,,,0,3,3,21,,,,,468.1670826250338,,,,,,,,,,,,,,,,,,,,,,,,,,,,,,,,,,,,,,,,,,,,,,,,,,,,,,,468.16213875001995,468.17207270802464,468.36934075003956,468.36934075003956,468.36934075003956,470.0664653329877,470.0664653329877,470.0534315829864,,,,,,,,,,,,,,,,,,,,,,,,,981605,001,2024-12-08_16h10.48.516,Test,2024.2.4,None,2024-12-08 16h11.50.749128 +0100,
9,150,30,18,None,4,4,0,,,,,,,,,,,,,,,,0,4,4,8,,,,,470.0664653329877,,,,,,,,,,,,,,,,,,,,,,,,,,,,,,,,,,,,,,,,,,,,,,,,,,,,,,,470.0616581250215,470.0717604160309,470.2694516660413,470.2694516660413,470.2694516660413,471.96778933302267,471.96778933302267,471.9535187080037,,,,,,,,,,,,,,,,,,,,,,,,,981605,001,2024-12-08_16h10.48.516,Test,2024.2.4,None,2024-12-08 16h11.50.749128 +0100,
11,150,60,50,None,5,5,0,,,,,,,,,,,,,,,,0,5,5,10,,,,,471.96778933302267,,,,,,,,,,,,,,,,,,,,,,,,,,,,,,,,,,,,,,,,,,,,,,,,,,,,,,,471.96283412503544,471.9721663329983,472.1694831250352,472.1694831250352,472.1694831250352,473.8670735830092,473.8670735830092,473.85366841603536,,,,,,,,,,,,,,,,,,,,,,,,,981605,001,2024-12-08_16h10.48.516,Test,2024.2.4,None,2024-12-08 16h11.50.749128 +0100,
30,150,150,51,None,6,6,0,,,,,,,,,,,,,,,,0,6,6,29,,,,,473.8670735830092,,,,,,,,,,,,,,,,,,,,,,,,,,,,,,,,,,,,,,,,,,,,,,,,,,,,,,,473.862261665985,473.8712622500025,474.06933458300773,474.06933458300773,474.06933458300773,475.7669398750295,475.7669398750295,475.7535220410209,,,,,,,,,,,,,,,,,,,,,,,,,981605,001,2024-12-08_16h10.48.516,Test,2024.2.4,None,2024-12-08 16h11.50.749128 +0100,
31,150,180,16,None,7,7,0,,,,,,,,,,,,,,,,0,7,7,30,,,,,475.7669398750295,,,,,,,,,,,,,,,,,,,,,,,,,,,,,,,,,,,,,,,,,,,,,,,,,,,,,,,475.761905708001,475.7720182079938,475.969388041005,475.969388041005,475.969388041005,477.66724095802056,477.66724095802056,477.65349941601744,,,,,,,,,,,,,,,,,,,,,,,,,981605,001,2024-12-08_16h10.48.516,Test,2024.2.4,None,2024-12-08 16h11.50.749128 +0100,
16,150,90,46,None,8,8,0,,,,,,,,,,,,,,,,0,8,8,15,,,,,477.66724095802056,,,,,,,,,,,,,,,,,,,,,,,,,,,,,,,,,,,,,,,,,,,,,,,,,,,,,,,477.6621192910243,477.67129179101903,477.86923558299895,477.86923558299895,477.86923558299895,479.56616241601296,479.56616241601296,479.55317850003485,,,,,,,,,,,,,,,,,,,,,,,,,981605,001,2024-12-08_16h10.48.516,Test,2024.2.4,None,2024-12-08 16h11.50.749128 +0100,
14,150,60,35,None,9,9,0,,,,,,,,,,,,,,,,0,9,9,13,,,,,479.56616241601296,,,,,,,,,,,,,,,,,,,,,,,,,,,,,,,,,,,,,,,,,,,,,,,,,,,,,,,479.5614524160046,479.5706322080223,479.76938675000565,479.76938675000565,479.76938675000565,481.4666854580282,481.4666854580282,481.45329924998805,,,,,,,,,,,,,,,,,,,,,,,,,981605,001,2024-12-08_16h10.48.516,Test,2024.2.4,None,2024-12-08 16h11.50.749128 +0100,
15,150,60,59,None,10,10,0,,,,,,,,,,,,,,,,0,10,10,14,,,,,481.4666854580282,,,,,,,,,,,,,,,,,,,,,,,,,,,,,,,,,,,,,,,,,,,,,,,,,,,,,,,481.46167066600174,481.4714059580001,481.66921291599283,481.66921291599283,481.66921291599283,483.36710129101994,483.36710129101994,483.35362045798684,,,,,,,,,,,,,,,,,,,,,,,,,981605,001,2024-12-08_16h10.48.516,Test,2024.2.4,None,2024-12-08 16h11.50.749128 +0100,
1,150,0,9,None,11,11,0,,,,,,,,,,,,,,,,0,11,11,0,,,,,483.36710129101994,,,,,,,,,,,,,,,,,,,,,,,,,,,,,,,,,,,,,,,,,,,,,,,,,,,,,,,483.3622517500189,483.3711929160054,483.56930954102427,483.56930954102427,483.56930954102427,485.2669888330274,485.2669888330274,485.2533709160052,,,,,,,,,,,,,,,,,,,,,,,,,981605,001,2024-12-08_16h10.48.516,Test,2024.2.4,None,2024-12-08 16h11.50.749128 +0100,
12,150,60,64,None,12,12,0,,,,,,,,,,,,,,,,0,12,12,11,,,,,485.2669888330274,,,,,,,,,,,,,,,,,,,,,,,,,,,,,,,,,,,,,,,,,,,,,,,,,,,,,,,485.26199000002816,485.27137279103044,485.4694035410066,485.4694035410066,485.4694035410066,487.16742641601013,487.16742641601013,487.1535204160027,,,,,,,,,,,,,,,,,,,,,,,,,981605,001,2024-12-08_16h10.48.516,Test,2024.2.4,None,2024-12-08 16h11.50.749128 +0100,
17,150,90,41,None,13,13,0,,,,,,,,,,,,,,,,0,13,13,16,,,,,487.16742641601013,,,,,,,,,,,,,,,,,,,,,,,,,,,,,,,,,,,,,,,,,,,,,,,,,,,,,,,487.1624010000378,487.17246887501096,487.36926162499003,487.36926162499003,487.36926162499003,489.06643883301876,489.06643883301876,489.05340025003534,,,,,,,,,,,,,,,,,,,,,,,,,981605,001,2024-12-08_16h10.48.516,Test,2024.2.4,None,2024-12-08 16h11.50.749128 +0100,
5,150,0,19,None,14,14,0,,,,,,,,,,,,,,,,0,14,14,4,,,,,489.06643883301876,,,,,,,,,,,,,,,,,,,,,,,,,,,,,,,,,,,,,,,,,,,,,,,,,,,,,,,489.06169941602275,489.07150637503946,489.2693532080157,489.2693532080157,489.2693532080157,490.96786350000184,490.96786350000184,490.9537821250269,,,,,,,,,,,,,,,,,,,,,,,,,981605,001,2024-12-08_16h10.48.516,Test,2024.2.4,None,2024-12-08 16h11.50.749128 +0100,
34,150,180,32,None,15,15,0,,,,,,,,,,,,,,,,0,15,15,33,,,,,490.96786350000184,,,,,,,,,,,,,,,,,,,,,,,,,,,,,,,,,,,,,,,,,,,,,,,,,,,,,,,490.9630434580031,490.97206724999705,491.1694367910386,491.1694367910386,491.1694367910386,492.8670457500266,492.8670457500266,492.85360162501456,,,,,,,,,,,,,,,,,,,,,,,,,981605,001,2024-12-08_16h10.48.516,Test,2024.2.4,None,2024-12-08 16h11.50.749128 +0100,
26,150,150,60,None,16,16,0,,,,,,,,,,,,,,,,0,16,16,25,,,,,492.8670457500266,,,,,,,,,,,,,,,,,,,,,,,,,,,,,,,,,,,,,,,,,,,,,,,,,,,,,,,492.86197641602485,492.8709760000347,493.0692484159954,493.0692484159954,493.0692484159954,494.76694466598565,494.76694466598565,494.7534446250065,,,,,,,,,,,,,,,,,,,,,,,,,981605,001,2024-12-08_16h10.48.516,Test,2024.2.4,None,2024-12-08 16h11.50.749128 +0100,
18,150,90,1,None,17,17,0,,,,,,,,,,,,,,,,0,17,17,17,,,,,494.76694466598565,,,,,,,,,,,,,,,,,,,,,,,,,,,,,,,,,,,,,,,,,,,,,,,,,,,,,,,494.76210125000216,494.7711218330078,494.96936658304185,494.96936658304185,494.96936658304185,496.6665353749995,496.6665353749995,496.653538500017,,,,,,,,,,,,,,,,,,,,,,,,,981605,001,2024-12-08_16h10.48.516,Test,2024.2.4,None,2024-12-08 16h11.50.749128 +0100,
23,150,120,69,None,18,18,0,,,,,,,,,,,,,,,,0,18,18,22,,,,,496.6665353749995,,,,,,,,,,,,,,,,,,,,,,,,,,,,,,,,,,,,,,,,,,,,,,,,,,,,,,,496.66177895799046,496.6712014999939,496.8692673750338,496.8692673750338,496.8692673750338,498.5679757500184,498.5679757500184,498.55388254101854,,,,,,,,,,,,,,,,,,,,,,,,,981605,001,2024-12-08_16h10.48.516,Test,2024.2.4,None,2024-12-08 16h11.50.749128 +0100,
24,150,120,12,None,19,19,0,,,,,,,,,,,,,,,,0,19,19,23,,,,,498.5679757500184,,,,,,,,,,,,,,,,,,,,,,,,,,,,,,,,,,,,,,,,,,,,,,,,,,,,,,,498.56295887503074,498.57389337499626,498.76932179101277,498.76932179101277,498.76932179101277,500.46739104099106,500.46739104099106,500.45364875002997,,,,,,,,,,,,,,,,,,,,,,,,,981605,001,2024-12-08_16h10.48.516,Test,2024.2.4,None,2024-12-08 16h11.50.749128 +0100,
33,150,180,2,None,20,20,0,,,,,,,,,,,,,,,,0,20,20,32,,,,,500.46739104099106,,,,,,,,,,,,,,,,,,,,,,,,,,,,,,,,,,,,,,,,,,,,,,,,,,,,,,,500.46240254101576,500.4719402079936,500.66918920801254,500.66918920801254,500.66918920801254,502.3673795000068,502.3673795000068,502.35355612501735,,,,,,,,,,,,,,,,,,,,,,,,,981605,001,2024-12-08_16h10.48.516,Test,2024.2.4,None,2024-12-08 16h11.50.749128 +0100,
4,150,0,37,None,21,21,0,,,,,,,,,,,,,,,,0,21,21,3,,,,,502.3673795000068,,,,,,,,,,,,,,,,,,,,,,,,,,,,,,,,,,,,,,,,,,,,,,,,,,,,,,,502.36230162502034,502.37234950001584,502.56946762499865,502.56946762499865,502.56946762499865,504.2671938330168,504.2671938330168,504.25338454102166,,,,,,,,,,,,,,,,,,,,,,,,,981605,001,2024-12-08_16h10.48.516,Test,2024.2.4,None,2024-12-08 16h11.50.749128 +0100,
25,150,120,7,None,22,22,0,,,,,,,,,,,,,,,,0,22,22,24,,,,,504.2671938330168,,,,,,,,,,,,,,,,,,,,,,,,,,,,,,,,,,,,,,,,,,,,,,,,,,,,,,,504.26240858301753,504.2719301250181,504.46946375002153,504.46946375002153,504.46946375002153,506.16770216601435,506.16770216601435,506.1538182910299,,,,,,,,,,,,,,,,,,,,,,,,,981605,001,2024-12-08_16h10.48.516,Test,2024.2.4,None,2024-12-08 16h11.50.749128 +0100,
28,150,150,33,None,23,23,0,,,,,,,,,,,,,,,,0,23,23,27,,,,,506.16770216601435,,,,,,,,,,,,,,,,,,,,,,,,,,,,,,,,,,,,,,,,,,,,,,,,,,,,,,,506.16278012498515,506.1722426660126,506.3692306660232,506.3692306660232,506.3692306660232,508.0673695830046,508.0673695830046,508.05362091603456,,,,,,,,,,,,,,,,,,,,,,,,,981605,001,2024-12-08_16h10.48.516,Test,2024.2.4,None,2024-12-08 16h11.50.749128 +0100,
6,150,30,40,None,24,24,0,,,,,,,,,,,,,,,,0,24,24,5,,,,,508.0673695830046,,,,,,,,,,,,,,,,,,,,,,,,,,,,,,,,,,,,,,,,,,,,,,,,,,,,,,,508.0623773750267,508.07123966602376,508.2693462080206,508.2693462080206,508.2693462080206,509.96689033298753,509.96689033298753,509.9536424159887,,,,,,,,,,,,,,,,,,,,,,,,,981605,001,2024-12-08_16h10.48.516,Test,2024.2.4,None,2024-12-08 16h11.50.749128 +0100,
8,150,30,29,None,25,25,0,,,,,,,,,,,,,,,,0,25,25,7,,,,,509.96689033298753,,,,,,,,,,,,,,,,,,,,,,,,,,,,,,,,,,,,,,,,,,,,,,,,,,,,,,,509.9618632910424,509.97187545802444,510.1691754159983,510.1691754159983,510.1691754159983,511.86770304100355,511.86770304100355,511.85397091601044,,,,,,,,,,,,,,,,,,,,,,,,,981605,001,2024-12-08_16h10.48.516,Test,2024.2.4,None,2024-12-08 16h11.50.749128 +0100,
19,150,90,65,None,26,26,0,,,,,,,,,,,,,,,,0,26,26,18,,,,,511.86770304100355,,,,,,,,,,,,,,,,,,,,,,,,,,,,,,,,,,,,,,,,,,,,,,,,,,,,,,,511.8627462500008,511.8725388330058,512.069223166036,512.069223166036,512.069223166036,513.7666917910101,513.7666917910101,513.7534175410401,,,,,,,,,,,,,,,,,,,,,,,,,981605,001,2024-12-08_16h10.48.516,Test,2024.2.4,None,2024-12-08 16h11.50.749128 +0100,
13,150,60,13,None,27,27,0,,,,,,,,,,,,,,,,0,27,27,12,,,,,513.7666917910101,,,,,,,,,,,,,,,,,,,,,,,,,,,,,,,,,,,,,,,,,,,,,,,,,,,,,,,513.7618789999979,513.7714025829919,513.9694008750375,513.9694008750375,513.9694008750375,515.6670342080179,515.6670342080179,515.6534915830125,,,,,,,,,,,,,,,,,,,,,,,,,981605,001,2024-12-08_16h10.48.516,Test,2024.2.4,None,2024-12-08 16h11.50.749128 +0100,
35,150,180,52,None,28,28,0,,,,,,,,,,,,,,,,0,28,28,34,,,,,515.6670342080179,,,,,,,,,,,,,,,,,,,,,,,,,,,,,,,,,,,,,,,,,,,,,,,,,,,,,,,515.6622424580273,515.6708991249907,515.8692258750089,515.8692258750089,515.8692258750089,517.5675589999883,517.5675589999883,517.5536420409917,,,,,,,,,,,,,,,,,,,,,,,,,981605,001,2024-12-08_16h10.48.516,Test,2024.2.4,None,2024-12-08 16h11.50.749128 +0100,
7,150,30,27,None,29,29,0,,,,,,,,,,,,,,,,0,29,29,6,,,,,517.5675589999883,,,,,,,,,,,,,,,,,,,,,,,,,,,,,,,,,,,,,,,,,,,,,,,,,,,,,,,517.5627555000247,517.5715292080422,517.7692611659877,517.7692611659877,517.7692611659877,519.466467124992,519.466467124992,519.4535934160231,,,,,,,,,,,,,,,,,,,,,,,,,981605,001,2024-12-08_16h10.48.516,Test,2024.2.4,None,2024-12-08 16h11.50.749128 +0100,
10,150,30,66,None,30,30,0,,,,,,,,,,,,,,,,0,30,30,9,,,,,519.466467124992,,,,,,,,,,,,,,,,,,,,,,,,,,,,,,,,,,,,,,,,,,,,,,,,,,,,,,,519.4616703329957,519.470381207997,519.6694758330123,519.6694758330123,519.6694758330123,521.3671045409865,521.3671045409865,521.3534742500051,,,,,,,,,,,,,,,,,,,,,,,,,981605,001,2024-12-08_16h10.48.516,Test,2024.2.4,None,2024-12-08 16h11.50.749128 +0100,
21,150,120,55,None,31,31,0,,,,,,,,,,,,,,,,0,31,31,20,,,,,521.3671045409865,,,,,,,,,,,,,,,,,,,,,,,,,,,,,,,,,,,,,,,,,,,,,,,,,,,,,,,521.3622145000263,521.3718708330416,521.5693266660091,521.5693266660091,521.5693266660091,523.2680350409937,523.2680350409937,523.2539772500168,,,,,,,,,,,,,,,,,,,,,,,,,981605,001,2024-12-08_16h10.48.516,Test,2024.2.4,None,2024-12-08 16h11.50.749128 +0100,
29,150,150,28,None,32,32,0,,,,,,,,,,,,,,,,0,32,32,28,,,,,523.2680350409937,,,,,,,,,,,,,,,,,,,,,,,,,,,,,,,,,,,,,,,,,,,,,,,,,,,,,,,523.2632708750316,523.2728136660298,523.4692992080236,523.4692992080236,523.4692992080236,525.1674126249854,525.1674126249854,525.1536504160031,,,,,,,,,,,,,,,,,,,,,,,,,981605,001,2024-12-08_16h10.48.516,Test,2024.2.4,None,2024-12-08 16h11.50.749128 +0100,
32,150,180,39,None,33,33,0,,,,,,,,,,,,,,,,0,33,33,31,,,,,525.1674126249854,,,,,,,,,,,,,,,,,,,,,,,,,,,,,,,,,,,,,,,,,,,,,,,,,,,,,,,525.162432000041,525.1718433329952,525.3692237079958,525.3692237079958,525.3692237079958,527.0674814580125,527.0674814580125,527.0539921250311,,,,,,,,,,,,,,,,,,,,,,,,,981605,001,2024-12-08_16h10.48.516,Test,2024.2.4,None,2024-12-08 16h11.50.749128 +0100,
20,150,90,44,None,34,34,0,,,,,,,,,,,,,,,,0,34,34,19,,,,,527.0674814580125,,,,,,,,,,,,,,,,,,,,,,,,,,,,,,,,,,,,,,,,,,,,,,,,,,,,,,,527.0624596250127,527.0721710409853,527.2695056659868,527.2695056659868,527.2695056659868,528.9586701660301,528.9586701660301,528.953398875019,,,,,,,,,,,,,,,,,,,,,,,,,981605,001,2024-12-08_16h10.48.516,Test,2024.2.4,None,2024-12-08 16h11.50.749128 +0100,
,,,,,,,,,,,,,,,,,,,,,,,,,,,,,,,,,,,,,,,,,,,,,,,,,,,,,,,,,,,,,,,,,,,,,,,,,,,,,,,,,,,,,,,,,,,,,,528.9536213750253,528.9684422080172,528.9684422080172,547.0348777080071,space,18.052006416022778,None,,,,,,,,,,,,,,,,,,981605,001,2024-12-08_16h10.48.516,Test,2024.2.4,None,2024-12-08 16h11.50.749128 +0100,
19,150,90,65,None,0,0,0,False,,,,right,1.1996281659812666,None,,,,,,,,,,,,,0,0,0,0,547.1748853329918,,,,,,,,,,,,,,,,,,,,,,,,,,,,,,,,,,,,,,,,,,,,,,,,,,,,,,,,,,,,,,,,,,,,,,547.1708879580256,547.1748853329918,548.16934141604,549.0267225410207,549.0267225410207,549.0267225410207,550.238085207995,right,1.1996281659812666,None,,,,,,,,981605,001,2024-12-08_16h10.48.516,Test,2024.2.4,None,2024-12-08 16h11.50.749128 +0100,
64,150,150,49,None,1,1,0,True,,,,left,1.0917937500053085,None,,,,,,,,,,,,,0,1,1,1,550.2546862910385,,,,,,,,,,,,,,,,,,,,,,,,,,,,,,,,,,,,,,,,,,,,,,,,,,,,,,,,,,,,,,,,,,,,,,550.2470040830085,550.2546862910385,551.2525010409881,552.2360575830098,552.2360575830098,552.2360575830098,553.3381624160102,left,1.0917937500053085,None,,,,,,,,981605,001,2024-12-08_16h10.48.516,Test,2024.2.4,None,2024-12-08 16h11.50.749128 +0100,
21,150,120,55,None,2,2,0,False,,,,right,0.8561065419926308,None,,,,,,,,,,,,,0,2,2,2,553.3537932910258,,,,,,,,,,,,,,,,,,,,,,,,,,,,,,,,,,,,,,,,,,,,,,,,,,,,,,,,,,,,,,,,,,,,,,553.346770291042,553.3537932910258,554.3525050000171,555.3359867500258,555.3359867500258,555.3359867500258,556.1944116660161,right,0.8561065419926308,None,,,,,,,,981605,001,2024-12-08_16h10.48.516,Test,2024.2.4,None,2024-12-08 16h11.50.749128 +0100,
52,150,90,36,None,3,3,0,True,,,,left,0.8856806249823421,None,,,,,,,,,,,,,0,3,3,3,556.2091192500084,,,,,,,,,,,,,,,,,,,,,,,,,,,,,,,,,,,,,,,,,,,,,,,,,,,,,,,,,,,,,,,,,,,,,,556.2028735830099,556.2091192500084,557.20780212502,558.1928835830186,558.1928835830186,558.1928835830186,559.0879950830131,left,0.8856806249823421,None,,,,,,,,981605,001,2024-12-08_16h10.48.516,Test,2024.2.4,None,2024-12-08 16h11.50.749128 +0100,
27,150,150,15,None,4,4,0,False,,,,left,1.3174199579516426,None,,,,,,,,,,,,,0,4,4,4,559.1032350829919,,,,,,,,,,,,,,,,,,,,,,,,,,,,,,,,,,,,,,,,,,,,,,,,,,,,,,,,,,,,,,,,,,,,,,559.0961240000324,559.1032350829919,560.0904739160324,561.0861526660156,561.0861526660156,561.0861526660156,562.4144930830225,left,1.3174199579516426,None,,,,,,,,981605,001,2024-12-08_16h10.48.516,Test,2024.2.4,None,2024-12-08 16h11.50.749128 +0100,
24,150,120,12,None,5,5,0,False,,,,right,1.8477745840209536,None,,,,,,,,,,,,,0,5,5,5,562.4257483329857,,,,,,,,,,,,,,,,,,,,,,,,,,,,,,,,,,,,,,,,,,,,,,,,,,,,,,,,,,,,,,,,,,,,,,562.4210232500336,562.4257483329857,563.4192123750108,564.4097610409954,564.4097610409954,564.4097610409954,566.2611221250263,right,1.8477745840209536,None,,,,,,,,981605,001,2024-12-08_16h10.48.516,Test,2024.2.4,None,2024-12-08 16h11.50.749128 +0100,
45,150,30,23,None,6,6,0,True,,,,left,0.7374502499587834,None,,,,,,,,,,,,,0,6,6,6,566.2752844160423,,,,,,,,,,,,,,,,,,,,,,,,,,,,,,,,,,,,,,,,,,,,,,,,,,,,,,,,,,,,,,,,,,,,,,566.2690915830317,566.2752844160423,567.2741369580035,568.259918374999,568.259918374999,568.259918374999,569.0047195410007,left,0.7374502499587834,None,,,,,,,,981605,001,2024-12-08_16h10.48.516,Test,2024.2.4,None,2024-12-08 16h11.50.749128 +0100,
58,150,120,26,None,7,7,0,True,,,,left,0.8733045419794507,None,,,,,,,,,,,,,0,7,7,7,569.0202753749909,,,,,,,,,,,,,,,,,,,,,,,,,,,,,,,,,,,,,,,,,,,,,,,,,,,,,,,,,,,,,,,,,,,,,,569.0137077079853,569.0202753749909,570.0191956660128,571.0025787500199,571.0025787500199,571.0025787500199,571.8780805830029,left,0.8733045419794507,None,,,,,,,,981605,001,2024-12-08_16h10.48.516,Test,2024.2.4,None,2024-12-08 16h11.50.749128 +0100,
40,150,0,62,None,8,8,0,True,,,,left,1.064098250004463,None,,,,,,,,,,,,,0,8,8,8,571.8964285830152,,,,,,,,,,,,,,,,,,,,,,,,,,,,,,,,,,,,,,,,,,,,,,,,,,,,,,,,,,,,,,,,,,,,,,571.889913541032,571.8964285830152,572.89121612499,573.8781261660042,573.8781261660042,573.8781261660042,574.9445608750102,left,1.064098250004463,None,,,,,,,,981605,001,2024-12-08_16h10.48.516,Test,2024.2.4,None,2024-12-08 16h11.50.749128 +0100,
30,150,150,51,None,9,9,0,False,,,,right,1.3775488340179436,None,,,,,,,,,,,,,0,9,9,9,574.959900833026,,,,,,,,,,,,,,,,,,,,,,,,,,,,,,,,,,,,,,,,,,,,,,,,,,,,,,,,,,,,,,,,,,,,,,574.9540775410132,574.959900833026,575.958037250035,576.9436780830147,576.9436780830147,576.9436780830147,578.3275240000221,right,1.3775488340179436,None,,,,,,,,981605,001,2024-12-08_16h10.48.516,Test,2024.2.4,None,2024-12-08 16h11.50.749128 +0100,
67,150,180,57,None,10,10,0,True,,,,left,0.9332410419592634,None,,,,,,,,,,,,,0,10,10,10,578.3421134999953,,,,,,,,,,,,,,,,,,,,,,,,,,,,,,,,,,,,,,,,,,,,,,,,,,,,,,,,,,,,,,,,,,,,,,578.3361035000416,578.3421134999953,579.335814125021,580.3255975000211,580.3255975000211,580.3255975000211,581.261360708042,left,0.9332410419592634,None,,,,,,,,981605,001,2024-12-08_16h10.48.516,Test,2024.2.4,None,2024-12-08 16h11.50.749128 +0100,
54,150,90,8,None,11,11,0,True,,,,left,0.794260666007176,None,,,,,,,,,,,,,0,11,11,11,581.275531375024,,,,,,,,,,,,,,,,,,,,,,,,,,,,,,,,,,,,,,,,,,,,,,,,,,,,,,,,,,,,,,,,,,,,,,581.2694432080025,581.275531375024,582.2692001250107,583.2594984580064,583.2594984580064,583.2594984580064,584.0605919160298,left,0.794260666007176,None,,,,,,,,981605,001,2024-12-08_16h10.48.516,Test,2024.2.4,None,2024-12-08 16h11.50.749128 +0100,
35,150,180,52,None,12,12,0,False,,,,right,0.8760791249806061,None,,,,,,,,,,,,,0,12,12,12,584.0758114579949,,,,,,,,,,,,,,,,,,,,,,,,,,,,,,,,,,,,,,,,,,,,,,,,,,,,,,,,,,,,,,,,,,,,,,584.0695942910388,584.0758114579949,585.0744966660277,586.0600191660342,586.0600191660342,586.0600191660342,586.9390284580295,right,0.8760791249806061,None,,,,,,,,981605,001,2024-12-08_16h10.48.516,Test,2024.2.4,None,2024-12-08 16h11.50.749128 +0100,
10,150,30,66,None,13,13,0,False,,,,right,1.1346699169953354,None,,,,,,,,,,,,,0,13,13,13,586.9537625410012,,,,,,,,,,,,,,,,,,,,,,,,,,,,,,,,,,,,,,,,,,,,,,,,,,,,,,,,,,,,,,,,,,,,,,586.947511291015,586.9537625410012,587.9525806250167,588.9359923750162,588.9359923750162,588.9359923750162,590.0773824159987,right,1.1346699169953354,None,,,,,,,,981605,001,2024-12-08_16h10.48.516,Test,2024.2.4,None,2024-12-08 16h11.50.749128 +0100,
66,150,180,31,None,14,14,0,True,,,,left,1.0186682080384344,None,,,,,,,,,,,,,0,14,14,14,590.0926090829889,,,,,,,,,,,,,,,,,,,,,,,,,,,,,,,,,,,,,,,,,,,,,,,,,,,,,,,,,,,,,,,,,,,,,,590.0860366660054,590.0926090829889,591.0911416659947,592.0773314160178,592.0773314160178,592.0773314160178,593.1051174580352,left,1.0186682080384344,None,,,,,,,,981605,001,2024-12-08_16h10.48.516,Test,2024.2.4,None,2024-12-08 16h11.50.749128 +0100,
2,150,0,58,None,15,15,0,False,,,,left,1.2596441669738851,None,,,,,,,,,,,,,0,15,15,15,593.1207672500168,,,,,,,,,,,,,,,,,,,,,,,,,,,,,,,,,,,,,,,,,,,,,,,,,,,,,,,,,,,,,,,,,,,,,,593.1142638750025,593.1207672500168,594.1191560000298,595.1027645409922,595.1027645409922,595.1027645409922,596.3714632079937,left,1.2596441669738851,None,,,,,,,,981605,001,2024-12-08_16h10.48.516,Test,2024.2.4,None,2024-12-08 16h11.50.749128 +0100,
49,150,60,43,None,16,16,0,True,,,,right,1.568178582994733,None,,,,,,,,,,,,,0,16,16,16,596.3867693750071,,,,,,,,,,,,,,,,,,,,,,,,,,,,,,,,,,,,,,,,,,,,,,,,,,,,,,,,,,,,,,,,,,,,,,596.38017691602,596.3867693750071,597.3743633329868,598.3693187499885,598.3693187499885,598.3693187499885,599.9440581250237,right,1.568178582994733,None,,,,,,,,981605,001,2024-12-08_16h10.48.516,Test,2024.2.4,None,2024-12-08 16h11.50.749128 +0100,
50,150,60,56,None,17,17,0,True,,,,left,0.9623584580258466,None,,,,,,,,,,,,,0,17,17,17,599.9589710410219,,,,,,,,,,,,,,,,,,,,,,,,,,,,,,,,,,,,,,,,,,,,,,,,,,,,,,,,,,,,,,,,,,,,,,599.9527528749895,599.9589710410219,600.9525825410383,601.9429045410361,601.9429045410361,601.9429045410361,602.9111789159942,left,0.9623584580258466,None,,,,,,,,981605,001,2024-12-08_16h10.48.516,Test,2024.2.4,None,2024-12-08 16h11.50.749128 +0100,
29,150,150,28,None,18,18,0,False,,,,right,1.2026014169678092,None,,,,,,,,,,,,,0,18,18,18,602.9262885830249,,,,,,,,,,,,,,,,,,,,,,,,,,,,,,,,,,,,,,,,,,,,,,,,,,,,,,,,,,,,,,,,,,,,,,602.920098875009,602.9262885830249,603.9245405829861,604.9090894580004,604.9090894580004,604.9090894580004,606.1215135410312,right,1.2026014169678092,None,,,,,,,,981605,001,2024-12-08_16h10.48.516,Test,2024.2.4,None,2024-12-08 16h11.50.749128 +0100,
1,150,0,9,None,19,19,0,False,,,,right,2.392007749993354,None,,,,,,,,,,,,,0,19,19,19,606.1366253750166,,,,,,,,,,,,,,,,,,,,,,,,,,,,,,,,,,,,,,,,,,,,,,,,,,,,,,,,,,,,,,,,,,,,,,606.1297982910182,606.1366253750166,607.124407041003,608.1193976250361,608.1193976250361,608.1193976250361,610.5216416250332,right,2.392007749993354,None,,,,,,,,981605,001,2024-12-08_16h10.48.516,Test,2024.2.4,None,2024-12-08 16h11.50.749128 +0100,
18,150,90,1,None,20,20,0,False,,,,left,1.622615083004348,None,,,,,,,,,,,,,0,20,20,20,610.5364633750287,,,,,,,,,,,,,,,,,,,,,,,,,,,,,,,,,,,,,,,,,,,,,,,,,,,,,,,,,,,,,,,,,,,,,,610.5299360830104,610.5364633750287,611.5236975410371,612.51932833303,612.51932833303,612.51932833303,614.1442255000002,left,1.622615083004348,None,,,,,,,,981605,001,2024-12-08_16h10.48.516,Test,2024.2.4,None,2024-12-08 16h11.50.749128 +0100,
23,150,120,69,None,21,21,0,False,,,,right,0.8827039169846103,None,,,,,,,,,,,,,0,21,21,21,614.1588252080255,,,,,,,,,,,,,,,,,,,,,,,,,,,,,,,,,,,,,,,,,,,,,,,,,,,,,,,,,,,,,,,,,,,,,,614.1526880410383,614.1588252080255,615.1525517909904,616.1427432500059,616.1427432500059,616.1427432500059,617.0276270830072,right,0.8827039169846103,None,,,,,,,,981605,001,2024-12-08_16h10.48.516,Test,2024.2.4,None,2024-12-08 16h11.50.749128 +0100,
48,150,60,34,None,22,22,0,True,,,,left,1.4258870420162566,None,,,,,,,,,,,,,0,22,22,22,617.0415546250297,,,,,,,,,,,,,,,,,,,,,,,,,,,,,,,,,,,,,,,,,,,,,,,,,,,,,,,,,,,,,,,,,,,,,,617.0356569160358,617.0415546250297,618.0359376250417,619.0271000000066,619.0271000000066,619.0271000000066,620.4559119160403,left,1.4258870420162566,None,,,,,,,,981605,001,2024-12-08_16h10.48.516,Test,2024.2.4,None,2024-12-08 16h11.50.749128 +0100,
6,150,30,40,None,23,23,0,False,,,,right,2.2347047500079498,None,,,,,,,,,,,,,0,23,23,23,620.4715094580315,,,,,,,,,,,,,,,,,,,,,,,,,,,,,,,,,,,,,,,,,,,,,,,,,,,,,,,,,,,,,,,,,,,,,,620.4647529580398,620.4715094580315,621.4692560830154,622.4526460000197,622.4526460000197,622.4526460000197,624.694484541018,right,2.2347047500079498,None,,,,,,,,981605,001,2024-12-08_16h10.48.516,Test,2024.2.4,None,2024-12-08 16h11.50.749128 +0100,
11,150,60,50,None,24,24,0,False,,,,left,1.251326917030383,None,,,,,,,,,,,,,0,24,24,24,624.7092517080018,,,,,,,,,,,,,,,,,,,,,,,,,,,,,,,,,,,,,,,,,,,,,,,,,,,,,,,,,,,,,,,,,,,,,,624.7029807500076,624.7092517080018,625.7024969159975,626.6931432079873,626.6931432079873,626.6931432079873,627.9546414160286,left,1.251326917030383,None,,,,,,,,981605,001,2024-12-08_16h10.48.516,Test,2024.2.4,None,2024-12-08 16h11.50.749128 +0100,
5,150,0,19,None,25,25,0,False,,,,right,0.8800208329921588,None,,,,,,,,,,,,,0,25,25,25,627.9699456249946,,,,,,,,,,,,,,,,,,,,,,,,,,,,,,,,,,,,,,,,,,,,,,,,,,,,,,,,,,,,,,,,,,,,,,627.9634943330311,627.9699456249946,628.9580538329901,629.9526625830331,629.9526625830331,629.9526625830331,630.8378983750008,right,0.8800208329921588,None,,,,,,,,981605,001,2024-12-08_16h10.48.516,Test,2024.2.4,None,2024-12-08 16h11.50.749128 +0100,
62,150,150,22,None,26,26,0,True,,,,left,0.9515112499939278,None,,,,,,,,,,,,,0,26,26,26,630.8530596659984,,,,,,,,,,,,,,,,,,,,,,,,,,,,,,,,,,,,,,,,,,,,,,,,,,,,,,,,,,,,,,,,,,,,,,630.8467798749916,630.8530596659984,631.8400680830237,632.8360235409928,632.8360235409928,632.8360235409928,633.7941214999883,left,0.9515112499939278,None,,,,,,,,981605,001,2024-12-08_16h10.48.516,Test,2024.2.4,None,2024-12-08 16h11.50.749128 +0100,
68,150,180,11,None,27,27,0,True,,,,left,0.9532129170256667,None,,,,,,,,,,,,,0,27,27,27,633.8121773750172,,,,,,,,,,,,,,,,,,,,,,,,,,,,,,,,,,,,,,,,,,,,,,,,,,,,,,,,,,,,,,,,,,,,,,633.8062774160062,633.8121773750172,634.8072337500053,635.794802999997,635.794802999997,635.794802999997,636.7547572500189,left,0.9532129170256667,None,,,,,,,,981605,001,2024-12-08_16h10.48.516,Test,2024.2.4,None,2024-12-08 16h11.50.749128 +0100,
47,150,60,47,None,28,28,0,True,,,,left,1.2861592089757323,None,,,,,,,,,,,,,0,28,28,28,636.769943375024,,,,,,,,,,,,,,,,,,,,,,,,,,,,,,,,,,,,,,,,,,,,,,,,,,,,,,,,,,,,,,,,,,,,,,636.7639964160044,636.769943375024,637.7577564580133,638.7526597499964,638.7526597499964,638.7526597499964,640.0448294579983,left,1.2861592089757323,None,,,,,,,,981605,001,2024-12-08_16h10.48.516,Test,2024.2.4,None,2024-12-08 16h11.50.749128 +0100,
20,150,90,44,None,29,29,0,False,,,,right,1.161029500013683,None,,,,,,,,,,,,,0,29,29,29,640.0600489579956,,,,,,,,,,,,,,,,,,,,,,,,,,,,,,,,,,,,,,,,,,,,,,,,,,,,,,,,,,,,,,,,,,,,,,640.0537427910022,640.0600489579956,641.0569932910148,642.0432255410124,642.0432255410124,642.0432255410124,643.2112471250002,right,1.161029500013683,None,,,,,,,,981605,001,2024-12-08_16h10.48.516,Test,2024.2.4,None,2024-12-08 16h11.50.749128 +0100,
70,150,180,67,None,30,30,0,True,,,,left,1.0120557080372237,None,,,,,,,,,,,,,0,30,30,30,643.2252746250015,,,,,,,,,,,,,,,,,,,,,,,,,,,,,,,,,,,,,,,,,,,,,,,,,,,,,,,,,,,,,,,,,,,,,,643.218685291009,643.2252746250015,644.2191484580399,645.2096556660254,645.2096556660254,645.2096556660254,646.2280488749966,left,1.0120557080372237,None,,,,,,,,981605,001,2024-12-08_16h10.48.516,Test,2024.2.4,None,2024-12-08 16h11.50.749128 +0100,
42,150,30,17,None,31,31,0,True,,,,left,1.2677275000023656,None,,,,,,,,,,,,,0,31,31,31,646.2433372910018,,,,,,,,,,,,,,,,,,,,,,,,,,,,,,,,,,,,,,,,,,,,,,,,,,,,,,,,,,,,,,,,,,,,,,646.2369874580181,646.2433372910018,647.2406714159879,648.2271212500054,648.2271212500054,648.2271212500054,649.5046589160338,left,1.2677275000023656,None,,,,,,,,981605,001,2024-12-08_16h10.48.516,Test,2024.2.4,None,2024-12-08 16h11.50.749128 +0100,
59,150,120,3,None,32,32,0,True,,,,left,1.1799631670000963,None,,,,,,,,,,,,,0,32,32,32,649.5199078749865,,,,,,,,,,,,,,,,,,,,,,,,,,,,,,,,,,,,,,,,,,,,,,,,,,,,,,,,,,,,,,,,,,,,,,649.5130532500334,649.5199078749865,650.5076845000149,651.5026599160046,651.5026599160046,651.5026599160046,652.6880305000232,left,1.1799631670000963,None,,,,,,,,981605,001,2024-12-08_16h10.48.516,Test,2024.2.4,None,2024-12-08 16h11.50.749128 +0100,
43,150,30,70,None,33,33,0,True,,,,left,1.1372322909883223,None,,,,,,,,,,,,,0,33,33,33,652.7033758750185,,,,,,,,,,,,,,,,,,,,,,,,,,,,,,,,,,,,,,,,,,,,,,,,,,,,,,,,,,,,,,,,,,,,,,652.6963614579872,652.7033758750185,653.6911424160353,654.6859186660149,654.6859186660149,654.6859186660149,655.8269495409913,left,1.1372322909883223,None,,,,,,,,981605,001,2024-12-08_16h10.48.516,Test,2024.2.4,None,2024-12-08 16h11.50.749128 +0100,
31,150,180,16,None,34,34,0,False,,,,right,1.6606323749874718,None,,,,,,,,,,,,,0,34,34,34,655.8394588330411,,,,,,,,,,,,,,,,,,,,,,,,,,,,,,,,,,,,,,,,,,,,,,,,,,,,,,,,,,,,,,,,,,,,,,655.8343506249948,655.8394588330411,656.8358086250373,657.8268660000176,657.8268660000176,657.8268660000176,659.4941953330417,right,1.6606323749874718,None,,,,,,,,981605,001,2024-12-08_16h10.48.516,Test,2024.2.4,None,2024-12-08 16h11.50.749128 +0100,
56,150,120,20,None,35,35,0,True,,,,right,1.144324500055518,None,,,,,,,,,,,,,0,35,35,35,659.5098482909962,,,,,,,,,,,,,,,,,,,,,,,,,,,,,,,,,,,,,,,,,,,,,,,,,,,,,,,,,,,,,,,,,,,,,,659.5027681250358,659.5098482909962,660.5074696250376,661.4935015829979,661.4935015829979,661.4935015829979,662.6445754999877,right,1.144324500055518,None,,,,,,,,981605,001,2024-12-08_16h10.48.516,Test,2024.2.4,None,2024-12-08 16h11.50.749128 +0100,
33,150,180,2,None,36,36,0,False,,,,left,0.9599783339654095,None,,,,,,,,,,,,,0,36,36,36,662.6590242080274,,,,,,,,,,,,,,,,,,,,,,,,,,,,,,,,,,,,,,,,,,,,,,,,,,,,,,,,,,,,,,,,,,,,,,662.6529134580051,662.6590242080274,663.6579018750344,664.6429214579985,664.6429214579985,664.6429214579985,665.6050525410101,left,0.9599783339654095,None,,,,,,,,981605,001,2024-12-08_16h10.48.516,Test,2024.2.4,None,2024-12-08 16h11.50.749128 +0100,
34,150,180,32,None,37,37,0,False,,,,left,1.0083201249944977,None,,,,,,,,,,,,,0,37,37,37,665.6201279159868,,,,,,,,,,,,,,,,,,,,,,,,,,,,,,,,,,,,,,,,,,,,,,,,,,,,,,,,,,,,,,,,,,,,,,665.6133269999991,665.6201279159868,666.6080563330324,667.6028361659846,667.6028361659846,667.6028361659846,668.6213187500252,left,1.0083201249944977,None,,,,,,,,981605,001,2024-12-08_16h10.48.516,Test,2024.2.4,None,2024-12-08 16h11.50.749128 +0100,
65,150,150,5,None,38,38,0,True,,,,left,0.8865174580132589,None,,,,,,,,,,,,,0,38,38,38,668.6354391660425,,,,,,,,,,,,,,,,,,,,,,,,,,,,,,,,,,,,,,,,,,,,,,,,,,,,,,,,,,,,,,,,,,,,,,668.6294385410147,668.6354391660425,669.624460291001,670.6193981250399,670.6193981250399,670.6193981250399,671.5108787909849,left,0.8865174580132589,None,,,,,,,,981605,001,2024-12-08_16h10.48.516,Test,2024.2.4,None,2024-12-08 16h11.50.749128 +0100,
3,150,0,54,None,39,39,0,False,,,,right,1.911554165999405,None,,,,,,,,,,,,,0,39,39,39,671.5257271660375,,,,,,,,,,,,,,,,,,,,,,,,,,,,,,,,,,,,,,,,,,,,,,,,,,,,,,,,,,,,,,,,,,,,,,671.5195501660346,671.5257271660375,672.519333083008,673.5098127500387,673.5098127500387,673.5098127500387,675.4278456660104,right,1.911554165999405,None,,,,,,,,981605,001,2024-12-08_16h10.48.516,Test,2024.2.4,None,2024-12-08 16h11.50.749128 +0100,
57,150,120,38,None,40,40,0,True,,,,left,1.016364875016734,None,,,,,,,,,,,,,0,40,40,40,675.4423240830074,,,,,,,,,,,,,,,,,,,,,,,,,,,,,,,,,,,,,,,,,,,,,,,,,,,,,,,,,,,,,,,,,,,,,,675.4365948750055,675.4423240830074,676.4358147080056,677.4263022080413,677.4263022080413,677.4263022080413,678.4450075000059,left,1.016364875016734,None,,,,,,,,981605,001,2024-12-08_16h10.48.516,Test,2024.2.4,None,2024-12-08 16h11.50.749128 +0100,
12,150,60,64,None,41,41,0,False,,,,left,1.8289905420388095,None,,,,,,,,,,,,,0,41,41,41,678.4590238750097,,,,,,,,,,,,,,,,,,,,,,,,,,,,,,,,,,,,,,,,,,,,,,,,,,,,,,,,,,,,,,,,,,,,,,678.453096207988,678.4590238750097,679.4572216250235,680.4428878750186,680.4428878750186,680.4428878750186,682.2781132500386,left,1.8289905420388095,None,,,,,,,,981605,001,2024-12-08_16h10.48.516,Test,2024.2.4,None,2024-12-08 16h11.50.749128 +0100,
28,150,150,33,None,42,42,0,False,,,,right,1.3994750829879194,None,,,,,,,,,,,,,0,42,42,42,682.2922435000073,,,,,,,,,,,,,,,,,,,,,,,,,,,,,,,,,,,,,,,,,,,,,,,,,,,,,,,,,,,,,,,,,,,,,,682.2865505410009,682.2922435000073,683.2905449999962,684.276270500035,684.276270500035,684.276270500035,685.6781476660399,right,1.3994750829879194,None,,,,,,,,981605,001,2024-12-08_16h10.48.516,Test,2024.2.4,None,2024-12-08 16h11.50.749128 +0100,
15,150,60,59,None,43,43,0,False,,,,right,1.4036921659717336,None,,,,,,,,,,,,,0,43,43,43,685.6932503330172,,,,,,,,,,,,,,,,,,,,,,,,,,,,,,,,,,,,,,,,,,,,,,,,,,,,,,,,,,,,,,,,,,,,,,685.6870611660415,685.6932503330172,686.6912836660049,687.6763112079934,687.6763112079934,687.6763112079934,689.088058000023,right,1.4036921659717336,None,,,,,,,,981605,001,2024-12-08_16h10.48.516,Test,2024.2.4,None,2024-12-08 16h11.50.749128 +0100,
16,150,90,46,None,44,44,0,False,,,,left,0.9684125420171767,None,,,,,,,,,,,,,0,44,44,44,689.1034394160379,,,,,,,,,,,,,,,,,,,,,,,,,,,,,,,,,,,,,,,,,,,,,,,,,,,,,,,,,,,,,,,,,,,,,,689.09681800002,689.1034394160379,690.0912003749982,691.0859203329892,691.0859203329892,691.0859203329892,692.06132745801,left,0.9684125420171767,None,,,,,,,,981605,001,2024-12-08_16h10.48.516,Test,2024.2.4,None,2024-12-08 16h11.50.749128 +0100,
55,150,90,4,None,45,45,0,True,,,,right,2.5114930840209126,None,,,,,,,,,,,,,0,45,45,45,692.0768491660128,,,,,,,,,,,,,,,,,,,,,,,,,,,,,,,,,,,,,,,,,,,,,,,,,,,,,,,,,,,,,,,,,,,,,,692.0704182499903,692.0768491660128,693.074444250029,694.0597161659971,694.0597161659971,694.0597161659971,696.5775980830076,right,2.5114930840209126,None,,,,,,,,981605,001,2024-12-08_16h10.48.516,Test,2024.2.4,None,2024-12-08 16h11.50.749128 +0100,
14,150,60,35,None,46,46,0,False,,,,left,0.7474396250327118,None,,,,,,,,,,,,,0,46,46,46,696.5920344580081,,,,,,,,,,,,,,,,,,,,,,,,,,,,,,,,,,,,,,,,,,,,,,,,,,,,,,,,,,,,,,,,,,,,,,696.5858548750402,696.5920344580081,697.5859448330011,698.5764302079915,698.5764302079915,698.5764302079915,699.327354500012,left,0.7474396250327118,None,,,,,,,,981605,001,2024-12-08_16h10.48.516,Test,2024.2.4,None,2024-12-08 16h11.50.749128 +0100,
17,150,90,41,None,47,47,0,False,,,,right,0.9319312919978984,None,,,,,,,,,,,,,0,47,47,47,699.3419917499996,,,,,,,,,,,,,,,,,,,,,,,,,,,,,,,,,,,,,,,,,,,,,,,,,,,,,,,,,,,,,,,,,,,,,,699.3360715000308,699.3419917499996,700.3359646660392,701.3264981660177,701.3264981660177,701.3264981660177,702.2607507909997,right,0.9319312919978984,None,,,,,,,,981605,001,2024-12-08_16h10.48.516,Test,2024.2.4,None,2024-12-08 16h11.50.749128 +0100,
36,150,0,25,None,48,48,0,True,,,,left,2.0050867079989985,None,,,,,,,,,,,,,0,48,48,48,702.2761106659891,,,,,,,,,,,,,,,,,,,,,,,,,,,,,,,,,,,,,,,,,,,,,,,,,,,,,,,,,,,,,,,,,,,,,,702.2700982080423,702.2761106659891,703.2693065000349,704.2594370410079,704.2594370410079,704.2594370410079,706.2712991249864,left,2.0050867079989985,None,,,,,,,,981605,001,2024-12-08_16h10.48.516,Test,2024.2.4,None,2024-12-08 16h11.50.749128 +0100,
39,150,0,30,None,49,49,0,True,,,,left,1.550615708983969,None,,,,,,,,,,,,,0,49,49,49,706.2861338329967,,,,,,,,,,,,,,,,,,,,,,,,,,,,,,,,,,,,,,,,,,,,,,,,,,,,,,,,,,,,,,,,,,,,,,706.2800431660144,706.2861338329967,707.2746314579854,708.2693693750189,708.2693693750189,708.2693693750189,709.830359124986,left,1.550615708983969,None,,,,,,,,981605,001,2024-12-08_16h10.48.516,Test,2024.2.4,None,2024-12-08 16h11.50.749128 +0100,
44,150,30,14,None,50,50,0,True,,,,left,1.0979302920168266,None,,,,,,,,,,,,,0,50,50,50,709.8425721250242,,,,,,,,,,,,,,,,,,,,,,,,,,,,,,,,,,,,,,,,,,,,,,,,,,,,,,,,,,,,,,,,,,,,,,709.8377970000147,709.8425721250242,710.8410520830075,711.8265972500085,711.8265972500085,711.8265972500085,712.9278793330304,left,1.0979302920168266,None,,,,,,,,981605,001,2024-12-08_16h10.48.516,Test,2024.2.4,None,2024-12-08 16h11.50.749128 +0100,
69,150,180,6,None,51,51,0,True,,,,left,1.1436647500377148,None,,,,,,,,,,,,,0,51,51,51,712.941932708025,,,,,,,,,,,,,,,,,,,,,,,,,,,,,,,,,,,,,,,,,,,,,,,,,,,,,,,,,,,,,,,,,,,,,,712.9359060000279,712.941932708025,713.9358031250304,714.9262863750337,714.9262863750337,714.9262863750337,716.0807602500427,left,1.1436647500377148,None,,,,,,,,981605,001,2024-12-08_16h10.48.516,Test,2024.2.4,None,2024-12-08 16h11.50.749128 +0100,
51,150,90,61,None,52,52,0,True,,,,left,1.2779572079889476,None,,,,,,,,,,,,,0,52,52,52,716.0924338750192,,,,,,,,,,,,,,,,,,,,,,,,,,,,,,,,,,,,,,,,,,,,,,,,,,,,,,,,,,,,,,,,,,,,,,716.0876759579987,716.0924338750192,717.0858682080288,718.0765799159999,718.0765799159999,718.0765799159999,719.3609171250137,left,1.2779572079889476,None,,,,,,,,981605,001,2024-12-08_16h10.48.516,Test,2024.2.4,None,2024-12-08 16h11.50.749128 +0100,
53,150,90,42,None,53,53,0,True,,,,left,1.5003538340097293,None,,,,,,,,,,,,,0,53,53,53,719.3753505410277,,,,,,,,,,,,,,,,,,,,,,,,,,,,,,,,,,,,,,,,,,,,,,,,,,,,,,,,,,,,,,,,,,,,,,719.3693155000219,719.3753505410277,720.374518125027,721.3599943750305,721.3599943750305,721.3599943750305,722.871222375019,left,1.5003538340097293,None,,,,,,,,981605,001,2024-12-08_16h10.48.516,Test,2024.2.4,None,2024-12-08 16h11.50.749128 +0100,
4,150,0,37,None,54,54,0,False,,,,right,1.0857847500010394,None,,,,,,,,,,,,,0,54,54,54,722.8863728750148,,,,,,,,,,,,,,,,,,,,,,,,,,,,,,,,,,,,,,,,,,,,,,,,,,,,,,,,,,,,,,,,,,,,,,722.8800050410209,722.8863728750148,723.8746794580366,724.8693172080093,724.8693172080093,724.8693172080093,725.9614071660326,right,1.0857847500010394,None,,,,,,,,981605,001,2024-12-08_16h10.48.516,Test,2024.2.4,None,2024-12-08 16h11.50.749128 +0100,
32,150,180,39,None,55,55,0,False,,,,right,1.068481708993204,None,,,,,,,,,,,,,0,55,55,55,725.97605454101,,,,,,,,,,,,,,,,,,,,,,,,,,,,,,,,,,,,,,,,,,,,,,,,,,,,,,,,,,,,,,,,,,,,,,725.9703267909936,725.97605454101,726.9693068750203,727.9593203330296,727.9593203330296,727.9593203330296,729.0380081250332,right,1.068481708993204,None,,,,,,,,981605,001,2024-12-08_16h10.48.516,Test,2024.2.4,None,2024-12-08 16h11.50.749128 +0100,
25,150,120,7,None,56,56,0,False,,,,right,1.1905372909968719,None,,,,,,,,,,,,,0,56,56,56,729.0534650410409,,,,,,,,,,,,,,,,,,,,,,,,,,,,,,,,,,,,,,,,,,,,,,,,,,,,,,,,,,,,,,,,,,,,,,729.0468755410402,729.0534650410409,730.0409690410015,731.0360469580046,731.0360469580046,731.0360469580046,732.2379000409856,right,1.1905372909968719,None,,,,,,,,981605,001,2024-12-08_16h10.48.516,Test,2024.2.4,None,2024-12-08 16h11.50.749128 +0100,
41,150,30,21,None,57,57,0,True,,,,right,1.5701500829891302,None,,,,,,,,,,,,,0,57,57,57,732.2536138750147,,,,,,,,,,,,,,,,,,,,,,,,,,,,,,,,,,,,,,,,,,,,,,,,,,,,,,,,,,,,,,,,,,,,,,732.2467828330118,732.2536138750147,733.2525589159923,734.236127540993,734.236127540993,734.236127540993,735.811209166015,right,1.5701500829891302,None,,,,,,,,981605,001,2024-12-08_16h10.48.516,Test,2024.2.4,None,2024-12-08 16h11.50.749128 +0100,
22,150,120,24,None,58,58,0,False,,,,left,1.1065186249907129,None,,,,,,,,,,,,,0,58,58,58,735.8255602910067,,,,,,,,,,,,,,,,,,,,,,,,,,,,,,,,,,,,,,,,,,,,,,,,,,,,,,,,,,,,,,,,,,,,,,735.8196398330037,735.8255602910067,736.8192812500056,737.8104105410166,737.8104105410166,737.8104105410166,738.9217347910162,left,1.1065186249907129,None,,,,,,,,981605,001,2024-12-08_16h10.48.516,Test,2024.2.4,None,2024-12-08 16h11.50.749128 +0100,
63,150,150,53,None,59,59,0,True,,,,left,1.654716124990955,None,,,,,,,,,,,,,0,59,59,59,738.9362515000394,,,,,,,,,,,,,,,,,,,,,,,,,,,,,,,,,,,,,,,,,,,,,,,,,,,,,,,,,,,,,,,,,,,,,,738.9297611250076,738.9362515000394,739.9237214160385,740.9193615409895,740.9193615409895,740.9193615409895,742.5777270830004,left,1.654716124990955,None,,,,,,,,981605,001,2024-12-08_16h10.48.516,Test,2024.2.4,None,2024-12-08 16h11.50.749128 +0100,
7,150,30,27,None,60,60,0,False,,,,left,2.093723417026922,None,,,,,,,,,,,,,0,60,60,60,742.5923672500066,,,,,,,,,,,,,,,,,,,,,,,,,,,,,,,,,,,,,,,,,,,,,,,,,,,,,,,,,,,,,,,,,,,,,,742.5860485000303,742.5923672500066,743.5858196250047,744.5767378330347,744.5767378330347,744.5767378330347,746.6772975830245,left,2.093723417026922,None,,,,,,,,981605,001,2024-12-08_16h10.48.516,Test,2024.2.4,None,2024-12-08 16h11.50.749128 +0100,
13,150,60,13,None,61,61,0,False,,,,left,1.0174511250224896,None,,,,,,,,,,,,,0,61,61,61,746.6920507500181,,,,,,,,,,,,,,,,,,,,,,,,,,,,,,,,,,,,,,,,,,,,,,,,,,,,,,,,,,,,,,,,,,,,,,746.685753000027,746.6920507500181,747.6859680410125,748.6768995000166,748.6768995000166,748.6768995000166,749.7047800000291,left,1.0174511250224896,None,,,,,,,,981605,001,2024-12-08_16h10.48.516,Test,2024.2.4,None,2024-12-08 16h11.50.749128 +0100,
38,150,0,10,None,62,62,0,True,,,,left,1.341268417018,None,,,,,,,,,,,,,0,62,62,62,749.719518458005,,,,,,,,,,,,,,,,,,,,,,,,,,,,,,,,,,,,,,,,,,,,,,,,,,,,,,,,,,,,,,,,,,,,,,749.7133799160365,749.719518458005,750.7083972080145,751.702651041036,751.702651041036,751.702651041036,753.0549311659997,left,1.341268417018,None,,,,,,,,981605,001,2024-12-08_16h10.48.516,Test,2024.2.4,None,2024-12-08 16h11.50.749128 +0100,
37,150,0,68,None,63,63,0,True,,,,left,1.494468999968376,None,,,,,,,,,,,,,0,63,63,63,753.0697298750165,,,,,,,,,,,,,,,,,,,,,,,,,,,,,,,,,,,,,,,,,,,,,,,,,,,,,,,,,,,,,,,,,,,,,,753.0627832910395,753.0697298750165,754.0577541660168,755.0527077910374,755.0527077910374,755.0527077910374,756.5547309580143,left,1.494468999968376,None,,,,,,,,981605,001,2024-12-08_16h10.48.516,Test,2024.2.4,None,2024-12-08 16h11.50.749128 +0100,
26,150,150,60,None,64,64,0,False,,,,left,1.8882373750093393,None,,,,,,,,,,,,,0,64,64,64,756.5700167909963,,,,,,,,,,,,,,,,,,,,,,,,,,,,,,,,,,,,,,,,,,,,,,,,,,,,,,,,,,,,,,,,,,,,,,756.5636572079966,756.5700167909963,757.5578075830126,758.5526893750066,758.5526893750066,758.5526893750066,760.4436674580211,left,1.8882373750093393,None,,,,,,,,981605,001,2024-12-08_16h10.48.516,Test,2024.2.4,None,2024-12-08 16h11.50.749128 +0100,
46,150,60,48,None,65,65,0,True,,,,left,1.2606901670224033,None,,,,,,,,,,,,,0,65,65,65,760.4577600409975,,,,,,,,,,,,,,,,,,,,,,,,,,,,,,,,,,,,,,,,,,,,,,,,,,,,,,,,,,,,,,,,,,,,,,760.4514227500185,760.4577600409975,761.4526119999937,762.4435980829876,762.4435980829876,762.4435980829876,763.7121305830078,left,1.2606901670224033,None,,,,,,,,981605,001,2024-12-08_16h10.48.516,Test,2024.2.4,None,2024-12-08 16h11.50.749128 +0100,
8,150,30,29,None,66,66,0,False,,,,right,1.3795207500224933,None,,,,,,,,,,,,,0,66,66,66,763.7261685410049,,,,,,,,,,,,,,,,,,,,,,,,,,,,,,,,,,,,,,,,,,,,,,,,,,,,,,,,,,,,,,,,,,,,,,763.7202627499937,763.7261685410049,764.723880375037,765.7089887080365,765.7089887080365,765.7089887080365,767.0946552500245,right,1.3795207500224933,None,,,,,,,,981605,001,2024-12-08_16h10.48.516,Test,2024.2.4,None,2024-12-08 16h11.50.749128 +0100,
60,150,120,63,None,67,67,0,True,,,,left,2.5107837499817833,None,,,,,,,,,,,,,0,67,67,67,767.1087341250386,,,,,,,,,,,,,,,,,,,,,,,,,,,,,,,,,,,,,,,,,,,,,,,,,,,,,,,,,,,,,,,,,,,,,,767.1028570409981,767.1087341250386,768.102648,769.0934008330223,769.0934008330223,769.0934008330223,771.6112627910334,left,2.5107837499817833,None,,,,,,,,981605,001,2024-12-08_16h10.48.516,Test,2024.2.4,None,2024-12-08 16h11.50.749128 +0100,
9,150,30,18,None,68,68,0,False,,,,left,1.0968612500000745,None,,,,,,,,,,,,,0,68,68,68,771.6266605000128,,,,,,,,,,,,,,,,,,,,,,,,,,,,,,,,,,,,,,,,,,,,,,,,,,,,,,,,,,,,,,,,,,,,,,771.6201010409859,771.6266605000128,772.6243665409856,773.6101573749911,773.6101573749911,773.6101573749911,774.7109146250295,left,1.0968612500000745,None,,,,,,,,981605,001,2024-12-08_16h10.48.516,Test,2024.2.4,None,2024-12-08 16h11.50.749128 +0100,
61,150,150,45,None,69,69,0,True,,,,right,1.2834293749765493,None,,,,,,,,,,,,,0,69,69,69,774.7264091660036,,,,,,,,,,,,,,,,,,,,,,,,,,,,,,,,,,,,,,,,,,,,,,,,,,,,,,,,,,,,,,,,,,,,,,774.7199583330075,774.7264091660036,775.724382541026,776.7099395830301,776.7099395830301,776.7099395830301,778.0046731249895,right,1.2834293749765493,None,,,,,,,,981605,001,2024-12-08_16h10.48.516,Test,2024.2.4,None,2024-12-08 16h11.50.749128 +0100,
,,,,,,,,,,,,,,,,,,,,,,,,,,,,,,,,,,,,,,,,,,,,,,,,,,,,,,,,,,,,,,,,,,,,,,,,,,,,,,,,,,,,,,,,,,,,,,,,,,,,,,,,,,,,,,,778.0049912910326,778.0145048749982,778.0145048749982,781.7610721249948,space,3.7406144580454566,None,981605,001,2024-12-08_16h10.48.516,Test,2024.2.4,None,2024-12-08 16h11.50.749128 +0100,
